"Time (s)","Linear Acceleration x (m/s^2)","Linear Acceleration y (m/s^2)","Linear Acceleration z (m/s^2)","Absolute acceleration (m/s^2)"
2.532575500E-2,-5.141200125E-2,2.619924068E0,6.105721951E0,6.644282193E0
3.024793800E-2,-5.141200125E-2,2.619924068E0,6.105721951E0,6.644282193E0
3.517032100E-2,-5.141200125E-2,2.619924068E0,6.105721951E0,6.644282193E0
4.009255300E-2,-5.141200125E-2,2.619924068E0,6.105721951E0,6.644282193E0
4.501492100E-2,-5.141200125E-2,2.619924068E0,6.105721951E0,6.644282193E0
4.993707700E-2,-5.141200125E-2,2.619924068E0,6.105721951E0,6.644282193E0
5.485930600E-2,-5.141200125E-2,2.619924068E0,6.105721951E0,6.644282193E0
5.978168900E-2,-5.141200125E-2,2.619924068E0,6.105721951E0,6.644282193E0
6.470415100E-2,-5.141200125E-2,2.619924068E0,6.105721951E0,6.644282193E0
6.962638400E-2,-5.141200125E-2,2.619924068E0,6.105721951E0,6.644282193E0
7.454874200E-2,-5.141200125E-2,2.619924068E0,6.105721951E0,6.644282193E0
7.947097500E-2,-5.141200125E-2,2.619924068E0,6.105721951E0,6.644282193E0
8.439343500E-2,-5.141200125E-2,2.619924068E0,6.105721951E0,6.644282193E0
8.931556700E-2,-5.141200125E-2,2.619924068E0,6.105721951E0,6.644282193E0
9.423794900E-2,-5.141200125E-2,2.619924068E0,6.105721951E0,6.644282193E0
9.916038600E-2,-5.141200125E-2,2.619924068E0,6.105721951E0,6.644282193E0
1.040825420E-1,5.681000184E-3,-8.332700133E-1,-2.309235096E0,2.454982264E0
1.090047320E-1,-5.316999927E-2,-8.087800145E-1,-2.123420954E0,2.272854748E0
1.139271150E-1,-6.101400033E-2,-8.074129820E-1,-1.964182973E0,2.124535992E0
1.188493340E-1,-3.951999824E-3,-7.935690284E-1,-1.779628992E0,1.948549915E0
1.237717160E-1,5.076200143E-2,-7.791529894E-1,-1.596145034E0,1.776889172E0
1.286941780E-1,3.096799925E-2,-7.610899806E-1,-1.435564995E0,1.625135019E0
1.336163000E-1,-8.175999857E-3,-7.204769850E-1,-1.343304992E0,1.524343214E0
1.385385310E-1,-5.756000057E-3,-7.348170280E-1,-1.264876962E0,1.462840704E0
1.434609900E-1,7.188700140E-2,-7.324380279E-1,-1.200216055E0,1.407889124E0
1.483833260E-1,2.316749990E-1,-7.453780174E-1,-1.126824975E0,1.370764830E0
1.533057870E-1,3.294430077E-1,-7.521749735E-1,-1.120975971E0,1.389563606E0
1.582279430E-1,3.141109943E-1,-7.454659939E-1,-1.118976951E0,1.380758734E0
1.631501550E-1,2.018830031E-1,-7.263529897E-1,-1.168295026E0,1.390416729E0
1.680725380E-1,7.422699779E-2,-6.917189956E-1,-1.280267000E0,1.457075292E0
1.729947510E-1,-6.420300156E-2,-7.135390043E-1,-1.440469027E0,1.608791768E0
1.779171340E-1,-4.500199854E-2,-7.461969852E-1,-1.471722960E0,1.650697911E0
1.828393470E-1,7.472500205E-2,-7.711120248E-1,-1.445603013E0,1.640111475E0
1.877617290E-1,1.855300069E-1,-7.918570042E-1,-1.469419956E0,1.679480249E0
1.926841910E-1,2.228990048E-1,-7.412120104E-1,-1.492117047E0,1.680920133E0
1.976063280E-1,1.846520007E-1,-6.961249709E-1,-1.487290978E0,1.652489271E0
2.025285590E-1,1.831749976E-1,-6.308069825E-1,-1.418846965E0,1.563520783E0
2.074510180E-1,2.204249948E-1,-5.505290031E-1,-1.341694951E0,1.466906508E0
2.123734850E-1,2.252759933E-1,-4.810020030E-1,-1.201014042E0,1.313220061E0
2.172956410E-1,2.617560029E-1,-4.158360064E-1,-8.920210004E-1,1.018399359E0
2.222181000E-1,3.201470077E-1,-3.255920112E-1,-5.035589933E-1,6.797616671E-1
2.271404700E-1,3.931609988E-1,-2.220699936E-1,-1.745499969E-1,4.841057265E-1
2.320626260E-1,4.170080125E-1,-1.173169985E-1,1.838600077E-2,4.335862148E-1
2.369847840E-1,4.043349922E-1,-8.678999729E-3,1.780889928E-1,4.419024783E-1
2.419072440E-1,4.855799973E-1,8.682499826E-2,5.456539989E-1,7.355710710E-1
2.468294630E-1,5.800719857E-1,1.987240016E-1,9.483799934E-1,1.129335800E0
2.517518450E-1,5.680840015E-1,2.402060032E-1,1.318508983E0,1.455638792E0
2.566743070E-1,5.362750292E-1,2.784009874E-1,1.569795966E0,1.682069378E0
2.615964620E-1,5.436879992E-1,2.547630072E-1,1.847870946E0,1.942968827E0
2.665189210E-1,5.048270226E-1,2.692349851E-1,2.073939085E0,2.151409103E0
2.714410770E-1,4.433709979E-1,3.118210137E-1,2.320019960E0,2.382499277E0
2.763636240E-1,3.397580087E-1,2.783820033E-1,2.572987080E0,2.610209677E0
2.812860100E-1,2.806760073E-1,2.279479951E-1,2.877104044E0,2.899735676E0
2.862081640E-1,3.648490012E-1,1.347749978E-1,3.340008020E0,3.362578277E0
2.911306150E-1,4.170260131E-1,8.725500107E-2,3.758316994E0,3.782389556E0
2.960525400E-1,2.957459986E-1,7.271199673E-2,3.947967052E0,3.959696526E0
3.009749260E-1,4.356700182E-2,2.851600014E-2,4.067172050E0,4.067505345E0
3.058973880E-1,-2.350309938E-1,-5.288700014E-2,4.130486012E0,4.137505443E0
3.108196210E-1,-4.568729997E-1,-9.591499716E-2,4.131105900E0,4.157399257E0
3.157420280E-1,-6.246479750E-1,-1.466380060E-1,4.083621025E0,4.133720899E0
3.206642610E-1,-7.478799820E-1,-1.604020000E-1,3.976336956E0,4.049235589E0
3.255866440E-1,-7.834569812E-1,-1.617899984E-1,3.828610897E0,3.911296747E0
3.305088720E-1,-7.095199823E-1,-1.038080007E-1,3.657469034E0,3.727100004E0
3.354313310E-1,-6.657299995E-1,-2.548100054E-2,3.410406113E0,3.474869144E0
3.403537180E-1,-5.844960213E-1,8.183299750E-2,3.080466032E0,3.136495371E0
3.452759490E-1,-5.392789841E-1,1.957589984E-1,2.691768885E0,2.752228758E0
3.501984080E-1,-4.749340117E-1,3.036670089E-1,2.268387079E0,2.337382277E0
3.551205590E-1,-3.459919989E-1,4.598129988E-1,1.901458025E0,1.986625551E0
3.600427130E-1,-2.618060112E-1,6.039670110E-1,1.521576047E0,1.657863747E0
3.649651870E-1,-1.694840044E-1,7.788869739E-1,1.167070985E0,1.413309743E0
3.698875720E-1,-1.118569970E-1,9.034559727E-1,8.282290101E-1,1.230734730E0
3.748098140E-1,-3.654700145E-2,1.016160965E0,4.666740000E-1,1.118795519E0
3.797321960E-1,7.754299790E-2,1.131590962E0,1.230269969E-1,1.140897307E0
3.846546580E-1,1.442739964E-1,1.261868954E0,-1.908060014E-1,1.284342311E0
3.895768960E-1,2.064930052E-1,1.371984959E0,-4.702660143E-1,1.464968331E0
3.944990500E-1,3.398770094E-1,1.493636966E0,-7.370319963E-1,1.699907036E0
3.994215040E-1,5.031830072E-1,1.596709013E0,-9.817720056E-1,1.940759924E0
4.043438890E-1,6.910529733E-1,1.660807967E0,-1.204748988E0,2.165007492E0
4.092661220E-1,9.174649715E-1,1.679916978E0,-1.372722030E0,2.355467851E0
4.141884990E-1,1.153061986E0,1.716317058E0,-1.591024041E0,2.608956436E0
4.191107320E-1,1.338039994E0,1.701297998E0,-1.787997007E0,2.807436411E0
4.240328820E-1,1.396613955E0,1.696802020E0,-2.001885891E0,2.972745323E0
4.289552640E-1,1.251423001E0,1.618816018E0,-2.285346031E0,3.067479635E0
4.338777450E-1,1.004138947E0,1.466739058E0,-2.643066883E0,3.185187756E0
4.387999780E-1,7.317699790E-1,1.278373957E0,-3.010287046E0,3.351351276E0
4.437223600E-1,5.530899763E-1,1.081815958E0,-3.358094931E0,3.571139293E0
4.486446070E-1,5.163699985E-1,8.574429750E-1,-3.707851887E0,3.840574442E0
4.535669900E-1,5.603200197E-1,6.526150107E-1,-3.994724035E0,4.086280093E0
4.584892090E-1,5.984550118E-1,4.789989889E-1,-4.194662094E0,4.264126935E0
4.634116680E-1,6.099230051E-1,2.941510081E-1,-4.293469906E0,4.346540546E0
4.683340550E-1,5.937449932E-1,6.450899690E-2,-4.307931900E0,4.349134602E0
4.732565180E-1,5.710549951E-1,-1.431909949E-1,-4.274887085E0,4.315236617E0
4.781787510E-1,5.611519814E-1,-3.445290029E-1,-4.168294907E0,4.219985096E0
4.831009050E-1,5.808029771E-1,-4.829039872E-1,-4.009483814E0,4.080010884E0
4.880232740E-1,6.491379738E-1,-6.005520225E-1,-3.738804102E0,3.841965507E0
4.929454290E-1,6.763619781E-1,-6.852099895E-1,-3.356575966E0,3.491930765E0
4.978676680E-1,6.439579725E-1,-7.188839912E-1,-2.960935116E0,3.114259595E0
5.027901300E-1,4.859820008E-1,-7.338389754E-1,-2.700386047E0,2.840208259E0
5.077125140E-1,2.093739957E-1,-8.041620255E-1,-2.635075092E0,2.762993807E0
5.126347560E-1,-7.387299836E-2,-8.916260004E-1,-2.614166975E0,2.763027889E0
5.175571390E-1,-3.319489956E-1,-1.033202052E0,-2.549293041E0,2.770666278E0
5.224793720E-1,-4.759849906E-1,-1.196671963E0,-2.332604885E0,2.664513285E0
5.274018360E-1,-6.223959923E-1,-1.331804991E0,-1.896908045E0,2.399862795E0
5.323242230E-1,-7.835559845E-1,-1.471220970E0,-1.108271956E0,2.001678759E0
5.372464540E-1,-7.662159801E-1,-1.611986995E0,9.810800105E-2,1.787516204E0
5.421688260E-1,-8.038619757E-1,-1.812818050E0,1.520614982E0,2.498954438E0
5.470910590E-1,-9.807090163E-1,-2.035243988E0,2.969811916E0,3.731459645E0
5.520132280E-1,-1.166640043E0,-2.272113085E0,4.369156837E0,5.060936507E0
5.569356100E-1,-1.368649006E0,-2.495209932E0,5.723715782E0,6.392197984E0
5.618578430E-1,-1.651613951E0,-2.771717072E0,7.089974880E0,7.789607690E0
5.667802980E-1,-1.831050038E0,-3.038131952E0,8.658517838E0,9.356971794E0
5.717026830E-1,-1.801223993E0,-3.315906048E0,1.027873707E1,1.094952403E1
5.766249440E-1,-1.626636028E0,-3.478540897E0,1.157267666E1,1.219315532E1
5.815473270E-1,-1.372532010E0,-3.569935083E0,1.247132301E1,1.304462258E1
5.864695600E-1,-1.145236969E0,-3.619990110E0,1.288175106E1,1.342964655E1
5.913920140E-1,-1.146474957E0,-3.573564053E0,1.290030766E1,1.343512942E1
5.963144010E-1,-1.221032977E0,-3.554883003E0,1.278364277E1,1.332477531E1
6.012366320E-1,-1.279351950E0,-3.782955885E0,1.261096382E1,1.322814821E1
6.061589900E-1,-1.638157964E0,-3.769464970E0,1.282548904E1,1.346794702E1
6.110812230E-1,-2.019251108E0,-3.563651085E0,1.337934685E1,1.399228023E1
6.160033860E-1,-2.012777090E0,-3.392076015E0,1.371672916E1,1.427256495E1
6.209258450E-1,-1.793337941E0,-3.370266914E0,1.375578213E1,1.427572422E1
6.258480160E-1,-1.533576012E0,-3.443166971E0,1.394025421E1,1.444084283E1
6.307704760E-1,-1.166800022E0,-3.551846981E0,1.430675697E1,1.478716790E1
6.356928550E-1,-6.238369942E-1,-3.586177111E0,1.440224934E1,1.485512116E1
6.406150880E-1,-1.579670012E-1,-3.444617987E0,1.406757641E1,1.448402750E1
6.455374710E-1,4.904900119E-2,-3.171546936E0,1.339461899E1,1.376506206E1
6.504597040E-1,1.291400008E-2,-2.717108011E0,1.243125439E1,1.272473687E1
6.553821630E-1,-1.579429954E-1,-2.075747967E0,1.129259682E1,1.148287501E1
6.603045500E-1,-3.877139986E-1,-1.352152944E0,9.981327057E0,1.007995682E1
6.652267810E-1,-6.709920168E-1,-7.007110119E-1,8.713207245E0,8.767052338E0
6.701491630E-1,-9.432359934E-1,-9.867600352E-2,7.455029964E0,7.515111633E0
6.750713960E-1,-1.149593949E0,4.221900105E-1,6.281252861E0,6.399527182E0
6.799937600E-1,-1.296092033E0,8.781560063E-1,5.311698914E0,5.537613013E0
6.849159150E-1,-1.311349988E0,1.347512960E0,4.371638775E0,4.758850234E0
6.898384080E-1,-1.293782949E0,1.863670945E0,3.360445023E0,4.054594241E0
6.947606410E-1,-1.250854015E0,2.413253069E0,2.201189995E0,3.497665441E0
6.996831000E-1,-1.085842967E0,2.909179926E0,9.273869991E-1,3.240745198E0
7.046054920E-1,-7.857649922E-1,3.326251030E0,-4.753449857E-1,3.450699261E0
7.095276460E-1,-4.264720082E-1,3.576719046E0,-2.002326012E0,4.121177861E0
7.144500800E-1,-8.279799670E-2,3.764353037E0,-3.520787001E0,5.154915169E0
7.193723130E-1,7.914900035E-2,3.880019903E0,-4.872638226E0,6.229239303E0
7.242946960E-1,1.416160017E-1,3.979298115E0,-6.112738132E0,7.295233790E0
7.292169240E-1,2.363700047E-2,4.060959816E0,-7.308020115E0,8.360568840E0
7.341393060E-1,-1.372880042E-1,4.107034206E0,-8.429564476E0,9.377853444E0
7.390615200E-1,-3.284009993E-1,3.978149891E0,-9.454384804E0,1.026250046E1
7.439839030E-1,-5.311030149E-1,3.916538954E0,-1.038313484E1,1.110994316E1
7.489061110E-1,-7.198719978E-1,3.950998068E0,-1.116568279E1,1.186596282E1
7.538284940E-1,-8.168439865E-1,3.993958950E0,-1.173716545E1,1.242497465E1
7.587507170E-1,-8.489130139E-1,3.957559109E0,-1.215225029E1,1.280859534E1
7.636730990E-1,-8.641790152E-1,3.759248972E0,-1.242503166E1,1.301000269E1
7.685953320E-1,-7.719939947E-1,3.533718109E0,-1.254663754E1,1.305761279E1
7.735177820E-1,-7.339890003E-1,3.280694008E0,-1.250862980E1,1.295250989E1
7.784399380E-1,-6.169729829E-1,2.988205910E0,-1.228253174E1,1.265585304E1
7.833623970E-1,-4.285160005E-1,2.673227072E0,-1.194779015E1,1.225069216E1
7.882847870E-1,-1.572570056E-1,2.388474941E0,-1.167248821E1,1.191539019E1
7.932070200E-1,2.588200010E-2,2.095520973E0,-1.141403389E1,1.160482864E1
7.981294020E-1,2.088519931E-1,1.765068054E0,-1.099814987E1,1.114084310E1
8.030516500E-1,3.912389874E-1,1.449306965E0,-1.051163673E1,1.061828920E1
8.079738040E-1,5.469740033E-1,9.975630045E-1,-9.983257294E0,1.004787235E1
8.128962670E-1,6.798689961E-1,5.683450103E-1,-9.475818634E0,9.517162218E0
8.178184230E-1,7.686439753E-1,1.734780073E-1,-9.055299759E0,9.089519344E0
8.227408790E-1,7.618709803E-1,-2.146739960E-1,-8.689240456E0,8.725218164E0
8.276632630E-1,6.057410240E-1,-5.727750063E-1,-8.371093750E0,8.412502836E0
8.325857250E-1,3.318899870E-1,-9.345080256E-1,-8.213230133E0,8.272883743E0
8.375078900E-1,9.706000239E-2,-1.332299948E0,-8.106087685E0,8.215418513E0
8.424301210E-1,-1.218710020E-1,-1.764845967E0,-7.917932034E0,8.113148681E0
8.473525800E-1,-3.162229955E-1,-2.167571068E0,-7.705673218E0,8.010977534E0
8.522749840E-1,-4.533190131E-1,-2.458014965E0,-7.696767807E0,8.092439087E0
8.571972170E-1,-3.956199884E-1,-2.647306919E0,-7.859062195E0,8.302385662E0
8.621195990E-1,-3.585479856E-1,-2.774424076E0,-8.071320534E0,8.542376764E0
8.670418320E-1,-3.795959949E-1,-2.877696991E0,-8.242430687E0,8.738586655E0
8.719642150E-1,-4.957309961E-1,-2.919157982E0,-8.441132545E0,8.945387146E0
8.768863700E-1,-6.587749720E-1,-2.959289074E0,-8.666416168E0,9.181402153E0
8.818088300E-1,-7.384510040E-1,-2.935494900E0,-8.898877144E0,9.399598641E0
8.867310540E-1,-7.689160109E-1,-2.887929916E0,-9.030190468E0,9.511872104E0
8.916535130E-1,-7.744619846E-1,-2.810441971E0,-9.160605431E0,9.613275576E0
8.965756690E-1,-7.848200202E-1,-2.744230986E0,-9.247076035E0,9.677559680E0
9.014980370E-1,-8.490120173E-1,-2.681121111E0,-9.255851746E0,9.673676827E0
9.064202700E-1,-9.624099731E-1,-2.586525917E0,-9.157419205E0,9.564239424E0
9.113426520E-1,-9.980880022E-1,-2.503520966E0,-9.020527840E0,9.414548284E0
9.162651250E-1,-9.674620032E-1,-2.389486074E0,-8.901147842E0,9.266933654E0
9.211873580E-1,-1.047657013E0,-2.276093960E0,-8.901084900E0,9.247026621E0
9.261097400E-1,-1.251237988E0,-2.174560070E0,-8.917138100E0,9.263350360E0
9.310319630E-1,-1.439386010E0,-2.072038889E0,-8.831366539E0,9.184672677E0
9.359541170E-1,-1.549489975E0,-1.950615048E0,-8.591623306E0,8.945491003E0
9.408764990E-1,-1.685845971E0,-1.862838984E0,-8.211798668E0,8.587542319E0
9.457989710E-1,-1.833431005E0,-1.736799955E0,-7.719298840E0,8.121915902E0
9.507212040E-1,-1.934399009E0,-1.633152008E0,-7.013057232E0,7.456008097E0
9.556435860E-1,-1.877125978E0,-1.569520950E0,-6.128300190E0,6.598716631E0
9.605658480E-1,-1.712281942E0,-1.541808963E0,-5.246903896E0,5.730539663E0
9.654882310E-1,-1.583207965E0,-1.452525973E0,-4.512488842E0,4.997893027E0
9.704104640E-1,-1.492980003E0,-1.285732031E0,-3.922380924E0,4.389438263E0
9.753329270E-1,-1.358728051E0,-1.038630009E0,-3.371366024E0,3.780344307E0
9.802553140E-1,-1.299878955E0,-8.492249846E-1,-2.724823952E0,3.136165483E0
9.851775450E-1,-1.337687016E0,-7.284399867E-1,-2.038506031E0,2.544707882E0
9.900999130E-1,-1.491675019E0,-6.152470112E-1,-1.343559980E0,2.099708710E0
9.950221460E-1,-1.583333015E0,-4.987300038E-1,-5.074920058E-1,1.735863817E0
9.999442900E-1,-1.435184002E0,-4.445390105E-1,9.572389722E-1,1.781480985E0
1.004866749E0,-1.239817977E0,-5.002949834E-1,3.207525969E0,3.475005975E0
1.009788915E0,-1.052790999E0,-5.723109841E-1,5.692375183E0,5.817133656E0
1.014711375E0,-9.695450068E-1,-6.198310256E-1,8.030739784E0,8.112767068E0
1.019633836E0,-1.039621949E0,-6.527969837E-1,1.020554066E1,1.027910589E1
1.024556228E0,-1.068096042E0,-5.174450278E-1,1.257584190E1,1.263172111E1
1.029478151E0,-8.882330060E-1,-3.253799975E-1,1.517488861E1,1.520434393E1
1.034400611E0,-2.915630043E-1,-3.709490001E-1,1.801190186E1,1.801808038E1
1.039323076E0,5.116850138E-1,-6.488839984E-1,2.083780670E1,2.085418567E1
1.044245463E0,9.445019960E-1,-9.318680167E-1,2.295635033E1,2.299466204E1
1.049167694E0,8.327680230E-1,-1.108796000E0,2.406470871E1,2.410462894E1
1.054090043E0,1.300040036E-1,-1.302011967E0,2.416919708E1,2.420459097E1
1.059012199E0,-1.308724999E0,-1.742220044E0,2.347930908E1,2.358020455E1
1.063934625E0,-2.580809116E0,-2.710009098E0,2.295572662E1,2.325876415E1
1.068856857E0,-3.054929018E0,-3.912724972E0,2.295990562E1,2.349040813E1
1.073779250E0,-2.786680937E0,-4.587882042E0,2.340998650E1,2.401752943E1
1.078701406E0,-2.128890991E0,-4.495521069E0,2.435766220E1,2.486036191E1
1.083623865E0,-1.727722049E0,-4.127453804E0,2.525544357E1,2.564874906E1
1.088546117E0,-1.717002988E0,-3.787209034E0,2.577383041E1,2.610711370E1
1.093468500E0,-1.820793033E0,-3.482132912E0,2.573011017E1,2.602842881E1
1.098390733E0,-1.659716964E0,-3.010282993E0,2.530690193E1,2.553929814E1
1.103313182E0,-1.329534054E0,-2.267610073E0,2.455257416E1,2.469288590E1
1.108235569E0,-9.954239726E-1,-1.276679993E0,2.357372093E1,2.362924246E1
1.113157800E0,-8.376359940E-1,-3.746080101E-1,2.254133797E1,2.256000626E1
1.118080187E0,-6.569280028E-1,2.110220045E-1,2.133094788E1,2.134210444E1
1.123002420E0,-4.543280005E-1,3.749530017E-1,1.978954124E1,1.979830665E1
1.127924792E0,-5.058969855E-1,2.741799951E-1,1.788869476E1,1.789794700E1
1.132847024E0,-6.790599823E-1,2.386119962E-1,1.571040344E1,1.572688254E1
1.137769174E0,-8.295239806E-1,5.557810068E-1,1.342535686E1,1.346243698E1
1.142691634E0,-9.204180241E-1,1.070495009E0,1.117535782E1,1.126418001E1
1.147614037E0,-8.403369784E-1,1.704285979E0,8.807583809E0,9.010232488E0
1.152536270E0,-7.374389768E-1,2.221415997E0,6.276666164E0,6.698883744E0
1.157458653E0,-5.464220047E-1,2.625202894E0,3.637799025E0,4.519275272E0
1.162380886E0,-3.186689913E-1,2.866544008E0,1.017972946E0,3.058577021E0
1.167303268E0,-7.685899734E-2,3.036983967E0,-1.448451042E0,3.365589004E0
1.172225730E0,5.371999927E-3,3.147515059E0,-3.593759060E0,4.777236030E0
1.177147963E0,-1.322900038E-2,3.201396942E0,-5.384233952E0,6.264111480E0
1.182070345E0,2.845500037E-2,3.211523056E0,-6.938904762E0,7.646115963E0
1.186992501E0,8.704700321E-2,3.216150045E0,-8.390504837E0,8.986198847E0
1.191914966E0,1.411090046E-1,3.115356922E0,-9.561306953E0,1.005703491E1
1.196837121E0,2.506180108E-1,2.945440054E0,-1.047731972E1,1.088635177E1
1.201759566E0,3.508859873E-1,2.690212965E0,-1.123647118E1,1.155935341E1
1.206681799E0,4.152339995E-1,2.340781927E0,-1.187933159E1,1.211487508E1
1.211604181E0,3.811610043E-1,2.048484087E0,-1.238914585E1,1.256314076E1
1.216526414E0,2.320609987E-1,1.686738014E0,-1.274695683E1,1.286016507E1
1.221448568E0,3.392000124E-2,1.279548049E0,-1.293165493E1,1.299484871E1
1.226371028E0,-1.010250002E-1,8.817089796E-1,-1.306352425E1,1.309363519E1
1.231293489E0,-3.046520054E-1,3.634270132E-1,-1.314796638E1,1.315651596E1
1.236215876E0,-5.765159726E-1,-2.150339931E-1,-1.315131187E1,1.316569840E1
1.241138107E0,-8.681740165E-1,-7.820940018E-1,-1.295587444E1,1.300846185E1
1.246060499E0,-1.073691010E0,-1.253069043E0,-1.273730564E1,1.284375138E1
1.250982732E0,-1.297750950E0,-1.652089953E0,-1.238632107E1,1.256322046E1
1.255905115E0,-1.465600967E0,-2.072963953E0,-1.193233490E1,1.219941728E1
1.260827270E0,-1.503888011E0,-2.414654016E0,-1.137357330E1,1.172392438E1
1.265749523E0,-1.455168962E0,-2.650096893E0,-1.089796162E1,1.130955780E1
1.270671985E0,-1.296707034E0,-2.849776030E0,-1.048066902E1,1.093833149E1
1.275594369E0,-1.122660041E0,-3.026686907E0,-1.006626415E1,1.057122856E1
1.280516529E0,-1.012547016E0,-3.175062895E0,-9.599822998E0,1.016183435E1
1.285438989E0,-9.788560271E-1,-3.372919083E0,-9.158264160E0,9.808595449E0
1.290361222E0,-1.038277030E0,-3.426115990E0,-8.871804237E0,9.566880390E0
1.295283667E0,-1.201637983E0,-3.451527119E0,-8.775777817E0,9.506379415E0
1.300206054E0,-1.363369942E0,-3.520147085E0,-8.814150810E0,9.588507058E0
1.305128285E0,-1.545325994E0,-3.489466906E0,-9.014906883E0,9.789430925E0
1.310050676E0,-1.804461002E0,-3.496382952E0,-9.231305122E0,1.003482773E1
1.314972909E0,-1.973618031E0,-3.435421944E0,-9.328995705E0,1.013545524E1
1.319895063E0,-1.969035029E0,-3.398792982E0,-9.420661926E0,1.020675089E1
1.324817517E0,-1.929967046E0,-3.289876938E0,-9.544971466E0,1.027883959E1
1.329739902E0,-1.959033966E0,-3.125802040E0,-9.668935776E0,1.034875700E1
1.334662146E0,-1.986335993E0,-2.926345110E0,-9.690171242E0,1.031544692E1
1.339584605E0,-1.884943008E0,-2.757587910E0,-9.537316322E0,1.010533047E1
1.344506761E0,-1.708068967E0,-2.534806013E0,-9.287264824E0,9.777322181E0
1.349429163E0,-1.485010028E0,-2.331284046E0,-9.038228989E0,9.451440279E0
1.354351624E0,-1.377163053E0,-2.126205921E0,-8.895961761E0,9.249619741E0
1.359273857E0,-1.357772946E0,-1.943483949E0,-8.784180641E0,9.098489258E0
1.364196240E0,-1.278156996E0,-1.740296960E0,-8.722110748E0,8.985406764E0
1.369118473E0,-1.082028985E0,-1.497594953E0,-8.630446434E0,8.825994732E0
1.374040855E0,-8.336009979E-1,-1.210137010E0,-8.560503006E0,8.685708602E0
1.378962992E0,-6.748080254E-1,-9.129869938E-1,-8.509783745E0,8.585180866E0
1.383885452E0,-6.103500128E-1,-6.625519991E-1,-8.604124069E0,8.651153292E0
1.388807588E0,-5.874450207E-1,-4.456920028E-1,-8.738740921E0,8.769796229E0
1.393730048E0,-5.794739723E-1,-2.594510019E-1,-8.853966713E0,8.876701609E0
1.398652281E0,-5.693479776E-1,-9.644199908E-2,-8.961607933E0,8.980193479E0
1.403574668E0,-5.559340119E-1,-1.287000021E-3,-9.044483185E0,9.061552867E0
1.408496901E0,-5.152900219E-1,1.057680026E-1,-9.103958130E0,9.119142740E0
1.413419284E0,-3.914889991E-1,1.293469965E-1,-9.075271606E0,9.084632574E0
1.418341550E0,-2.326820046E-1,1.795859933E-1,-9.025487900E0,9.030272636E0
1.423264009E0,-1.192869991E-1,1.968940049E-1,-9.040809631E0,9.043740124E0
1.428186396E0,-1.538520008E-1,2.725290060E-1,-9.127554893E0,9.132918528E0
1.433108632E0,-2.018390000E-1,4.103049934E-1,-9.187329292E0,9.198701468E0
1.438031014E0,-1.190949976E-1,4.756680131E-1,-9.057769775E0,9.071032851E0
1.442953156E0,5.959900096E-2,5.369790196E-1,-8.789560318E0,8.806149504E0
1.447875385E0,1.668030024E-1,6.608340144E-1,-8.571589470E0,8.598643549E0
1.452797769E0,6.232099980E-2,8.057780266E-1,-8.322334290E0,8.361483730E0
1.457719987E0,-3.491900116E-2,9.549440145E-1,-7.798137188E0,7.856467464E0
1.462642447E0,5.543100089E-2,1.068846941E0,-7.055556774E0,7.136272681E0
1.467564833E0,2.523039877E-1,1.150027037E0,-6.185057163E0,6.296121949E0
1.472487069E0,3.058809936E-1,1.097378969E0,-5.189614773E0,5.313182217E0
1.477409452E0,2.805509865E-1,1.077703953E0,-3.842715025E0,4.000826593E0
1.482331685E0,1.262049973E-1,1.189321995E0,-2.092040062E0,2.409781345E0
1.487254144E0,5.720100179E-2,1.355123043E0,1.319050044E-1,1.362728640E0
1.492176531E0,2.252089977E-1,1.460991025E0,2.769174099E0,3.139034733E0
1.497098762E0,3.978860080E-1,1.512087941E0,5.525247097E0,5.742218970E0
1.502021115E0,6.383190155E-1,1.516494036E0,8.673000336E0,8.827691666E0
1.506943271E0,7.471539974E-1,1.572957039E0,1.217890453E1,1.230276996E1
1.511865486E0,6.619870067E-1,1.634696007E0,1.597110462E1,1.606818722E1
1.516787870E0,6.754009724E-1,1.798424006E0,1.972637749E1,1.981969889E1
1.521710322E0,7.486330271E-1,1.888520002E0,2.312176132E1,2.321083380E1
1.526632555E0,8.022540212E-1,1.803859949E0,2.591534042E1,2.599042884E1
1.531554937E0,1.108819962E0,1.482799053E0,2.777468109E1,2.783632671E1
1.536477170E0,1.665182948E0,1.010184050E0,2.819275856E1,2.825995296E1
1.541399553E0,1.626623034E0,3.343499899E-1,2.756544113E1,2.761541666E1
1.546321786E0,1.231897950E0,-6.046220064E-1,2.685849762E1,2.689353147E1
1.551244245E0,1.290985942E0,-1.369876027E0,2.657052612E1,2.663711815E1
1.556166632E0,1.916828990E0,-1.627467036E0,2.686440659E1,2.698183136E1
1.561088863E0,2.834336996E0,-1.691434026E0,2.790008354E1,2.809464499E1
1.566011245E0,3.386353016E0,-2.064399958E0,2.903027725E1,2.929993398E1
1.570933401E0,3.584054947E0,-2.771699905E0,2.931324768E1,2.966132600E1
1.575855625E0,3.582587957E0,-3.354564905E0,2.900235367E1,2.941469973E1
1.580778086E0,3.618614912E0,-3.334806919E0,2.852867889E1,2.894997117E1
1.585700242E0,3.902748108E0,-2.678267002E0,2.791392517E1,2.831239614E1
1.590622702E0,4.326170921E0,-1.781198025E0,2.713412285E1,2.753450642E1
1.595545086E0,4.655992985E0,-1.015509009E0,2.604538536E1,2.647775723E1
1.600467334E0,4.703423977E0,-4.778980017E-1,2.478864670E1,2.523544311E1
1.605389717E0,4.544078827E0,-1.074389964E-1,2.351983643E1,2.395501828E1
1.610311950E0,4.334273815E0,7.484299690E-2,2.215931320E1,2.257934216E1
1.615234399E0,4.034173965E0,9.141799808E-2,2.039584351E1,2.079118441E1
1.620156786E0,3.683142900E0,6.106600165E-2,1.816272926E1,1.853251211E1
1.625079017E0,3.211071014E0,2.385410070E-1,1.560638809E1,1.593509423E1
1.630001356E0,2.792424917E0,6.742950082E-1,1.287157154E1,1.318823963E1
1.634923512E0,2.508392096E0,1.293068051E0,1.003874016E1,1.042786459E1
1.639845957E0,2.317611933E0,1.908730984E0,7.229803085E0,7.828450146E0
1.644768112E0,2.070909977E0,2.377074003E0,4.500713825E0,5.495049944E0
1.649690591E0,1.832033992E0,2.610280037E0,1.863636017E0,3.693649905E0
1.654613052E0,1.585247040E0,2.596333027E0,-5.135310292E-1,3.085071714E0
1.659535290E0,1.264577985E0,2.497741938E0,-2.607624054E0,3.825908451E0
1.664457444E0,1.072631955E0,2.356862068E0,-4.363173008E0,5.073718244E0
1.669379827E0,7.518389821E-1,2.155368090E0,-5.847027779E0,6.276830992E0
1.674302288E0,4.511219859E-1,1.889366984E0,-7.236244202E0,7.492426095E0
1.679224521E0,1.561390013E-1,1.521201968E0,-8.600189209E0,8.735083814E0
1.684146904E0,-1.161520034E-1,1.099423051E0,-9.778539658E0,9.840836355E0
1.689069156E0,-2.426480055E-1,6.966599822E-1,-1.082907581E1,1.085417414E1
1.693991538E0,-4.155089855E-1,3.868190050E-1,-1.192933464E1,1.194283474E1
1.698913810E0,-8.812699914E-1,8.419299871E-2,-1.295266914E1,1.298288732E1
1.703835964E0,-1.502220035E0,-4.103749990E-1,-1.394958591E1,1.403623952E1
1.708758389E0,-1.964661956E0,-1.126559019E0,-1.501880646E1,1.518860031E1
1.713680774E0,-2.220957994E0,-1.912606001E0,-1.596741390E1,1.623419302E1
1.718603007E0,-2.453607082E0,-2.530034065E0,-1.659381676E1,1.696396223E1
1.723525403E0,-2.687113047E0,-2.963136911E0,-1.694322777E1,1.740901273E1
1.728447636E0,-2.839392900E0,-3.230462074E0,-1.706814957E1,1.760169784E1
1.733370019E0,-2.847800016E0,-3.415576935E0,-1.690404892E1,1.747921625E1
1.738292248E0,-2.715396881E0,-3.676067114E0,-1.654721069E1,1.716674201E1
1.743214707E0,-2.592895031E0,-3.986942053E0,-1.598403168E1,1.667657280E1
1.748137094E0,-2.445719004E0,-4.264016151E0,-1.538502884E1,1.615123796E1
1.753059309E0,-2.282418966E0,-4.525493145E0,-1.472210884E1,1.557016420E1
1.757981691E0,-2.132278919E0,-4.722807884E0,-1.398390579E1,1.491312003E1
1.762903919E0,-2.009162903E0,-4.833992958E0,-1.334297657E1,1.433315203E1
1.767826302E0,-1.839090943E0,-4.908964157E0,-1.278589439E1,1.381880169E1
1.772748534E0,-1.638600945E0,-4.925890923E0,-1.245428467E1,1.349291003E1
1.777670932E0,-1.475692987E0,-4.887442112E0,-1.226011658E1,1.328063322E1
1.782593165E0,-1.466218948E0,-4.827813148E0,-1.207937431E1,1.309079301E1
1.787515547E0,-1.520581961E0,-4.733549118E0,-1.186531067E1,1.286484567E1
1.792437794E0,-1.492364049E0,-4.650756836E0,-1.160302734E1,1.258915935E1
1.797360177E0,-1.383721948E0,-4.578231812E0,-1.134701061E1,1.231379482E1
1.802282410E0,-1.194758058E0,-4.538466930E0,-1.107038784E1,1.202408482E1
1.807204874E0,-9.321669936E-1,-4.451938152E0,-1.081568718E1,1.173319129E1
1.812127261E0,-7.725059986E-1,-4.352190971E0,-1.061615944E1,1.149961621E1
1.817049491E0,-6.187679768E-1,-4.174027920E0,-1.042130375E1,1.124317369E1
1.821971869E0,-3.296540082E-1,-3.977104902E0,-1.030982685E1,1.105525056E1
1.826894102E0,-5.977199972E-2,-3.785248995E0,-1.027691460E1,1.095201608E1
1.831816509E0,1.450459957E-1,-3.575823069E0,-1.022217178E1,1.083052838E1
1.836738741E0,2.681330144E-1,-3.351933002E0,-1.011476707E1,1.065907422E1
1.841661138E0,3.956139982E-1,-3.078953981E0,-1.002671432E1,1.049625972E1
1.846583371E0,4.991460145E-1,-2.772316933E0,-1.004447937E1,1.043199184E1
1.851505753E0,5.947430134E-1,-2.419009924E0,-1.011083603E1,1.041318076E1
1.856427986E0,8.019919991E-1,-2.093322039E0,-1.013736916E1,1.038226573E1
1.861350369E0,9.053590298E-1,-1.752362967E0,-1.011261177E1,1.030317270E1
1.866272602E0,9.793990254E-1,-1.360702038E0,-1.018687153E1,1.032390837E1
1.871195061E0,9.575309753E-1,-8.826360106E-1,-1.026756001E1,1.034981644E1
1.876117448E0,1.057463050E0,-4.440119863E-1,-1.032709980E1,1.039059022E1
1.881039693E0,1.326205969E0,-5.665599927E-2,-1.041729546E1,1.050152736E1
1.885962076E0,1.489791989E0,3.304370046E-1,-1.043085957E1,1.054189262E1
1.890884309E0,1.492890954E0,6.557760239E-1,-1.026020813E1,1.038896705E1
1.895806648E0,1.412230968E0,1.012035966E0,-9.953482628E0,1.010398088E1
1.900728880E0,1.209254026E0,1.361243010E0,-9.661503792E0,9.831578375E0
1.905651234E0,9.457870126E-1,1.626641989E0,-9.374328613E0,9.561302954E0
1.910573467E0,7.701719999E-1,1.823207021E0,-9.026864052E0,9.241294463E0
1.915495849E0,6.468759775E-1,1.990136027E0,-8.630729675E0,8.880798650E0
1.920418131E0,3.950529993E-1,2.140669107E0,-8.269762039E0,8.551461588E0
1.925340514E0,1.132149994E-1,2.281100988E0,-7.974963188E0,8.295557679E0
1.930262732E0,-6.746699661E-2,2.386373997E0,-7.650094032E0,8.013942310E0
1.935185191E0,-1.427769959E-1,2.513417006E0,-7.278129101E0,7.701221560E0
1.940107578E0,-2.606019974E-1,2.625847101E0,-6.998120785E0,7.479082893E0
1.945029822E0,-5.056300163E-1,2.774928093E0,-6.715140820E0,7.283474711E0
1.949952205E0,-6.364399791E-1,2.919634104E0,-6.514801979E0,7.167423803E0
1.954874438E0,-5.999220014E-1,3.055403948E0,-6.248197079E0,6.981072011E0
1.959796826E0,-4.969199896E-1,3.182096958E0,-5.848587990E0,6.676724646E0
1.964719287E0,-4.337419868E-1,3.363750935E0,-5.302824020E0,6.294671957E0
1.969641506E0,-4.063149989E-1,3.340656042E0,-4.157336235E0,5.348693227E0
1.974563583E0,-1.074887037E0,3.815692902E0,-3.771615028E0,5.471743267E0
1.979486042E0,-2.291776896E0,4.173881054E0,-2.465559006E0,5.362136291E0
1.984408275E0,-3.026294947E0,4.084483147E0,3.605880141E-1,5.096222856E0
1.989330735E0,-2.983493090E0,3.779717922E0,3.246870995E0,5.807725014E0
1.994253121E0,-2.963346004E0,3.809537888E0,5.692980766E0,7.463513145E0
1.999175356E0,-3.332284927E0,4.152939796E0,8.577014923E0,1.009535620E1
2.004097739E0,-3.847973108E0,4.652129173E0,1.228663158E1,1.368979615E1
2.009019986E0,-4.232549191E0,4.990558147E0,1.633572769E1,1.759761752E1
2.013942369E0,-4.110489845E0,5.038682938E0,2.039636612E1,2.140785378E1
2.018864525E0,-3.392462015E0,4.589625835E0,2.399216461E1,2.466165904E1
2.023786985E0,-2.637773037E0,3.798362017E0,2.662946892E1,2.702802278E1
2.028709217E0,-2.674523115E0,3.277813911E0,2.721000862E1,2.753691535E1
2.033631576E0,-3.165576935E0,3.136405945E0,2.585865402E1,2.623981531E1
2.038553809E0,-2.662344933E0,2.880108118E0,2.497668839E1,2.528276223E1
2.043476191E0,-1.503551006E1,4.399621964E0,3.578009033E1,3.905941756E1
2.048398424E0,-2.692968369E1,6.085787773E0,5.411817932E1,6.075378185E1
2.053320807E0,-2.537935019E0,2.982161999E0,5.067845917E1,5.082952516E1
2.058243268E0,3.272811890E0,5.624659061E0,2.338663292E1,2.427514545E1
2.063165496E0,-4.895550013E-1,7.286398888E0,1.503060055E1,1.671078172E1
2.068087879E0,-2.962430000E0,4.610448837E0,2.075987053E1,2.147101428E1
2.073010111E0,1.381680071E-1,6.158519983E-1,2.398006630E1,2.398837101E1
2.077932566E0,1.600476980E0,-2.273415089E0,2.514569855E1,2.529893472E1
2.082854722E0,1.609143972E0,-2.873717070E0,2.354662895E1,2.377585601E1
2.087776857E0,1.523102045E0,-2.317683935E0,2.216058731E1,2.233345313E1
2.092699316E0,1.310111046E0,-2.018413067E0,2.138896942E1,2.152390288E1
2.097621701E0,4.830619991E-1,-2.327832937E0,2.054001236E1,2.067714349E1
2.102543948E0,-4.765999913E-1,-2.872629881E0,1.907457352E1,1.929555661E1
2.107466330E0,-1.055389047E0,-3.287358046E0,1.700074959E1,1.734779685E1
2.112388563E0,-8.953210115E-1,-3.376897097E0,1.521183586E1,1.560785008E1
2.117310965E0,-3.049399853E-1,-2.814201117E0,1.317442322E1,1.347509345E1
2.122233198E0,3.544799984E-1,-1.636196017E0,1.068311310E1,1.081349615E1
2.127155577E0,1.051220059E0,-2.535609901E-1,8.274187088E0,8.344550842E0
2.132077964E0,1.628147006E0,8.530949950E-1,6.280062199E0,6.543532300E0
2.137000423E0,1.903550982E0,1.520122051E0,4.612009048E0,5.215832135E0
2.141922578E0,1.642050028E0,1.855064988E0,3.088151932E0,3.959075240E0
2.146844809E0,1.085540056E0,2.056648970E0,1.603505969E0,2.824789123E0
2.151767197E0,2.334699929E-1,2.285321951E0,2.199600078E-2,2.297322024E0
2.156689429E0,-2.966189981E-1,2.596039057E0,-1.519258022E0,3.022506667E0
2.161611817E0,1.799069941E-1,2.962235928E0,-3.350096941E0,4.475528766E0
2.166534050E0,6.924340129E-1,3.466909885E0,-5.221570015E0,6.305848273E0
2.171456432E0,2.062247038E0,4.564485073E0,-7.053068161E0,8.650616008E0
2.176378627E0,2.299840927E0,5.507422924E0,-8.769096375E0,1.060745147E1
2.181301087E0,1.253958941E0,5.705039978E0,-9.525580406E0,1.117392394E1
2.186223463E0,1.901179999E-1,5.366094112E0,-9.979095459E0,1.133196616E1
2.191145694E0,-5.710229874E-1,4.851572037E0,-1.081104946E1,1.186349902E1
2.196068077E0,-8.485519886E-1,4.451376915E0,-1.162298203E1,1.247511555E1
2.200990295E0,-1.427788019E0,4.262532234E0,-1.250792408E1,1.329119725E1
2.205912755E0,-2.012845993E0,4.088521957E0,-1.260662460E1,1.340501938E1
2.210834891E0,-2.502588034E0,3.585371971E0,-1.281213570E1,1.353767558E1
2.215757045E0,-3.054960012E0,2.899127960E0,-1.331600761E1,1.396616563E1
2.220679514E0,-3.158104897E0,2.273725986E0,-1.370491028E1,1.424668460E1
2.225601899E0,-2.929481983E0,1.882284045E0,-1.389198303E1,1.432173350E1
2.230524146E0,-2.503565073E0,1.713446021E0,-1.370238113E1,1.403420764E1
2.235446528E0,-2.034838915E0,1.482642055E0,-1.330380344E1,1.353994029E1
2.240368761E0,-1.734917998E0,1.038637996E0,-1.266337395E1,1.282379620E1
2.245291226E0,-1.534067035E0,4.527890086E-1,-1.182201004E1,1.192972342E1
2.250213612E0,-1.440390944E0,-1.754730046E-1,-1.114662647E1,1.124067607E1
2.255135843E0,-1.493244052E0,-7.429689765E-1,-1.073120213E1,1.086004050E1
2.260058303E0,-1.671105981E0,-1.282220006E0,-1.053202534E1,1.074058849E1
2.264980458E0,-1.749104023E0,-1.857300997E0,-1.022562122E1,1.053908256E1
2.269902841E0,-1.763192058E0,-2.322067022E0,-9.861870766E0,1.028383861E1
2.274825059E0,-1.736932993E0,-2.755408049E0,-9.562577248E0,1.010208361E1
2.279747442E0,-1.580082059E0,-2.952079058E0,-9.341102600E0,9.923085602E0
2.284669923E0,-1.534309030E0,-3.020247936E0,-9.205977440E0,9.809486348E0
2.289592156E0,-1.477952957E0,-3.041327000E0,-9.285939217E0,9.882443119E0
2.294514310E0,-1.761844039E0,-2.968405962E0,-9.452404022E0,1.006297521E1
2.299436711E0,-2.091175079E0,-2.793312073E0,-9.573564529E0,1.018963902E1
2.304358944E0,-2.146377087E0,-2.685973883E0,-9.866229057E0,1.044815132E1
2.309281418E0,-2.027167082E0,-2.101161957E0,-9.722193718E0,1.015112499E1
2.314203879E0,-2.296477079E0,-1.450757027E0,-1.018025780E1,1.053642025E1
2.319126266E0,-1.991569996E0,-9.586660266E-1,-1.064108753E1,1.086821676E1
2.324048497E0,-1.553874016E0,-7.837219834E-1,-1.044500923E1,1.058900196E1
2.328970956E0,-1.765189052E0,-5.313869715E-1,-9.877809525E0,1.004835238E1
2.333893189E0,-1.890635014E0,-2.087060064E-1,-9.718234062E0,9.902632591E0
2.338815367E0,-1.888489008E0,1.672910005E-1,-9.710377693E0,9.893725888E0
2.343737826E0,-1.604864001E0,4.448559880E-1,-9.434191704E0,9.580055241E0
2.348659978E0,-1.028666019E0,7.339659929E-1,-9.120816231E0,9.207939431E0
2.353582361E0,-9.461860061E-1,1.085690975E0,-8.769070625E0,8.886539961E0
2.358504593E0,-8.655380011E-1,1.308421016E0,-8.511164665E0,8.654539014E0
2.363427052E0,-7.222769856E-1,1.460042000E0,-8.381489754E0,8.538312314E0
2.368349208E0,-6.495569944E-1,1.651533961E0,-8.323052406E0,8.510152177E0
2.373271643E0,-5.632560253E-1,1.792659998E0,-8.198464394E0,8.411046643E0
2.378194104E0,-3.457410038E-1,1.890823007E0,-8.013777733E0,8.241078936E0
2.383116337E0,-1.930609941E-1,1.959167957E0,-7.900806904E0,8.142380571E0
2.388038797E0,4.081900120E-1,1.924690008E0,-8.199687004E0,8.432432489E0
2.392960952E0,-1.079870015E-1,2.160706043E0,-8.038508415E0,8.324537785E0
2.397883412E0,-4.957379997E-1,2.169301033E0,-7.851471901E0,8.160712846E0
2.402805812E0,-3.228429854E-1,1.932595968E0,-7.850290775E0,8.091119825E0
2.407727968E0,7.418899983E-2,1.809314966E0,-8.401915550E0,8.594842033E0
2.412650188E0,2.913529873E-1,1.759212017E0,-8.480340004E0,8.665787908E0
2.417572571E0,2.812019885E-1,1.676977992E0,-7.722362995E0,7.907352273E0
2.422495032E0,1.520506024E0,1.309913039E0,-7.981606960E0,8.230058348E0
2.427417198E0,6.216019988E-1,1.427399039E0,-8.067988396E0,8.216829913E0
2.432339429E0,-1.712660044E-1,1.692801952E0,-7.320548058E0,7.515672582E0
2.437261812E0,-6.097609997E-1,1.862161994E0,-5.916221142E0,6.232265107E0
2.442184287E0,-8.985660076E-1,1.800546050E0,-4.554900169E0,4.979608670E0
2.447106520E0,-5.235469937E-1,1.758836985E0,-3.628000975E0,4.065710278E0
2.452028903E0,-2.207289934E-1,1.933555961E0,-3.054833889E0,3.622067094E0
2.456951355E0,-2.605740130E-1,2.226073980E0,-2.608941078E0,3.439458930E0
2.461873511E0,-5.926629901E-1,2.482256889E0,-2.159231901E0,3.342922537E0
2.466795722E0,-6.701470017E-1,2.701148987E0,-1.693261027E0,3.257673366E0
2.471718105E0,-6.226419806E-1,2.887396097E0,-9.113900065E-1,3.091176314E0
2.476640337E0,-8.749409914E-1,3.031542063E0,1.312039942E-1,3.158003088E0
2.481562797E0,-1.254650950E0,3.039829969E0,1.784154058E0,3.741379552E0
2.486484953E0,-1.452718973E0,2.731272936E0,4.232102871E0,5.242226528E0
2.491407335E0,-1.323379993E0,2.391082048E0,6.840795040E0,7.366483880E0
2.496329568E0,-1.508147955E0,2.112813950E0,9.756219864E0,1.009565843E1
2.501252028E0,-1.877599001E0,1.762951016E0,1.260241795E1,1.286290451E1
2.506174179E0,-2.647083998E0,1.420701981E0,1.548707294E1,1.577576864E1
2.511096638E0,-2.977314949E0,7.076600194E-1,1.873703766E1,1.898530398E1
2.516019023E0,-2.301594019E0,-1.544439942E-1,2.250006294E1,2.261800213E1
2.520941232E0,-1.936838984E0,-9.166499972E-1,2.554023361E1,2.562996538E1
2.525863692E0,-2.202416897E0,-1.232460022E0,2.689478683E1,2.701294424E1
2.530785852E0,-2.770266056E0,-1.198626995E0,2.621903610E1,2.639221353E1
2.535708235E0,-3.427258015E0,-1.260429025E0,2.396076202E1,2.423742758E1
2.540630444E0,-3.581176043E0,-1.652511001E0,2.189198494E1,2.224442894E1
2.545552827E0,-3.217447996E0,-2.422554970E0,2.178318405E1,2.215237801E1
2.550475050E0,-2.790018082E0,-2.920131922E0,2.302052689E1,2.337212077E1
2.555397432E0,-2.364049911E0,-3.052617073E0,2.537674332E1,2.566878073E1
2.560319894E0,-1.821413994E0,-3.178848028E0,2.772952461E1,2.797050516E1
2.565242040E0,-1.225509048E0,-3.119355917E0,2.861983871E1,2.881540251E1
2.570164271E0,-9.437950253E-1,-2.659849882E0,2.818080139E1,2.832177815E1
2.575086730E0,-7.083629966E-1,-1.992298007E0,2.709272194E1,2.717511015E1
2.580009182E0,-8.457069993E-1,-1.329746008E0,2.572893524E1,2.577715177E1
2.584931568E0,-9.506790042E-1,-7.968310118E-1,2.416358566E1,2.419540457E1
2.589853799E0,-1.033100009E0,-3.077040017E-1,2.268157005E1,2.270717062E1
2.594775934E0,-9.077579975E-1,1.256279945E-1,2.123747253E1,2.125723516E1
2.599698393E0,-9.325960279E-1,5.301790237E-1,2.026466370E1,2.029303870E1
2.604620768E0,-1.034901977E0,1.004987955E0,1.904727173E1,1.910182146E1
2.609543001E0,-1.117655039E0,1.409260035E0,1.761164474E1,1.770325386E1
2.614465155E0,-1.191830039E0,1.749446034E0,1.583337784E1,1.597425660E1
2.619387614E0,-9.459139705E-1,2.075864077E0,1.383478069E1,1.402159484E1
2.624309999E0,-5.938559771E-1,2.566308022E0,1.165917301E1,1.195302962E1
2.629232232E0,-2.527709901E-1,3.236841917E0,9.184680939E0,9.741632446E0
2.634154643E0,-1.582500041E-1,3.809758902E0,6.689189911E0,7.699647240E0
2.639076876E0,-1.592119932E-1,4.135601044E0,4.335656166E0,5.993868437E0
2.643999336E0,-1.085959971E-1,4.229506016E0,2.248709917E0,4.791368335E0
2.648921717E0,-1.252800040E-2,4.126313210E0,2.965059876E-1,4.136971532E0
2.653843948E0,9.937799722E-2,3.964494944E0,-1.447682977E0,4.221715545E0
2.658766102E0,4.089039862E-1,3.890456915E0,-2.788314104E0,4.803910180E0
2.663688485E0,4.427149892E-1,3.736160994E0,-4.414337158E0,5.800109316E0
2.668610727E0,5.723530054E-1,3.492445946E0,-6.121571064E0,7.070954599E0
2.673533110E0,1.001314998E0,3.037889004E0,-7.555181026E0,8.204398922E0
2.678455343E0,9.585059881E-1,2.460680008E0,-8.710112572E0,9.101633966E0
2.683377816E0,9.594449997E-1,1.917912006E0,-9.856809616E0,1.008739892E1
2.688299972E0,1.339794040E0,1.625216007E0,-1.068482590E1,1.089044901E1
2.693222360E0,1.069267035E0,1.549260974E0,-1.103817272E1,1.119753538E1
2.698144821E0,5.089550018E-1,1.505381942E0,-1.149660492E1,1.160590947E1
2.703067283E0,1.436400041E-2,1.353750944E0,-1.195298004E1,1.202940480E1
2.707989521E0,-3.934929967E-1,1.071184993E0,-1.258690643E1,1.263853186E1
2.712911903E0,-8.580499887E-1,6.931599975E-1,-1.309551620E1,1.314188971E1
2.717834136E0,-1.081555009E0,2.517989874E-1,-1.357944298E1,1.362477286E1
2.722756270E0,-1.204262972E0,-2.161879987E-1,-1.384242439E1,1.389639160E1
2.727678653E0,-1.500444055E0,-6.017500162E-1,-1.383199692E1,1.392614714E1
2.732600885E0,-1.335580945E0,-8.925449848E-1,-1.341739273E1,1.351320986E1
2.737523249E0,-1.256343961E0,-1.087767005E0,-1.294175339E1,1.304801203E1
2.742445482E0,-1.428408027E0,-1.518280029E0,-1.271217537E1,1.288196128E1
2.747367941E0,-1.304643035E0,-1.950469971E0,-1.225259876E1,1.247527968E1
2.752290097E0,-1.373229980E0,-2.495347023E0,-1.157380104E1,1.191911859E1
2.757212557E0,-1.395033956E0,-2.910382986E0,-1.081553936E1,1.128682154E1
2.762134941E0,-1.325781941E0,-3.307512045E0,-1.019944096E1,1.080397749E1
2.767057422E0,-1.189298987E0,-3.618743896E0,-9.839442253E0,1.055103613E1
2.771979655E0,-9.564830065E-1,-3.764689922E0,-9.728701591E0,1.047546584E1
2.776902037E0,-6.625260115E-1,-3.770163059E0,-9.612648964E0,1.034679131E1
2.781824246E0,-4.735040069E-1,-3.701761007E0,-9.510092735E0,1.021611983E1
2.786746400E0,-3.708769977E-1,-3.694611073E0,-9.450601578E0,1.015389437E1
2.791668783E0,-2.947809994E-1,-3.725142002E0,-9.340074539E0,1.005984946E1
2.796591015E0,-2.445060015E-1,-3.805885077E0,-9.333473206E0,1.008257241E1
2.801513398E0,-2.208269984E-1,-3.926457882E0,-9.353882790E0,1.014696799E1
2.806435631E0,-2.329300046E-1,-3.980778933E0,-9.429758072E0,1.023822224E1
2.811358013E0,-2.854709923E-1,-3.918207884E0,-9.618301392E0,1.038968567E1
2.816280251E0,-2.554759979E-1,-3.836700916E0,-9.808952332E0,1.053570538E1
2.821202711E0,-1.308600008E-1,-3.670757055E0,-9.939184189E0,1.059617686E1
2.826125097E0,-9.609500319E-2,-3.446116924E0,-9.963985443E0,1.054352702E1
2.831047567E0,-8.418200165E-2,-3.226183891E0,-9.854991913E0,1.036996696E1
2.835969800E0,-9.276600182E-2,-3.012944937E0,-9.727336884E0,1.018368919E1
2.840892182E0,-8.774600178E-2,-2.773441076E0,-9.648043633E0,1.003914442E1
2.845814381E0,-1.078210026E-1,-2.493058920E0,-9.610067368E0,9.928764422E0
2.850736535E0,-1.679649949E-1,-2.247080088E0,-9.546719551E0,9.809048646E0
2.855658918E0,-2.888399959E-1,-1.995705009E0,-9.484743118E0,9.696732390E0
2.860581150E0,-3.782230020E-1,-1.774621964E0,-9.428926468E0,9.601926374E0
2.865503581E0,-3.890120089E-1,-1.565466046E0,-9.393228531E0,9.530726967E0
2.870425966E0,-3.746840060E-1,-1.306063056E0,-9.329471588E0,9.427896315E0
2.875348116E0,-3.644280136E-1,-9.872059822E-1,-9.266073227E0,9.325636519E0
2.880270653E0,-3.882989883E-1,-7.543359995E-1,-9.224982262E0,9.263913678E0
2.885192809E0,-4.808849990E-1,-5.305359960E-1,-9.223387718E0,9.251140461E0
2.890115196E0,-5.263540149E-1,-3.527779877E-1,-9.189375877E0,9.211195898E0
2.895037658E0,-5.391719937E-1,-1.688050032E-1,-9.158649445E0,9.176059133E0
2.899959891E0,-5.084260106E-1,1.919800043E-2,-9.183465958E0,9.197549270E0
2.904882258E0,-5.538870096E-1,1.650770009E-1,-9.238150597E0,9.256212383E0
2.909804491E0,-6.686260104E-1,2.668739855E-1,-9.361145020E0,9.388786851E0
2.914726626E0,-8.160560131E-1,3.440690041E-1,-9.433670998E0,9.475150626E0
2.919649085E0,-8.748829961E-1,4.028609991E-1,-9.434161186E0,9.483201702E0
2.924571470E0,-8.530279994E-1,4.502179921E-1,-9.371865273E0,9.421369948E0
2.929493703E0,-7.929900289E-1,5.377020240E-1,-9.204251289E0,9.253982843E0
2.934415857E0,-6.697959900E-1,6.930369735E-1,-8.776909828E0,8.829670042E0
2.939338335E0,-6.298109889E-1,8.081349730E-1,-8.093016624E0,8.157613750E0
2.944260797E0,-6.762369871E-1,9.153969884E-1,-7.361059189E0,7.448519349E0
2.949183183E0,-7.632380128E-1,1.010645986E0,-6.596786022E0,6.717255645E0
2.954105356E0,-8.903489709E-1,1.159584045E0,-5.901666164E0,6.080050984E0
2.959027816E0,-1.065176964E0,1.376693964E0,-5.294251919E0,5.573059448E0
2.963950049E0,-1.127091050E0,1.698691964E0,-4.632362843E0,5.061094163E0
2.968872417E0,-1.164700031E0,2.182014942E0,-3.640602112E0,4.401329243E0
2.973794650E0,-1.269418955E0,2.650518894E0,-2.307387114E0,3.736403375E0
2.978716823E0,-1.416514039E0,3.093441963E0,-5.227559805E-1,3.442262195E0
2.983639206E0,-1.638476014E0,3.441407919E0,1.930927992E0,4.272747948E0
2.988561677E0,-1.840788960E0,3.499109983E0,5.005517006E0,6.378673465E0
2.993483833E0,-1.961465955E0,3.414923906E0,8.561840057E0,9.424126439E0
2.998406301E0,-2.039923906E0,3.308223009E0,1.237001038E1,1.296621709E1
3.003328534E0,-2.031761885E0,3.192548990E0,1.609529877E1,1.653417878E1
3.008250688E0,-2.082077026E0,2.881223917E0,1.978421402E1,2.010103531E1
3.013173153E0,-2.583640099E0,2.401000023E0,2.329189682E1,2.355742887E1
3.018095537E0,-3.299958944E0,1.697242975E0,2.634184265E1,2.660193672E1
3.023017999E0,-4.356882095E0,9.664729834E-1,2.809718895E1,2.844940278E1
3.027940218E0,-5.949595928E0,7.488039732E-1,2.898486710E1,2.959866415E1
3.032862600E0,-6.318618774E0,-2.427249998E-1,2.869040680E1,2.937896017E1
3.037784833E0,-6.412782192E0,-1.346958041E0,2.563400841E1,2.645827769E1
3.042707206E0,-6.794608116E0,-2.501974106E0,2.400102234E1,2.506941657E1
3.047629362E0,-6.286321163E0,-3.814239025E0,2.438236618E1,2.546695965E1
3.052551821E0,-5.555976868E0,-4.716228008E0,2.591689491E1,2.692205652E1
3.057474054E0,-4.998175144E0,-4.540664196E0,2.936841011E1,3.013474570E1
3.062396208E0,-4.152575970E0,-4.033603191E0,3.223130035E1,3.274706955E1
3.067318619E0,-3.295655012E0,-3.397016048E0,3.269358826E1,3.303440287E1
3.072241081E0,-2.895621061E0,-2.524184942E0,3.145223808E1,3.168594975E1
3.077163314E0,-2.724740982E0,-1.604275942E0,2.964208031E1,2.981024723E1
3.082085778E0,-2.403964996E0,-9.217230082E-1,2.774646568E1,2.786565949E1
3.087008165E0,-2.107060909E0,-4.142380059E-1,2.610736084E1,2.619552612E1
3.091930396E0,-1.875864983E0,3.330300003E-2,2.474139023E1,2.481242368E1
3.096852773E0,-1.813153028E0,4.936630130E-1,2.354217529E1,2.361705411E1
3.101775006E0,-2.067261934E0,1.056138039E0,2.213803291E1,2.225941376E1
3.106697398E0,-2.324165106E0,1.658401012E0,2.005018616E1,2.025245670E1
3.111619554E0,-2.388492107E0,2.137084961E0,1.727161789E1,1.756646838E1
3.116542008E0,-2.370142937E0,2.579916954E0,1.439372444E1,1.481394115E1
3.121464241E0,-2.206461906E0,3.149516106E0,1.135499954E1,1.198849200E1
3.126386623E0,-2.227631092E0,3.777455091E0,8.400107384E0,9.475933268E0
3.131308813E0,-2.279050112E0,4.378744125E0,5.591823101E0,7.458951342E0
3.136231273E0,-2.223325968E0,4.754636765E0,2.942651987E0,6.017387293E0
3.141153506E0,-1.993551970E0,4.822670937E0,5.792269707E-1,5.250515051E0
3.146075874E0,-1.611914992E0,4.693799973E0,-1.505628943E0,5.186226628E0
3.150998336E0,-1.238237977E0,4.418111801E0,-3.461710930E0,5.747728920E0
3.155920569E0,-9.474369884E-1,4.160312176E0,-5.224392891E0,6.745377330E0
3.160842931E0,-7.099580169E-1,3.807116985E0,-6.719787121E0,7.755882869E0
3.165765164E0,-5.561029911E-1,3.454411030E0,-8.007199287E0,8.738274803E0
3.170687552E0,-5.768010020E-1,3.065907001E0,-9.144175529E0,9.661699191E0
3.175609784E0,-7.908009887E-1,2.740715027E0,-1.025816154E1,1.064738293E1
3.180532177E0,-1.040518045E0,2.332622051E0,-1.131122780E1,1.159601991E1
3.185454410E0,-1.346783042E0,1.833755016E0,-1.218387985E1,1.239449113E1
3.190376782E0,-1.603806019E0,1.321938038E0,-1.298163986E1,1.314696495E1
3.195299015E0,-1.916511059E0,7.120779753E-1,-1.372147942E1,1.387296173E1
3.200221169E0,-2.091195107E0,5.280200019E-2,-1.421434021E1,1.436744071E1
3.205143634E0,-2.109375000E0,-6.263269782E-1,-1.451297569E1,1.467883551E1
3.210066018E0,-2.088820934E0,-1.238204002E0,-1.471808147E1,1.491704543E1
3.214988480E0,-2.053314924E0,-1.820451021E0,-1.480352974E1,1.505571775E1
3.219910732E0,-1.975622058E0,-2.302261114E0,-1.476810074E1,1.507648129E1
3.224833114E0,-1.883268952E0,-2.666621923E0,-1.459749794E1,1.495809214E1
3.229755347E0,-1.829561949E0,-2.990888119E0,-1.426616478E1,1.469068297E1
3.234677802E0,-1.812945008E0,-3.279378891E0,-1.370806694E1,1.421098852E1
3.239600188E0,-1.719668984E0,-3.503079891E0,-1.307699585E1,1.364685497E1
3.244522342E0,-1.595996976E0,-3.639581919E0,-1.253114223E1,1.314622716E1
3.249444573E0,-1.488917947E0,-3.770531893E0,-1.215305138E1,1.281134049E1
3.254367032E0,-1.434013009E0,-3.796786070E0,-1.197009659E1,1.263942998E1
3.259289193E0,-1.414517045E0,-3.863723040E0,-1.183141708E1,1.252643782E1
3.264211653E0,-1.432749987E0,-3.898814917E0,-1.169576454E1,1.241146399E1
3.269134042E0,-1.389258027E0,-3.921823025E0,-1.154497147E1,1.227180100E1
3.274056198E0,-1.342672944E0,-3.926707029E0,-1.137124252E1,1.210483190E1
3.278978658E0,-1.309890032E0,-3.920325994E0,-1.121273327E1,1.195032030E1
3.283900895E0,-1.306162953E0,-3.845762014E0,-1.113092136E1,1.184877030E1
3.288823277E0,-1.299206972E0,-3.781512022E0,-1.096266174E1,1.166909270E1
3.293745515E0,-1.348129034E0,-3.690828085E0,-1.082742310E1,1.151836598E1
3.298667898E0,-1.393947959E0,-3.604775906E0,-1.079413128E1,1.146519822E1
3.303590121E0,-1.493558049E0,-3.439778090E0,-1.083625984E1,1.146679189E1
3.308512504E0,-1.578649044E0,-3.268906116E0,-1.089848995E1,1.148716515E1
3.313434689E0,-1.564082026E0,-3.082063913E0,-1.087501240E1,1.141101946E1
3.318356918E0,-1.522778034E0,-2.923201084E0,-1.072984886E1,1.122468771E1
3.323279379E0,-1.430197954E0,-2.710062981E0,-1.049385071E1,1.093209999E1
3.328201773E0,-1.420207977E0,-2.455056906E0,-1.027749538E1,1.066166997E1
3.333124006E0,-1.390709043E0,-2.062899113E0,-1.014099216E1,1.044171186E1
3.338046465E0,-1.375138998E0,-1.664827943E0,-1.000835705E1,1.023864591E1
3.342968866E0,-1.246824026E0,-1.150199056E0,-9.898438454E0,1.004273926E1
3.347891097E0,-1.243981004E0,-7.394220233E-1,-9.650501251E0,9.758401922E0
3.352813479E0,-1.281738997E0,-3.121429980E-1,-9.399840355E0,9.491959060E0
3.357735698E0,-1.258339047E0,6.078400090E-2,-9.265073776E0,9.350331755E0
3.362657852E0,-1.180336952E0,3.130440116E-1,-9.145282745E0,9.226450475E0
3.367580297E0,-1.128813982E0,6.234179735E-1,-9.079324722E0,9.170442104E0
3.372502682E0,-1.175886989E0,8.703550100E-1,-9.044420242E0,9.161973891E0
3.377424920E0,-1.197247982E0,1.115952969E0,-8.982005119E0,9.129905242E0
3.382347302E0,-1.315206051E0,1.287403941E0,-8.882514000E0,9.071175824E0
3.387269535E0,-1.470738053E0,1.435950994E0,-8.820325851E0,9.056664607E0
3.392191941E0,-1.633445978E0,1.539634943E0,-8.820546150E0,9.101684235E0
3.397114174E0,-1.752975941E0,1.546026945E0,-8.782709122E0,9.088404892E0
3.402036566E0,-1.797706962E0,1.511783004E0,-8.672131538E0,8.984603697E0
3.406959028E0,-1.793957949E0,1.517637014E0,-8.530126572E0,8.847856608E0
3.411881261E0,-1.883280993E0,1.581248999E0,-8.426611900E0,8.778091126E0
3.416803610E0,-2.038554907E0,1.688611984E0,-8.337929726E0,8.748039132E0
3.421725843E0,-2.217109919E0,1.804725051E0,-8.231968880E0,8.714236658E0
3.426648249E0,-2.368616104E0,1.939759016E0,-7.951064110E0,8.520119000E0
3.431570405E0,-2.410237074E0,2.020662069E0,-7.445203781E0,8.082287875E0
3.436492864E0,-2.340609074E0,2.027160883E0,-6.829511166E0,7.498670205E0
3.441415097E0,-2.266684055E0,2.081743002E0,-6.144382954E0,6.872041357E0
3.446337470E0,-2.124274015E0,2.217540026E0,-5.487246990E0,6.288076287E0
3.451259703E0,-2.138035059E0,2.424617052E0,-4.926353931E0,5.892276709E0
3.456182086E0,-2.208322048E0,2.701122046E0,-4.371399879E0,5.593020962E0
3.461104328E0,-2.169915915E0,2.990678072E0,-3.511060953E0,5.097081461E0
3.466026710E0,-2.123883963E0,3.105557919E0,-2.103926897E0,4.310670651E0
3.470949172E0,-2.202229023E0,3.266412020E0,-1.387419999E-1,3.941891614E0
3.475871405E0,-2.384717941E0,3.497405052E0,2.376957893E0,4.854755461E0
3.480793787E0,-2.457995892E0,3.727454901E0,5.151095867E0,6.816850627E0
3.485716020E0,-2.530251980E0,3.923573971E0,7.752978802E0,9.050154037E0
3.490638418E0,-2.761029005E0,4.014578819E0,1.019289207E1,1.129757377E1
3.495560650E0,-3.102994919E0,3.942720890E0,1.269461155E1,1.365015706E1
3.500483023E0,-3.529181004E0,3.811727047E0,1.526668739E1,1.612625578E1
3.505405256E0,-3.968491077E0,3.622172117E0,1.816938782E1,1.894718201E1
3.510327638E0,-4.287203789E0,3.153081894E0,2.171075821E1,2.235350227E1
3.515249861E0,-4.199536800E0,2.292045116E0,2.563342285E1,2.607607998E1
3.520172321E0,-3.758605003E0,1.360553980E0,2.868585014E1,2.896301464E1
3.525094477E0,-3.412137985E0,4.949609935E-1,2.932208443E1,2.952409706E1
3.530016918E0,-3.548729897E0,-3.462969959E-1,2.803083038E1,2.825669580E1
3.534939303E0,-3.490658998E0,-1.330005050E0,2.719081879E1,2.744620629E1
3.539861536E0,-3.078980923E0,-2.105989933E0,2.788041687E1,2.812886350E1
3.544783903E0,-2.327132940E0,-2.569654942E0,3.011126709E1,3.031018113E1
3.549706136E0,-1.495900989E0,-2.953021049E0,3.286335754E1,3.302965822E1
3.554628534E0,-8.237239718E-1,-2.880765915E0,3.465357971E1,3.478286820E1
3.559550995E0,-5.590860248E-1,-2.187803984E0,3.534868622E1,3.542073800E1
3.564473169E0,-7.607190013E-1,-1.003021955E0,3.525533676E1,3.527780487E1
3.569395629E0,-1.216776967E0,1.512210071E-1,3.448031998E1,3.450211413E1
3.574317861E0,-1.642820001E0,8.756979704E-1,3.327010345E1,3.332214712E1
3.579240250E0,-1.919806957E0,1.182438016E0,3.159138680E1,3.167174668E1
3.584162483E0,-2.277750969E0,1.508368015E0,2.930606842E1,2.943312708E1
3.589084637E0,-2.614490032E0,2.086991072E0,2.658352280E1,2.679318522E1
3.594007009E0,-2.721121073E0,2.793143034E0,2.354861450E1,2.386929812E1
3.598929471E0,-2.599658966E0,3.572945118E0,2.028687286E1,2.076249923E1
3.603851704E0,-2.522192955E0,4.384274006E0,1.723754692E1,1.796430738E1
3.608774062E0,-2.376872063E0,5.358032227E0,1.466231346E1,1.579054990E1
3.613696295E0,-2.322963953E0,6.248239994E0,1.246780968E1,1.413799642E1
3.618618673E0,-2.283883095E0,7.005475998E0,1.022751141E1,1.260534829E1
3.623540905E0,-2.223047018E0,7.530527115E0,7.923139095E0,1.115468107E1
3.628463288E0,-2.356364965E0,7.881900787E0,5.637938023E0,9.973121929E0
3.633385512E0,-2.457545996E0,7.865746975E0,3.370009899E0,8.903172160E0
3.638307894E0,-2.474088907E0,7.603779793E0,1.471829057E0,8.130489766E0
3.643230127E0,-2.417558908E0,7.140747070E0,-3.172470033E-1,7.545561971E0
3.648152524E0,-2.168502092E0,6.558496952E0,-1.954861045E0,7.178980798E0
3.653074757E0,-1.901520967E0,5.791133881E0,-3.366343975E0,6.963137610E0
3.657997216E0,-1.757910967E0,4.998036861E0,-4.966617107E0,7.262087092E0
3.662919608E0,-1.789039969E0,4.359303951E0,-6.791988850E0,8.266517252E0
3.667841839E0,-2.050312996E0,3.939858913E0,-8.775253296E0,9.835209304E0
3.672764298E0,-2.897020102E0,3.007138014E0,-1.004536819E1,1.087865004E1
3.677686415E0,-3.300029993E0,2.144325018E0,-1.117531681E1,1.184803923E1
3.682608798E0,-3.558649063E0,1.417616010E0,-1.203829956E1,1.263306276E1
3.687531030E0,-3.979842901E0,7.946500182E-1,-1.272523499E1,1.335672952E1
3.692453408E0,-4.291441917E0,1.687870026E-1,-1.347061539E1,1.413868600E1
3.697375641E0,-4.396390915E0,-4.780910015E-1,-1.411856270E1,1.479495308E1
3.702298023E0,-4.406354904E0,-1.151777029E0,-1.459689140E1,1.529090555E1
3.707220228E0,-4.394608021E0,-1.872064948E0,-1.477524185E1,1.552819946E1
3.712142611E0,-4.452888966E0,-2.560015917E0,-1.459088516E1,1.546854329E1
3.717065091E0,-4.391441822E0,-3.173620939E0,-1.434278965E1,1.533206594E1
3.721987324E0,-4.333580017E0,-3.710010052E0,-1.399566746E1,1.511366262E1
3.726909707E0,-4.279604912E0,-4.032189846E0,-1.357646942E1,1.479506996E1
3.731832168E0,-4.139719009E0,-4.064948082E0,-1.303038979E1,1.426366483E1
3.736754401E0,-4.008642197E0,-4.066752911E0,-1.245322037E1,1.370001420E1
3.741676555E0,-3.922552109E0,-4.013043880E0,-1.197314930E1,1.322298152E1
3.746598928E0,-3.832449913E0,-3.968854904E0,-1.165226460E1,1.289243002E1
3.751521160E0,-3.718887091E0,-3.834811926E0,-1.140009594E1,1.258960250E1
3.756443553E0,-3.655200005E0,-3.733664036E0,-1.115985012E1,1.232245872E1
3.761365786E0,-3.621228933E0,-3.529056072E0,-1.089222622E1,1.200866886E1
3.766288168E0,-3.565263987E0,-3.328008890E0,-1.063724613E1,1.170204067E1
3.771210396E0,-3.449044943E0,-3.139353037E0,-1.042481136E1,1.142051402E1
3.776132856E0,-3.376169920E0,-2.936132908E0,-1.027847672E1,1.121010630E1
3.781055242E0,-3.321263075E0,-2.698107958E0,-1.014273643E1,1.100843664E1
3.785977454E0,-3.128808022E0,-2.427551985E0,-1.005637932E1,1.080801616E1
3.790899914E0,-2.961235046E0,-2.156198978E0,-9.883193016E0,1.054019028E1
3.795822300E0,-2.935657024E0,-1.846027017E0,-9.736873627E0,1.033598597E1
3.800744511E0,-2.921148062E0,-1.502560019E0,-9.634021759E0,1.017866238E1
3.805666665E0,-2.877108097E0,-1.252758980E0,-9.476544380E0,9.982587313E0
3.810589043E0,-2.766522884E0,-1.042510986E0,-9.266534805E0,9.726723257E0
3.815511275E0,-2.730849028E0,-8.565629721E-1,-9.105456352E0,9.544661959E0
3.820433648E0,-2.811963081E0,-5.949249864E-1,-9.058255196E0,9.503318331E0
3.825355881E0,-2.916937113E0,-2.598010004E-1,-9.019391060E0,9.482902181E0
3.830278263E0,-2.967917919E0,7.611200213E-2,-9.025898933E0,9.501640983E0
3.835200515E0,-2.988574982E0,4.138459861E-1,-8.988632202E0,9.481474452E0
3.840122898E0,-3.026808023E0,7.011309862E-1,-8.977000237E0,9.499457075E0
3.845045359E0,-3.108118057E0,1.014348984E0,-8.938771248E0,9.517926935E0
3.849967831E0,-3.192176104E0,1.332085013E0,-8.859993935E0,9.511252877E0
3.854890064E0,-3.317719936E0,1.627017021E0,-8.742870331E0,9.491692767E0
3.859812446E0,-3.339411974E0,1.901299953E0,-8.736400604E0,9.544176725E0
3.864734674E0,-3.408970118E0,2.104094982E0,-8.820692062E0,9.687770714E0
3.869657057E0,-3.579185009E0,2.320462942E0,-8.838343620E0,9.813838777E0
3.874579304E0,-3.653728962E0,2.554451942E0,-8.780991554E0,9.847881637E0
3.879501457E0,-3.683053017E0,2.738023996E0,-8.817150116E0,9.940009612E0
3.884423874E0,-3.733735085E0,2.892154932E0,-8.877883911E0,1.005595150E1
3.889346336E0,-3.785978079E0,2.993325949E0,-8.931838989E0,1.015240750E1
3.894268582E0,-3.815951109E0,3.070652008E0,-8.963375092E0,1.021432718E1
3.899190965E0,-3.825722933E0,3.118082047E0,-9.067697525E0,1.032384279E1
3.904113198E0,-3.878026009E0,3.172935009E0,-9.162161827E0,1.044278754E1
3.909035595E0,-3.984385967E0,3.213589907E0,-9.181632996E0,1.051212995E1
3.913957828E0,-4.017018795E0,3.159792900E0,-9.110092163E0,1.044578912E1
3.918880288E0,-3.958036900E0,3.089888096E0,-8.873222351E0,1.019546661E1
3.923802674E0,-3.969022036E0,3.005841017E0,-8.420696259E0,9.782450696E0
3.928724905E0,-4.000139236E0,2.921775103E0,-7.760361195E0,9.206578601E0
3.933647288E0,-3.856539011E0,2.813781023E0,-7.005074024E0,8.477105572E0
3.938569444E0,-3.649384022E0,2.772181034E0,-6.335226059E0,7.819084386E0
3.943491673E0,-3.518755913E0,2.840993881E0,-5.766983032E0,7.328777709E0
3.948414066E0,-3.556546926E0,2.999412060E0,-5.281414986E0,7.038383550E0
3.953336528E0,-3.566354990E0,3.207779884E0,-4.739921093E0,6.743559273E0
3.958258770E0,-3.577625036E0,3.381968021E0,-3.881997108E0,6.269530297E0
3.963181153E0,-3.677547932E0,3.498239040E0,-2.525908947E0,5.669413654E0
3.968103386E0,-3.848054886E0,3.456784964E0,-4.742679894E-1,5.194402643E0
3.973025850E0,-3.905185938E0,3.285279989E0,2.250559092E0,5.577504643E0
3.977948237E0,-3.634392023E0,3.070238113E0,5.409712791E0,7.204176562E0
3.982870468E0,-3.100085974E0,2.827035904E0,8.967447281E0,9.900392708E0
3.987792869E0,-2.890851021E0,2.497423887E0,1.271489334E1,1.327639478E1
3.992715102E0,-3.107208967E0,2.063210964E0,1.643266678E1,1.685064166E1
3.997637256E0,-3.448645115E0,1.532767057E0,1.968087959E1,2.003944983E1
4.002559653E0,-3.712667942E0,8.786749840E-1,2.230401802E1,2.262797368E1
4.007482114E0,-3.990084887E0,3.563600034E-2,2.440886307E1,2.473286566E1
4.012404333E0,-4.400946140E0,-9.377719760E-1,2.583386230E1,2.622281802E1
4.017326716E0,-4.837207794E0,-1.695927978E0,2.634131241E1,2.683541485E1
4.022248948E0,-5.432557106E0,-1.956413031E0,2.573606491E1,2.637584626E1
4.027171427E0,-5.826838970E0,-1.971104026E0,2.466324425E1,2.541875135E1
4.032093814E0,-5.679582119E0,-2.094059944E0,2.433987808E1,2.508131586E1
4.037015967E0,-4.978102207E0,-2.256345034E0,2.585708618E1,2.642842221E1
4.041938427E0,-3.995984077E0,-2.815347910E0,2.886842918E1,2.927934897E1
4.046860660E0,-3.132062912E0,-3.428245068E0,3.160466957E1,3.194397942E1
4.051783042E0,-2.509944916E0,-3.582565069E0,3.323636246E1,3.352298294E1
4.056705275E0,-2.162544966E0,-3.237793922E0,3.379172516E1,3.401529949E1
4.061627429E0,-1.992602944E0,-2.593168020E0,3.356694794E1,3.372587998E1
4.066549793E0,-2.026915073E0,-1.966138005E0,3.273086548E1,3.285245255E1
4.071472254E0,-2.231854916E0,-1.586051941E0,3.151265907E1,3.163138345E1
4.076394372E0,-2.627665043E0,-1.363067985E0,2.989755249E1,3.004373850E1
4.081316832E0,-3.123779058E0,-1.218824983E0,2.775868797E1,2.796047725E1
4.086239064E0,-3.490057945E0,-9.738159776E-1,2.522820282E1,2.548707593E1
4.091161519E0,-3.645545959E0,-7.153599858E-1,2.265858650E1,2.296112557E1
4.096083675E0,-3.601814032E0,-5.403800011E-1,2.032535934E1,2.064909943E1
4.101006057E0,-3.586987972E0,-4.065600038E-1,1.830482483E1,1.865739494E1
4.105928281E0,-3.582072020E0,-1.736540049E-1,1.646469879E1,1.685074782E1
4.110850741E0,-3.601460934E0,4.106000066E-1,1.444982719E1,1.489753735E1
4.115773127E0,-3.736965895E0,1.315629959E0,1.200097942E1,1.263801026E1
4.120695353E0,-3.797029972E0,2.350439072E0,9.264032364E0,1.028417698E1
4.125617507E0,-3.739629030E0,3.434395075E0,6.567187786E0,8.301075246E0
4.130539933E0,-3.611066103E0,4.335803032E0,4.171984196E0,7.017438169E0
4.135462088E0,-3.588620901E0,5.032618046E0,2.193264961E0,6.558647388E0
4.140384442E0,-3.351614952E0,5.522759914E0,4.045760036E-1,6.472857298E0
4.145306904E0,-3.163918018E0,5.789779186E0,-1.406708956E0,6.746165603E0
4.150229365E0,-3.037614107E0,5.918654919E0,-3.266706944E0,7.411406733E0
4.155151589E0,-2.632920980E0,5.925110817E0,-5.060852051E0,8.225049213E0
4.160073972E0,-2.123192072E0,5.931058884E0,-6.729628086E0,9.218096237E0
4.164996127E0,-1.457833052E0,5.846100807E0,-8.122097015E0,1.011289433E1
4.169918591E0,-7.431380153E-1,5.679228783E0,-9.210369110E0,1.084604964E1
4.174840824E0,-3.106670082E-1,5.499228954E0,-1.010787678E1,1.151117744E1
4.179763206E0,-3.658429980E-1,5.371965885E0,-1.104770565E1,1.228998205E1
4.184685439E0,-1.007467031E0,5.269168854E0,-1.204723263E1,1.318768153E1
4.189607822E0,-1.803778052E0,5.121202946E0,-1.307091999E1,1.415377279E1
4.194529969E0,-2.396855116E0,4.909369946E0,-1.387627220E1,1.491300633E1
4.199452428E0,-2.768584967E0,4.479660034E0,-1.417351818E1,1.512021939E1
4.204374894E0,-3.035979986E0,3.871277094E0,-1.401233101E1,1.485090506E1
4.209297050E0,-3.197132111E0,3.166543007E0,-1.361665154E1,1.434091515E1
4.214219300E0,-3.325972080E0,2.433758974E0,-1.328243637E1,1.390713446E1
4.219141683E0,-3.623991966E0,1.663491011E0,-1.302962399E1,1.362613743E1
4.224063916E0,-3.869752884E0,8.415179849E-1,-1.282910442E1,1.342643140E1
4.228986312E0,-3.921600103E0,-1.285899989E-2,-1.271521282E1,1.330622974E1
4.233908774E0,-3.860889912E0,-7.328040004E-1,-1.243966675E1,1.304564224E1
4.238831007E0,-3.851793051E0,-1.227710009E0,-1.208421326E1,1.274251904E1
4.243753389E0,-3.903501034E0,-1.508002996E0,-1.172229671E1,1.244683227E1
4.248675622E0,-3.923001051E0,-1.613669991E0,-1.139161873E1,1.215577416E1
4.253597776E0,-3.981794119E0,-1.702056050E0,-1.098803520E1,1.181052907E1
4.258520217E0,-4.078188896E0,-1.892058969E0,-1.053558159E1,1.145469298E1
4.263442372E0,-4.123075962E0,-2.009037971E0,-1.004580975E1,1.104329129E1
4.268364841E0,-4.099069118E0,-2.003736019E0,-9.599590302E0,1.062870922E1
4.273287226E0,-4.106128216E0,-1.876554012E0,-9.190280914E0,1.023928743E1
4.278209458E0,-4.092811108E0,-1.655897021E0,-8.884659767E0,9.921203399E0
4.283131870E0,-3.984455109E0,-1.358240008E0,-8.579346657E0,9.556457895E0
4.288054103E0,-3.805358887E0,-1.049617052E0,-8.364508629E0,9.249186819E0
4.292976562E0,-3.540342093E0,-8.099079728E-1,-8.224449158E0,8.990636073E0
4.297898949E0,-3.212882996E0,-5.176900029E-1,-8.013246536E0,8.648857736E0
4.302821180E0,-2.973753929E0,-2.181610018E-1,-7.763901234E0,8.316788384E0
4.307743562E0,-2.896373987E0,7.609099895E-2,-7.618850231E0,8.151174821E0
4.312666014E0,-2.905721903E0,3.297440112E-1,-7.611349106E0,8.153808074E0
4.317587939E0,-2.820993900E0,5.888710022E-1,-7.613689899E0,8.140826096E0
4.322510298E0,-2.719568968E0,8.379859924E-1,-7.602138996E0,8.117314409E0
4.327432759E0,-2.670101881E0,1.096534967E0,-7.605871201E0,8.135177300E0
4.332354930E0,-2.721168995E0,1.382444024E0,-7.646934986E0,8.233561007E0
4.337277390E0,-2.805975914E0,1.606381059E0,-7.757584095E0,8.404407887E0
4.342199622E0,-2.906275988E0,1.911259055E0,-7.936763763E0,8.665539240E0
4.347122034E0,-2.968854904E0,2.214499950E0,-8.136743546E0,8.940061801E0
4.352044267E0,-3.153239965E0,2.531016111E0,-8.332402229E0,9.261635479E0
4.356966649E0,-3.450582027E0,2.889039040E0,-8.533386230E0,9.647369769E0
4.361889125E0,-3.601780891E0,3.111656904E0,-8.748568535E0,9.959552484E0
4.366811358E0,-3.666512966E0,3.218664885E0,-8.893165588E0,1.014354549E1
4.371733817E0,-3.678436041E0,3.303042889E0,-8.999405861E0,1.026792530E1
4.376655949E0,-3.667534113E0,3.399521112E0,-9.101616859E0,1.038494004E1
4.381578332E0,-3.621326923E0,3.441215038E0,-9.225128174E0,1.049089889E1
4.386500473E0,-3.583775043E0,3.429750919E0,-9.255761147E0,1.050122609E1
4.391422701E0,-3.519670010E0,3.420737982E0,-9.226479530E0,1.045071528E1
4.396345163E0,-3.446501970E0,3.299468040E0,-9.193378448E0,1.035775422E1
4.401267553E0,-3.393898964E0,3.139322042E0,-9.189224243E0,1.028667756E1
4.406189785E0,-3.363558054E0,3.050522089E0,-9.218330383E0,1.027603147E1
4.411112183E0,-3.335589886E0,2.970985889E0,-9.232900620E0,1.025667446E1
4.416034416E0,-3.259274960E0,2.839215040E0,-9.138918877E0,1.010959216E1
4.420956798E0,-3.138437986E0,2.677413940E0,-8.892985344E0,9.803240624E0
4.425879269E0,-3.020695925E0,2.527637959E0,-8.584605217E0,9.445051839E0
4.430801502E0,-2.882534981E0,2.353179932E0,-8.226204872E0,9.028671569E0
4.435723884E0,-2.783988953E0,2.177467108E0,-7.716273785E0,8.487216187E0
4.440646332E0,-2.765460968E0,2.023408890E0,-7.053867817E0,7.842130392E0
4.445568488E0,-2.772511959E0,1.910851002E0,-6.334870815E0,7.174173288E0
4.450490709E0,-2.711951017E0,1.792745948E0,-5.600409031E0,6.475584736E0
4.455413091E0,-2.667299032E0,1.744264960E0,-4.953330994E0,5.890028210E0
4.460335324E0,-2.704828978E0,1.761029959E0,-4.430170059E0,5.481216386E0
4.465257707E0,-2.804176092E0,1.752827048E0,-3.715312004E0,4.973866655E0
4.470180168E0,-3.023216009E0,1.653660059E0,-2.629800081E0,4.334775092E0
4.475102338E0,-3.144385099E0,1.488577962E0,-1.059239984E0,3.636620869E0
4.480024798E0,-2.950041056E0,1.171249032E0,1.159371972E0,3.379158164E0
4.484947030E0,-2.483717918E0,7.359380126E-1,4.137045860E0,4.881148216E0
4.489869408E0,-2.235430002E0,2.687659860E-1,7.646032810E0,7.970646159E0
4.494791641E0,-2.295066118E0,-1.643300056E-1,1.136575699E1,1.159632549E1
4.499714023E0,-2.533004045E0,-6.426730156E-1,1.496111298E1,1.518762785E1
4.504636242E0,-2.740058899E0,-1.194128036E0,1.829399109E1,1.853655778E1
4.509558702E0,-2.762572050E0,-1.991629004E0,2.106966782E1,2.134313220E1
4.514480867E0,-2.733104944E0,-2.928785086E0,2.301659393E1,2.336260347E1
4.519403249E0,-2.725972891E0,-4.132571220E0,2.455839920E1,2.505242592E1
4.524325726E0,-2.429233074E0,-5.235422134E0,2.566799545E1,2.630887320E1
4.529247959E0,-2.379411936E0,-5.436285973E0,2.579068375E1,2.646458340E1
4.534170360E0,-2.995173931E0,-4.926175117E0,2.522697449E1,2.587737448E1
4.539092516E0,-3.585570097E0,-4.526391029E0,2.505990982E1,2.571660181E1
4.544014746E0,-3.260660887E0,-4.949968815E0,2.655549622E1,2.720897793E1
4.548937129E0,-2.152461052E0,-5.947916031E0,2.900579453E1,2.968748743E1
4.553859591E0,-1.157791972E0,-6.605370998E0,3.145626831E1,3.216315010E1
4.558781824E0,-6.889140010E-1,-6.434925079E0,3.304875183E1,3.367644371E1
4.563704201E0,-6.947249770E-1,-5.559194088E0,3.340371323E1,3.387027220E1
4.568626663E0,-1.226264954E0,-4.515703201E0,3.255750656E1,3.289204364E1
4.573548819E0,-2.030028105E0,-3.759000063E0,3.090038681E1,3.119431039E1
4.578471050E0,-2.768259048E0,-3.578702927E0,2.896484184E1,2.931607811E1
4.583393456E0,-3.361007929E0,-3.773948908E0,2.706287766E1,2.753068128E1
4.588315689E0,-3.661047935E0,-4.066830158E0,2.530009079E1,2.588507241E1
4.593238072E0,-3.789285898E0,-4.202014923E0,2.365757751E1,2.432481430E1
4.598160304E0,-3.834846020E0,-4.073184967E0,2.208753204E1,2.278499400E1
4.603082687E0,-3.829792976E0,-3.716331005E0,2.053065109E1,2.121287497E1
4.608004920E0,-3.724606037E0,-3.045826912E0,1.907974625E1,1.967705437E1
4.612927302E0,-3.527513027E0,-2.124927998E0,1.772000694E1,1.819223222E1
4.617849764E0,-3.361021996E0,-1.054700971E0,1.623773575E1,1.661544237E1
4.622772206E0,-3.200779915E0,1.358599961E-2,1.430477905E1,1.465850881E1
4.627694439E0,-3.139355898E0,1.110417008E0,1.178744698E1,1.224877494E1
4.632616822E0,-3.181090117E0,2.176812887E0,8.848029137E0,9.651189993E0
4.637538968E0,-3.129560947E0,3.104635000E0,5.631542206E0,7.151725514E0
4.642461199E0,-2.957772017E0,3.780158043E0,2.550870895E0,5.435526879E0
4.647383581E0,-2.618182898E0,4.194021225E0,-4.235619903E-1,4.962267675E0
4.652305814E0,-1.640179038E0,4.323540211E0,-2.527723074E0,5.269968802E0
4.657228245E0,-1.789170980E0,4.376263142E0,-4.429409981E0,6.478617496E0
4.662150477E0,-1.703232050E0,4.404181004E0,-6.041778088E0,7.668173980E0
4.667072937E0,-1.275534987E0,4.408660889E0,-6.042727947E0,7.588006417E0
4.671995079E0,-8.494120240E-1,4.313186169E0,-6.419755936E0,7.780638919E0
4.676917538E0,-2.131229937E-1,3.942982912E0,-8.321089745E0,9.210486968E0
4.681840000E0,-4.740099981E-2,3.501213074E0,-1.002844048E1,1.062216354E1
4.686762376E0,-2.322739959E-1,3.146481991E0,-1.108647060E1,1.152667040E1
4.691684607E0,-8.786249757E-1,2.668143034E0,-1.185182953E1,1.218018195E1
4.696606990E0,-1.204282999E0,2.160573006E0,-1.270549393E1,1.294403141E1
4.701529117E0,-1.377238035E0,1.579174995E0,-1.337257195E1,1.353574005E1
4.706451347E0,-1.621878028E0,1.074939966E0,-1.388292885E1,1.401861968E1
4.711373706E0,-1.965911984E0,6.054990292E-1,-1.421873665E1,1.436676411E1
4.716295939E0,-2.096678019E0,1.611180007E-1,-1.435375786E1,1.450697702E1
4.721218322E0,-1.990203023E0,-2.573159933E-1,-1.430684853E1,1.444690397E1
4.726140812E0,-1.959311962E0,-6.697909832E-1,-1.409565544E1,1.424693039E1
4.731063045E0,-2.164185047E0,-1.055709004E0,-1.388450432E1,1.409175924E1
4.735985428E0,-2.506167889E0,-1.397122979E0,-1.355921173E1,1.385947520E1
4.740907646E0,-2.897502899E0,-1.652856946E0,-1.307434654E1,1.349318334E1
4.745830106E0,-3.316478014E0,-1.827250004E0,-1.256672287E1,1.312480067E1
4.750752492E0,-3.650299072E0,-1.932083964E0,-1.218175697E1,1.286284707E1
4.755674704E0,-3.718244076E0,-2.040199041E0,-1.193585300E1,1.266697825E1
4.760597087E0,-3.617748022E0,-2.106935978E0,-1.173313332E1,1.245767624E1
4.765519238E0,-3.436568022E0,-2.234816074E0,-1.148881531E1,1.219824905E1
4.770441467E0,-3.351608992E0,-2.495922089E0,-1.116180420E1,1.191842200E1
4.775363846E0,-3.193862915E0,-2.827884912E0,-1.077605629E1,1.158969726E1
4.780286308E0,-3.028908014E0,-3.103183031E0,-1.036025906E1,1.123116185E1
4.785208545E0,-3.094232082E0,-3.229480982E0,-1.006236935E1,1.101158919E1
4.790130928E0,-3.394985914E0,-3.245713949E0,-9.765864372E0,1.083663672E1
4.795053390E0,-3.610486984E0,-3.191886902E0,-9.388521194E0,1.055310800E1
4.799975622E0,-3.628884077E0,-3.157990932E0,-9.039378166E0,1.023972968E1
4.804897776E0,-3.537280083E0,-3.170425892E0,-8.768785477E0,9.972740318E0
4.809820236E0,-3.477969885E0,-3.187016964E0,-8.650611877E0,9.853245024E0
4.814742590E0,-3.441885948E0,-3.090526104E0,-8.646503448E0,9.806118109E0
4.819664823E0,-3.412619114E0,-2.967272997E0,-8.655893326E0,9.766021069E0
4.824587206E0,-3.281050920E0,-2.817306042E0,-8.620282173E0,9.644261155E0
4.829509362E0,-3.113234043E0,-2.643460989E0,-8.546522141E0,9.472230619E0
4.834431591E0,-2.945960999E0,-2.433579922E0,-8.489591599E0,9.309895969E0
4.839354042E0,-2.799021006E0,-2.153915882E0,-8.468612671E0,9.175580243E0
4.844276427E0,-2.750473976E0,-1.819566965E0,-8.405857086E0,9.029638109E0
4.849198654E0,-2.649542093E0,-1.454208970E0,-8.327037811E0,8.858575266E0
4.854121037E0,-2.569734097E0,-1.097910047E0,-8.344335556E0,8.799822479E0
4.859043270E0,-2.583537102E0,-7.773979902E-1,-8.351546288E0,8.776521918E0
4.863965639E0,-2.568411112E0,-4.651809931E-1,-8.345916748E0,8.744567191E0
4.868887871E0,-2.546497107E0,-1.923860013E-1,-8.332350731E0,8.714914147E0
4.873810331E0,-2.507102966E0,8.051600307E-2,-8.369871140E0,8.737665077E0
4.878732726E0,-2.461708069E0,3.422400057E-1,-8.478992462E0,8.835748299E0
4.883654957E0,-2.480984926E0,5.477229953E-1,-8.643424988E0,9.009111066E0
4.888577340E0,-2.587320089E0,6.238510013E-1,-8.761366844E0,9.156689593E0
4.893499583E0,-2.712511063E0,6.650459766E-1,-8.911278725E0,9.338677151E0
4.898421965E0,-2.792645931E0,6.802600026E-1,-9.059101105E0,9.504153713E0
4.903344227E0,-2.847069979E0,6.928600073E-1,-9.163645744E0,9.620720648E0
4.908266610E0,-2.886297941E0,6.754559875E-1,-9.184373856E0,9.650890100E0
4.913188866E0,-2.837373972E0,6.460199952E-1,-9.042846680E0,9.499532039E0
4.918111249E0,-2.811811924E0,5.813789964E-1,-8.825357437E0,9.280690800E0
4.923033482E0,-2.821270943E0,5.501139760E-1,-8.601140022E0,9.068726746E0
4.927955831E0,-2.903199911E0,5.682929754E-1,-8.424744606E0,8.929045207E0
4.932878063E0,-2.965385914E0,5.510990024E-1,-8.313207626E0,8.843452084E0
4.937800523E0,-2.988785982E0,5.353869796E-1,-8.037843704E0,8.592229762E0
4.942722919E0,-2.954971075E0,5.369629860E-1,-7.509544849E0,8.087858007E0
4.947645150E0,-2.842295885E0,4.508230090E-1,-6.692042828E0,7.284595012E0
4.952567533E0,-2.603854895E0,3.313359916E-1,-5.737352848E0,6.309283759E0
4.957489694E0,-2.363240957E0,1.541749984E-1,-4.805961132E0,5.357792470E0
4.962412153E0,-2.189775944E0,6.618600339E-2,-3.923847914E0,4.494005087E0
4.967334366E0,-2.144159079E0,1.510249972E-1,-2.949934006E0,3.649977718E0
4.972256749E0,-2.178653002E0,2.945939898E-1,-1.796120048E0,2.838901503E0
4.977178986E0,-2.133776903E0,3.760330081E-1,-4.526380002E-1,2.213433047E0
4.982101369E0,-2.080167055E0,3.388549984E-1,1.003255010E0,2.334189003E0
4.987023602E0,-1.981799960E0,2.035160065E-1,2.659346104E0,3.322810790E0
4.991945999E0,-2.085469961E0,3.199899942E-2,4.750532150E0,5.188233284E0
4.996868231E0,-2.447040081E0,-2.376880050E-1,7.382552147E0,7.781168097E0
5.001790691E0,-2.953289986E0,-7.244690061E-1,1.047701931E1,1.090938636E1
5.006713082E0,-3.599334955E0,-1.344323039E0,1.355119419E1,1.408535696E1
5.011635313E0,-4.292239189E0,-2.064266920E0,1.644103241E1,1.711701089E1
5.016557696E0,-4.735765934E0,-2.878220081E0,1.906157494E1,1.985082539E1
5.021479940E0,-4.612171173E0,-3.852061033E0,2.178751183E1,2.260102141E1
5.026402322E0,-4.254942894E0,-4.540429115E0,2.433924294E1,2.512207759E1
5.031324550E0,-4.245142937E0,-4.668989182E0,2.595551109E1,2.671159401E1
5.036246933E0,-4.675165176E0,-4.159573078E0,2.627258492E1,2.700755331E1
5.041169189E0,-5.356173038E0,-3.219280958E0,2.523774529E1,2.599992590E1
5.046091572E0,-5.769258976E0,-2.439062119E0,2.366503525E1,2.447993600E1
5.051013805E0,-5.515390873E0,-2.459132910E0,2.319187164E1,2.396517852E1
5.055936188E0,-4.665835857E0,-3.198331118E0,2.420040894E1,2.485274912E1
5.060858420E0,-3.768954992E0,-4.053486824E0,2.574637604E1,2.633460948E1
5.065780865E0,-3.087234974E0,-4.808246136E0,2.735491562E1,2.794533341E1
5.070703251E0,-2.588557005E0,-5.132377148E0,2.857841492E1,2.915077566E1
5.075625711E0,-2.155417919E0,-5.039931774E0,2.908612251E1,2.959812936E1
5.080547935E0,-1.706626058E0,-4.740964890E0,2.887535095E1,2.931169073E1
5.085470089E0,-1.287415981E0,-4.339299202E0,2.803983879E1,2.840280826E1
5.090392476E0,-1.082594037E0,-3.920478106E0,2.681539917E1,2.712209046E1
5.095314709E0,-1.019358993E0,-3.372242928E0,2.522317505E1,2.546801277E1
5.100237087E0,-9.993979931E-1,-2.951936007E0,2.332879639E1,2.353604604E1
5.105159548E0,-8.583639860E-1,-2.708357096E0,2.127351379E1,2.146239446E1
5.110081781E0,-6.332640052E-1,-2.662487030E0,1.937458801E1,1.956692416E1
5.115004164E0,-5.619329810E-1,-2.701885939E0,1.777971458E1,1.799261535E1
5.119926396E0,-6.521070004E-1,-2.599422932E0,1.634032822E1,1.655864032E1
5.124848779E0,-8.888999820E-1,-2.395828962E0,1.486198521E1,1.508007771E1
5.129771026E0,-1.137966037E0,-2.041111946E0,1.326042557E1,1.346476851E1
5.134693485E0,-1.292814970E0,-1.516929984E0,1.145423508E1,1.162634716E1
5.139615872E0,-1.346588969E0,-8.383359909E-1,9.668835640E0,9.798086125E0
5.144538094E0,-1.422009945E0,-1.603370011E-1,7.878180981E0,8.007094092E0
5.149460248E0,-1.641018033E0,4.871850014E-1,6.033620834E0,6.271751732E0
5.154382634E0,-1.944553971E0,1.057139039E0,4.175144196E0,4.725533002E0
5.159305096E0,-2.145699024E0,1.495566010E0,2.262803078E0,3.458470726E0
5.164227339E0,-2.123997927E0,1.702051997E0,3.169189990E-1,2.740216387E0
5.169149492E0,-1.888525963E0,1.733721972E0,-1.383442998E0,2.913114607E0
5.174071875E0,-1.525256991E0,1.652017951E0,-3.129982948E0,3.853876679E0
5.178994108E0,-1.337771058E0,1.441110015E0,-4.738473892E0,5.130259672E0
5.183916491E0,-1.310531974E0,1.126695037E0,-6.152267933E0,6.390409727E0
5.188838938E0,-1.369503975E0,7.868549824E-1,-7.377951145E0,7.545120609E0
5.193761400E0,-1.438958049E0,4.910010099E-1,-8.361802101E0,8.498906791E0
5.198683555E0,-1.527812958E0,3.506850004E-1,-9.158754349E0,9.291930565E0
5.203605771E0,-1.736719966E0,2.455500066E-1,-1.001184654E1,1.016432793E1
5.208528154E0,-1.965615034E0,1.733900011E-1,-1.090309715E1,1.108021814E1
5.213450382E0,-2.185117960E0,1.279999968E-3,-1.171624470E1,1.191826883E1
5.218372764E0,-2.419085026E0,-2.218829989E-1,-1.236266708E1,1.259907702E1
5.223294997E0,-2.693451881E0,-4.623549879E-1,-1.275836754E1,1.304777366E1
5.228217380E0,-2.950020075E0,-7.857339978E-1,-1.305892277E1,1.341102010E1
5.233139841E0,-3.135982037E0,-1.150437951E0,-1.319933987E1,1.361544945E1
5.238061997E0,-3.203346968E0,-1.577962995E0,-1.327783966E1,1.374963363E1
5.242984242E0,-3.205275059E0,-2.039769888E0,-1.332379627E1,1.385489071E1
5.247906701E0,-3.231287956E0,-2.479851961E0,-1.327592087E1,1.388671892E1
5.252828857E0,-3.207138062E0,-2.852276087E0,-1.311782455E1,1.380212065E1
5.257751284E0,-3.104795933E0,-3.214787006E0,-1.290757275E1,1.365943072E1
5.262673745E0,-2.983923912E0,-3.522917032E0,-1.260513783E1,1.342401750E1
5.267595901E0,-2.945544958E0,-3.819048882E0,-1.227254581E1,1.318623336E1
5.272518375E0,-2.882003069E0,-4.092152119E0,-1.189239502E1,1.290274040E1
5.277440531E0,-2.830894947E0,-4.329928875E0,-1.145661068E1,1.257044862E1
5.282362894E0,-2.849432945E0,-4.532752991E0,-1.109788990E1,1.232186179E1
5.287285127E0,-2.854042053E0,-4.683926105E0,-1.079603767E1,1.210946528E1
5.292207500E0,-2.865581989E0,-4.733613014E0,-1.052742863E1,1.189308227E1
5.297129732E0,-2.886960983E0,-4.699437141E0,-1.030976486E1,1.169232674E1
5.302052192E0,-2.855509996E0,-4.626564980E0,-1.010311794E1,1.147310041E1
5.306974584E0,-2.833002090E0,-4.550367832E0,-9.892517090E0,1.125138403E1
5.311896738E0,-2.803596020E0,-4.443534851E0,-9.779445648E0,1.110147332E1
5.316819197E0,-2.789479971E0,-4.307094097E0,-9.758012772E0,1.102502024E1
5.321741430E0,-2.788270950E0,-4.174352169E0,-9.775108337E0,1.098874033E1
5.326663812E0,-2.821858883E0,-4.033470154E0,-9.721383095E0,1.089665354E1
5.331586274E0,-2.843967915E0,-3.879933119E0,-9.604337692E0,1.074175670E1
5.336508502E0,-2.886979103E0,-3.663412094E0,-9.424486160E0,1.051552071E1
5.341430656E0,-2.914450884E0,-3.446589947E0,-9.222729683E0,1.026799635E1
5.346353057E0,-2.958189964E0,-3.239456892E0,-9.004538536E0,1.001632083E1
5.351275290E0,-3.001355886E0,-2.943813086E0,-8.777471542E0,9.732326511E0
5.356197673E0,-3.078146935E0,-2.597943068E0,-8.653064728E0,9.544622880E0
5.361120134E0,-3.144835949E0,-2.208029985E0,-8.592556953E0,9.412620494E0
5.366042290E0,-3.270570993E0,-1.772040963E0,-8.542322159E0,9.317082787E0
5.370964750E0,-3.373271942E0,-1.371199965E0,-8.478076935E0,9.226968162E0
5.375886982E0,-3.425019979E0,-1.006657004E0,-8.452457428E0,9.175410441E0
5.380809117E0,-3.418159962E0,-7.256349921E-1,-8.463494301E0,9.156478551E0
5.385731808E0,-3.322710991E0,-4.472210109E-1,-8.421833992E0,9.064640244E0
5.390654040E0,-3.164441109E0,-1.984640062E-1,-8.272947311E0,8.859725318E0
5.395576432E0,-3.042011023E0,3.276000172E-2,-8.110990524E0,8.662740419E0
5.400498665E0,-2.978224993E0,2.369530052E-1,-8.007390976E0,8.546594706E0
5.405420824E0,-2.928497076E0,3.748709857E-1,-7.955102921E0,8.485298218E0
5.410343206E0,-2.779316902E0,4.515259862E-1,-7.919684887E0,8.405348706E0
5.415265401E0,-2.580667019E0,4.135090113E-1,-7.933537960E0,8.352954958E0
5.420187784E0,-2.412983894E0,4.102799892E-1,-7.985048771E0,8.351755793E0
5.425110254E0,-2.268311977E0,4.145770073E-1,-8.014451981E0,8.339577560E0
5.430032716E0,-2.270314932E0,4.814139903E-1,-8.115956306E0,8.441257968E0
5.434954872E0,-2.229612112E0,5.277649760E-1,-8.195587158E0,8.509838712E0
5.439877088E0,-2.120810986E0,5.045409799E-1,-8.103420258E0,8.391532679E0
5.444799548E0,-2.057605982E0,4.144429862E-1,-7.996140957E0,8.267029428E0
5.449721933E0,-2.032342911E0,3.222649992E-1,-7.886473179E0,8.150504993E0
5.454644194E0,-2.058578968E0,2.553009987E-1,-7.708283901E0,7.982516312E0
5.459566577E0,-2.151020050E0,1.782409996E-1,-7.424077034E0,7.731466673E0
5.464488805E0,-2.256313086E0,1.925349981E-1,-6.930607796E0,7.291182544E0
5.469410959E0,-2.221349001E0,2.720269859E-1,-6.297972202E0,6.683774676E0
5.474333418E0,-2.078954935E0,3.549939990E-1,-5.645055771E0,6.026170344E0
5.479255817E0,-1.864878058E0,4.250389934E-1,-5.069668770E0,5.418484083E0
5.484178050E0,-1.654088974E0,4.090499878E-1,-4.557532787E0,4.865638430E0
5.489100456E0,-1.423022032E0,4.608170092E-1,-4.031823158E0,4.300342079E0
5.494022612E0,-1.185852051E0,5.459859967E-1,-3.351864100E0,3.597129235E0
5.498945072E0,-1.019201994E0,5.949990153E-1,-2.387178898E0,2.662971953E0
5.503867319E0,-9.515429735E-1,6.453809738E-1,-1.134170055E0,1.615020850E0
5.508789702E0,-1.169360042E0,6.031510234E-1,4.659039974E-1,1.395801060E0
5.513712164E0,-1.557891011E0,4.881359935E-1,2.642719030E0,3.106326613E0
5.518634396E0,-1.880584955E0,4.025599957E-1,5.454639912E0,5.783748861E0
5.523556779E0,-2.150046110E0,2.491140068E-1,8.576786995E0,8.845678675E0
5.528479012E0,-2.181816101E0,-2.807099931E-2,1.135651302E1,1.156423355E1
5.533401166E0,-2.059603930E0,-5.353980064E-1,1.354901123E1,1.371511300E1
5.538323625E0,-1.969334006E0,-8.926380277E-1,1.651157379E1,1.665254179E1
5.543245981E0,-1.790415049E0,-9.535580277E-1,1.977627945E1,1.988004245E1
5.548168137E0,-1.629595995E0,-9.975240231E-1,2.198815155E1,2.207100917E1
5.553090596E0,-1.406057000E0,-1.349086046E0,2.305075645E1,2.313297219E1
5.558012843E0,-1.421396971E0,-1.639181972E0,2.359342194E1,2.369297038E1
5.562935303E0,-1.919067025E0,-1.339190006E0,2.287429237E1,2.299368391E1
5.567857458E0,-3.002947092E0,-6.574469805E-1,2.155738831E1,2.177546597E1
5.572779841E0,-3.838406086E0,-4.794149995E-1,2.132100105E1,2.166906288E1
5.577702303E0,-3.713076115E0,-1.353657961E0,2.259142685E1,2.293451310E1
5.582624535E0,-2.676595926E0,-2.801779032E0,2.465631294E1,2.495892424E1
5.587546933E0,-1.620339036E0,-3.962346077E0,2.670336533E1,2.704432297E1
5.592469166E0,-1.025130987E0,-4.285502911E0,2.797278976E1,2.831772229E1
5.597391310E0,-1.107303977E0,-3.699758053E0,2.838470840E1,2.864622144E1
5.602313769E0,-1.736152053E0,-2.757183075E0,2.813713074E1,2.832515505E1
5.607236129E0,-2.392386913E0,-2.024614096E0,2.754813576E1,2.772584284E1
5.612158362E0,-2.807051897E0,-1.765812993E0,2.681621170E1,2.702048937E1
5.617080744E0,-2.911839008E0,-1.714962959E0,2.596329689E1,2.618229726E1
5.622003244E0,-2.965555906E0,-1.659576058E0,2.500838852E1,2.523822915E1
5.626925400E0,-3.047077894E0,-1.596354961E0,2.392291451E1,2.416896504E1
5.631847630E0,-3.069587946E0,-1.498520017E0,2.255877686E1,2.281592307E1
5.636769999E0,-3.012335062E0,-1.424029946E0,2.090431976E1,2.116819805E1
5.641692461E0,-2.797566891E0,-1.353430986E0,1.892262840E1,1.917613156E1
5.646614693E0,-2.446665049E0,-1.110087991E0,1.667244720E1,1.688753863E1
5.651537086E0,-2.217921019E0,-5.978050232E-1,1.416374207E1,1.434880252E1
5.656459319E0,-2.177278996E0,2.268850058E-1,1.141375637E1,1.162178365E1
5.661381705E0,-2.321907997E0,1.211367965E0,8.741681099E0,9.125549711E0
5.666303938E0,-2.500453949E0,2.109550953E0,6.150338173E0,6.966285582E0
5.671226307E0,-2.567250967E0,2.814344883E0,3.802782059E0,5.382607735E0
5.676148540E0,-2.494071007E0,3.318260908E0,1.742347002E0,4.501890571E0
5.681070999E0,-2.293746948E0,3.622726917E0,2.407599986E-2,4.287890511E0
5.685993145E0,-2.127914906E0,3.773890972E0,-1.592246056E0,4.615790552E0
5.690915528E0,-2.021548033E0,3.865482092E0,-3.002796888E0,5.295790536E0
5.695837760E0,-1.646497011E0,3.918544054E0,-4.117955208E0,5.918065140E0
5.700760162E0,-1.233579040E0,3.945959091E0,-5.270106792E0,6.698233797E0
5.705682624E0,-9.695289731E-1,3.887824059E0,-6.308454037E0,7.473403152E0
5.710604856E0,-7.403420210E-1,3.766362906E0,-7.175581932E0,8.137725229E0
5.715527220E0,-5.511140227E-1,3.582308054E0,-7.914811134E0,8.705222166E0
5.720449453E0,-3.743059933E-1,3.361728907E0,-8.660346031E0,9.297468451E0
5.725371835E0,-1.802970022E-1,3.021621943E0,-9.311979294E0,9.791611948E0
5.730294054E0,-3.285700083E-2,2.528930902E0,-9.879755974E0,1.019834051E1
5.735216437E0,3.355700150E-2,1.969761968E0,-1.039542007E1,1.058044644E1
5.740138898E0,-7.012999803E-2,1.483572960E0,-1.094846439E1,1.104874561E1
5.745061150E0,-3.642790020E-1,1.085801959E0,-1.170557594E1,1.176146986E1
5.749983533E0,-6.754149795E-1,6.453530192E-1,-1.226042557E1,1.229596279E1
5.754905766E0,-8.384600282E-1,1.837570071E-1,-1.260332680E1,1.263252264E1
5.759828181E0,-8.963389993E-1,-2.669169903E-1,-1.263801289E1,1.267257030E1
5.764750414E0,-9.449390173E-1,-7.682330012E-1,-1.248933887E1,1.254857272E1
5.769672797E0,-1.030899048E0,-1.268340945E0,-1.229943848E1,1.240756336E1
5.774595253E0,-1.168465972E0,-1.730473042E0,-1.207482529E1,1.225403017E1
5.779517486E0,-1.259047031E0,-2.126991034E0,-1.176361084E1,1.202047546E1
5.784439869E0,-1.266162992E0,-2.505564928E0,-1.137556934E1,1.171685121E1
5.789362097E0,-1.137313962E0,-2.941440105E0,-1.096836472E1,1.141273751E1
5.794284480E0,-1.011880994E0,-3.341377020E0,-1.060251904E1,1.116253168E1
5.799206689E0,-1.089126945E0,-3.625848055E0,-1.032473087E1,1.099695591E1
5.804128843E0,-1.386883020E0,-3.751208067E0,-1.018488216E1,1.094197565E1
5.809051225E0,-1.681542039E0,-3.727037907E0,-1.012372971E1,1.091825528E1
5.813973467E0,-1.858840942E0,-3.666939974E0,-1.002021408E1,1.083080923E1
5.818895927E0,-2.109229088E0,-3.492819071E0,-9.807802200E0,1.062269346E1
5.823818347E0,-2.718712091E0,-2.903018951E0,-9.647622108E0,1.043530195E1
5.828740502E0,-3.504568100E0,-2.249713898E0,-9.505681992E0,1.037791888E1
5.833663039E0,-3.556447983E0,-2.239895105E0,-8.873525620E0,9.818600168E0
5.838585439E0,-3.001698971E0,-2.749017000E0,-8.541146278E0,9.461420133E0
5.843507670E0,-2.291359901E0,-3.359812021E0,-8.639222145E0,9.548551005E0
5.848430053E0,-1.811702013E0,-3.850533962E0,-8.798255920E0,9.773340433E0
5.853352218E0,-1.688562036E0,-4.078835964E0,-8.981458664E0,1.000773422E1
5.858274447E0,-1.860362053E0,-4.048755169E0,-9.085392952E0,1.011917637E1
5.863196832E0,-2.122458935E0,-3.768651009E0,-9.143646240E0,1.011502985E1
5.868119065E0,-2.445486069E0,-3.321355104E0,-9.156850815E0,1.004289394E1
5.873041442E0,-2.626472950E0,-2.903036118E0,-9.147883415E0,9.950364307E0
5.877963904E0,-2.570990086E0,-2.586273909E0,-9.147271156E0,9.847404346E0
5.882886060E0,-2.423602104E0,-2.316935062E0,-9.115247726E0,9.712351742E0
5.887808538E0,-2.348495007E0,-1.970981956E0,-8.972554207E0,9.481926369E0
5.892730771E0,-2.318408012E0,-1.656927943E0,-8.769846916E0,9.221206041E0
5.897653231E0,-2.357988119E0,-1.354747057E0,-8.487763405E0,8.912775952E0
5.902575617E0,-2.389348030E0,-1.087077022E0,-8.330115318E0,8.733930483E0
5.907497848E0,-2.340557098E0,-9.023029804E-1,-8.153928757E0,8.531055759E0
5.912420231E0,-2.214041948E0,-8.591529727E-1,-8.076017380E0,8.417967825E0
5.917342367E0,-2.146610022E0,-6.174679995E-1,-7.991176128E0,8.297475353E0
5.922264596E0,-2.134500027E0,-2.360440046E-1,-7.895228863E0,8.182080783E0
5.927187053E0,-2.219240904E0,1.685779989E-1,-7.923359871E0,8.230010958E0
5.932109437E0,-2.271269083E0,4.646010101E-1,-7.977148056E0,8.307190166E0
5.937031670E0,-2.247162104E0,5.868269801E-1,-7.958063126E0,8.290046570E0
5.941954058E0,-2.247961044E0,5.373349786E-1,-7.787650108E0,8.123395346E0
5.946876291E0,-2.221565962E0,5.306649804E-1,-7.649077892E0,7.982816123E0
5.951798673E0,-2.338128090E0,6.317980289E-1,-7.550593853E0,7.929532095E0
5.956720901E0,-2.499250889E0,7.806500196E-1,-7.386659145E0,7.836989396E0
5.961643361E0,-2.425342083E0,9.975339770E-1,-7.388853073E0,7.840440548E0
5.966565747E0,-2.025832891E0,1.299816012E0,-7.779841900E0,8.143676108E0
5.971487954E0,-2.265465021E0,1.429126024E0,-7.476677895E0,7.942005118E0
5.976410337E0,-2.580055952E0,1.016584992E0,-6.775965214E0,7.321464221E0
5.981332468E0,-2.711791039E0,6.500309706E-1,-5.653469086E0,6.303813417E0
5.986254697E0,-2.498909950E0,5.199620128E-1,-4.350484848E0,5.043969652E0
5.991177097E0,-1.975180030E0,4.463849962E-1,-3.175187111E0,3.765953917E0
5.996099558E0,-1.272107005E0,3.945559859E-1,-1.900457025E0,2.320704109E0
6.001021824E0,-7.292680144E-1,5.178689957E-1,-7.960709929E-1,1.197392650E0
6.005944207E0,-8.888930082E-1,7.884219885E-1,5.173469782E-1,1.295911998E0
6.010866440E0,-1.783241034E0,1.205276012E0,2.382576942E0,3.210811694E0
6.015788813E0,-2.768553972E0,1.649660945E0,5.466191769E0,6.345512176E0
6.020711046E0,-3.133862019E0,1.996860981E0,8.915332794E0,9.658763055E0
6.025633501E0,-3.057156086E0,2.107351065E0,1.115446663E1,1.175624335E1
6.030555887E0,-2.895754099E0,1.965577960E0,1.281036758E1,1.327984963E1
6.035478118E0,-2.968806982E0,1.760879040E0,1.449045753E1,1.489590110E1
6.040400486E0,-3.349229097E0,1.709414005E0,1.643603516E1,1.686068455E1
6.045322718E0,-3.659553051E0,1.686264992E0,1.848692131E1,1.892094283E1
6.050244843E0,-3.768594027E0,1.528426051E0,2.052524567E1,2.092424662E1
6.055167534E0,-3.659329891E0,1.221387982E0,2.221072006E1,2.254325996E1
6.060089766E0,-3.410367012E0,1.068896055E0,2.329991531E1,2.357242447E1
6.065012168E0,-3.134325027E0,1.088315964E0,2.317767906E1,2.341395378E1
6.069934401E0,-3.304301023E0,1.246615052E0,2.152729797E1,2.181506389E1
6.074856555E0,-3.666213989E0,1.285948992E0,2.004667854E1,2.041969908E1
6.079778928E0,-3.505717993E0,1.097712040E0,2.018783569E1,2.051935039E1
6.084701390E0,-2.543111086E0,6.822500229E-1,2.216855240E1,2.232437221E1
6.089623623E0,-1.057068944E0,2.663139999E-1,2.507435226E1,2.509803696E1
6.094545990E0,-3.528299928E-1,-5.260999873E-2,2.740843964E1,2.741076103E1
6.099468223E0,-3.346689939E-1,-5.618119836E-1,2.818842506E1,2.819600936E1
6.104390606E0,-3.660350144E-1,-8.275880218E-1,2.716419601E1,2.717926468E1
6.109312833E0,-5.506209731E-1,-1.056274056E0,2.556958961E1,2.559732040E1
6.114235293E0,-3.733319938E-1,-1.114182949E0,2.386316872E1,2.389208240E1
6.119157363E0,-2.177609950E-1,-1.000244975E0,2.262440109E1,2.264754809E1
6.124079822E0,-1.056799963E-1,-1.030202031E0,2.197052765E1,2.199492145E1
6.129002055E0,-8.016999811E-3,-1.477879047E0,2.148470306E1,2.153547437E1
6.133924433E0,1.275829971E-1,-2.100729942E0,2.030262756E1,2.041141910E1
6.138846666E0,3.660230041E-1,-2.715128899E0,1.885832214E1,1.905629061E1
6.143769072E0,4.663009942E-1,-2.828639984E0,1.713581848E1,1.737397237E1
6.148691305E0,1.860419959E-1,-2.459671974E0,1.527220821E1,1.547013063E1
6.153613765E0,-1.997140050E-1,-1.854401946E0,1.288972759E1,1.302396904E1
6.158536161E0,-4.111010134E-1,-1.235875964E0,1.013488293E1,1.021823103E1
6.163458621E0,-5.455480218E-1,-7.005249858E-1,7.328622818E0,7.382213104E0
6.168380853E0,-6.600769758E-1,-2.201749980E-1,4.899055958E0,4.948224724E0
6.173302925E0,-6.278399825E-1,1.132159978E-1,2.804936886E0,2.876572933E0
6.178225154E0,-6.406239867E-1,6.088290215E-1,8.878070116E-1,1.252706334E0
6.183147635E0,-6.825799942E-1,1.140602946E0,-8.171510100E-1,1.560328909E0
6.188070019E0,-5.766050220E-1,1.542237043E0,-2.018165112E0,2.604603399E0
6.192992242E0,-6.310039759E-1,1.749884009E0,-3.385124922E0,3.862554958E0
6.197914625E0,-7.068660259E-1,1.758633971E0,-4.794676781E0,5.155713186E0
6.202836858E0,-6.858879924E-1,1.547119021E0,-6.350396156E0,6.572027917E0
6.207759231E0,-8.193269968E-1,1.301421046E0,-7.746912956E0,7.898079122E0
6.212681464E0,-1.064324975E0,1.123088002E0,-8.858360291E0,8.992478043E0
6.217604154E0,-1.350043058E0,9.518390298E-1,-9.847622871E0,9.985203554E0
6.222526396E0,-1.696846962E0,8.546839952E-1,-1.091327286E1,1.107742293E1
6.227448779E0,-2.102802038E0,7.871009707E-1,-1.181294441E1,1.202443180E1
6.232370935E0,-2.396437883E0,7.568299770E-1,-1.259870815E1,1.284691221E1
6.237293135E0,-2.714957952E0,6.950870156E-1,-1.315037727E1,1.344568946E1
6.242215518E0,-3.005578041E0,6.337119937E-1,-1.343897533E1,1.378554128E1
6.247137756E0,-3.204082966E0,6.115610003E-1,-1.358430195E1,1.397044788E1
6.252060138E0,-3.389877081E0,6.901620030E-1,-1.347214127E1,1.390921207E1
6.256982371E0,-3.314898968E0,1.135760024E-1,-1.334445190E1,1.375048549E1
6.261904778E0,-3.117319107E0,-5.715019703E-1,-1.351552582E1,1.388213712E1
6.266827011E0,-3.052370071E0,-1.077222943E0,-1.344256020E1,1.382677826E1
6.271749393E0,-3.075934887E0,-1.410740972E0,-1.294444084E1,1.337946614E1
6.276671597E0,-3.066258907E0,-1.601621032E0,-1.241183281E1,1.288490308E1
6.281594287E0,-2.975959063E0,-1.756525993E0,-1.181672096E1,1.231164531E1
6.286516520E0,-2.697135925E0,-1.978299975E0,-1.125333977E1,1.173992627E1
6.291438898E0,-2.445810080E0,-2.274427891E0,-1.069637203E1,1.120568533E1
6.296361054E0,-2.287255049E0,-2.613769054E0,-1.018420315E1,1.076017277E1
6.301283284E0,-2.219011068E0,-2.854065895E0,-9.857600212E0,1.049961829E1
6.306205672E0,-2.195540905E0,-3.045244932E0,-9.654767990E0,1.035897975E1
6.311128134E0,-2.094954967E0,-3.194938898E0,-9.494305611E0,1.023417363E1
6.316050251E0,-1.969223022E0,-3.291964054E0,-9.474961281E0,1.022202318E1
6.320972482E0,-1.899577022E0,-3.332050085E0,-9.602931976E0,1.034056348E1
6.325894865E0,-1.855589032E0,-3.435997009E0,-9.696995735E0,1.045375590E1
6.330817098E0,-1.794443011E0,-3.503081083E0,-9.784070015E0,1.054607173E1
6.335739480E0,-1.673097014E0,-3.597285032E0,-9.794415474E0,1.056741632E1
6.340661956E0,-1.562947989E0,-3.696048975E0,-9.699142456E0,1.049652080E1
6.345584189E0,-1.456027031E0,-3.742875099E0,-9.512601852E0,1.032563425E1
6.350506571E0,-1.401942968E0,-3.736248970E0,-9.378451347E0,1.019217102E1
6.355428775E0,-1.351187944E0,-3.621948957E0,-9.445557594E0,1.020601692E1
6.360351158E0,-1.308655024E0,-3.422503948E0,-9.627256393E0,1.030097942E1
6.365273390E0,-1.231137037E0,-3.215583086E0,-9.782068253E0,1.037036799E1
6.370195763E0,-1.135740995E0,-3.030107021E0,-9.771267891E0,1.029315949E1
6.375118225E0,-1.052302957E0,-2.856584072E0,-9.602412224E0,1.007341723E1
6.380040457E0,-9.243919849E-1,-2.700850010E0,-9.395224571E0,9.819334807E0
6.384962855E0,-8.861169815E-1,-2.440787077E0,-9.262776375E0,9.619858161E0
6.389885011E0,-9.287629724E-1,-2.175229073E0,-9.033424377E0,9.337932221E0
6.394807242E0,-9.248459935E-1,-1.848847985E0,-8.805315018E0,9.044730596E0
6.399729715E0,-8.972510099E-1,-1.540899038E0,-8.662348747E0,8.843964894E0
6.404651871E0,-8.692629933E-1,-1.239971042E0,-8.659573555E0,8.790981771E0
6.409574561E0,-8.899769783E-1,-9.226520061E-1,-8.687213898E0,8.781288690E0
6.414496794E0,-8.859869838E-1,-6.303510070E-1,-8.668831825E0,8.736759156E0
6.419419177E0,-8.408420086E-1,-3.113290071E-1,-8.628442764E0,8.674904355E0
6.424341395E0,-7.748289704E-1,5.675400048E-2,-8.568901062E0,8.604048254E0
6.429263778E0,-7.358719707E-1,4.588820040E-1,-8.412688255E0,8.457269295E0
6.434186015E0,-6.586520076E-1,8.027060032E-1,-8.143057823E0,8.208992027E0
6.439108169E0,-5.769659877E-1,1.130427003E0,-7.828969002E0,7.931173343E0
6.444030576E0,-5.156040192E-1,1.426429987E0,-7.513089180E0,7.664663009E0
6.448952809E0,-4.070659876E-1,1.627642989E0,-7.151782990E0,7.345946117E0
6.453875269E0,-2.637979984E-1,1.840494037E0,-6.795241833E0,7.045020883E0
6.458797659E0,-1.225809976E-1,2.063951969E0,-6.376657009E0,6.703482561E0
6.463719891E0,-3.082999960E-3,2.294682026E0,-5.831682205E0,6.266904535E0
6.468642351E0,9.199599922E-2,2.549051046E0,-5.323126793E0,5.902694584E0
6.473564742E0,2.943330109E-1,2.714868069E0,-4.647089005E0,5.390044227E0
6.478486973E0,5.846830010E-1,2.772053957E0,-3.927712917E0,4.842836577E0
6.483409356E0,6.296939850E-1,2.817847013E0,-3.210793972E0,4.318098451E0
6.488331517E0,4.322710037E-1,2.875757933E0,-2.353116035E0,3.740855114E0
6.493253976E0,2.991999965E-3,2.835755110E0,-1.426970959E0,3.174549119E0
6.498176146E0,-3.091030121E-1,2.731101036E0,-4.010779858E-1,2.777646682E0
6.503098606E0,-5.044929981E-1,2.732106924E0,8.132830262E-1,2.894883540E0
6.508020756E0,-8.646069765E-1,2.729585886E0,2.012531042E0,3.499780783E0
6.512943216E0,-1.324810982E0,2.627258062E0,3.448183060E0,4.532943357E0
6.517865449E0,-7.959989905E-1,8.210960031E-1,4.913344860E0,5.044677468E0
6.522787889E0,-1.136518955E0,-2.842789888E-1,6.707001209E0,6.808550147E0
6.527710122E0,-2.540086985E0,6.756650209E-1,1.064785290E1,1.096746718E1
6.532632582E0,-3.623657942E0,1.921576977E0,1.448580933E1,1.505529896E1
6.537554982E0,-4.193883896E0,2.659039021E0,1.633193970E1,1.707019054E1
6.542477213E0,-4.193849087E0,2.620383024E0,1.745117569E1,1.813831057E1
6.547399596E0,-4.414073944E0,1.946095943E0,1.953161240E1,2.011852930E1
6.552321743E0,-4.917815208E0,8.192600012E-1,2.199400330E1,2.255199047E1
6.557243972E0,-5.307478905E0,-5.598760247E-1,2.418207169E1,2.476399371E1
6.562166442E0,-5.590392113E0,-1.630257964E0,2.494391632E1,2.561462837E1
6.567088827E0,-5.556537151E0,-2.438010931E0,2.331673813E1,2.409334513E1
6.572010987E0,-4.846496105E0,-3.072681904E0,2.049970627E1,2.128773956E1
6.576933447E0,-3.406982899E0,-3.543597937E0,1.822107506E1,1.887252487E1
6.581855680E0,-2.400019884E0,-3.560118914E0,1.817772293E1,1.867790548E1
6.586778062E0,-2.535854101E0,-3.217679977E0,2.110541534E1,2.149936225E1
6.591700295E0,-2.751635075E0,-3.090913057E0,2.477073669E1,2.511403264E1
6.596622755E0,-2.339201927E0,-3.308872938E0,2.753204155E1,2.782865102E1
6.601545141E0,-1.776872993E0,-3.439793110E0,2.903038216E1,2.928741270E1
6.606467372E0,-1.500041008E0,-3.072134018E0,2.901645279E1,2.921716384E1
6.611389765E0,-1.348374963E0,-2.298053026E0,2.793879128E1,2.806555221E1
6.616311997E0,-1.250362992E0,-1.560140014E0,2.624577332E1,2.632181721E1
6.621234380E0,-1.038014054E0,-1.204506993E0,2.434656906E1,2.439843715E1
6.626156549E0,-8.320479989E-1,-1.390491009E0,2.238579178E1,2.244436327E1
6.631079009E0,-8.612790108E-1,-1.845201015E0,2.031925964E1,2.042104015E1
6.636001236E0,-1.078958988E0,-2.160177946E0,1.854933167E1,1.870583402E1
6.640923619E0,-1.415349960E0,-2.048831940E0,1.675900269E1,1.694299557E1
6.645845852E0,-1.685691953E0,-1.490471005E0,1.486810684E1,1.503740876E1
6.650768240E0,-1.991117954E0,-7.994480133E-1,1.281434345E1,1.299273127E1
6.655690473E0,-2.295372963E0,2.972700074E-2,1.044185066E1,1.069120508E1
6.660612938E0,-2.449853897E0,7.733839750E-1,8.313059807E0,8.700969500E0
6.665535324E0,-2.328058958E0,1.494343042E0,6.142570019E0,6.736771191E0
6.670457555E0,-1.931985021E0,2.230658054E0,4.206018925E0,5.137995394E0
6.675379947E0,-1.787565947E0,2.779207945E0,2.737874985E0,4.291310784E0
6.680302179E0,-1.631672025E0,3.353060007E0,1.080062985E0,3.882254636E0
6.685224553E0,-1.642444968E0,3.908555031E0,-8.465849757E-1,4.323324418E0
6.690147015E0,-1.706099033E0,4.299254894E0,-2.613023043E0,5.312462327E0
6.695069218E0,-1.704776049E0,4.468265057E0,-4.299990177E0,6.431296099E0
6.699991601E0,-1.595381021E0,4.310735226E0,-5.705591202E0,7.326762570E0
6.704913757E0,-1.484359980E0,4.170443058E0,-6.886692047E0,8.186723838E0
6.709835998E0,-1.232426047E0,3.951323986E0,-7.983678818E0,8.992828402E0
6.714758380E0,-9.122110009E-1,3.746469021E0,-9.381100655E0,1.014264307E1
6.719680613E0,-6.848959923E-1,3.669107914E0,-1.109579563E1,1.170675515E1
6.724603077E0,-3.213160038E-1,3.790796995E0,-1.283844280E1,1.339025763E1
6.729525463E0,-1.733189970E-1,3.856779099E0,-1.441071320E1,1.491889538E1
6.734447694E0,-2.013040036E-1,3.924844027E0,-1.519087315E1,1.569100223E1
6.739370058E0,-6.684290171E-1,3.710608006E0,-1.539943695E1,1.585427600E1
6.744292519E0,-1.287734032E0,3.207521915E0,-1.505593014E1,1.544757224E1
6.749214743E0,-1.580561042E0,2.889111996E0,-1.482150459E1,1.518295557E1
6.754136897E0,-1.722095966E0,2.462974072E0,-1.432307053E1,1.463496516E1
6.759059275E0,-2.127370119E0,2.015463114E0,-1.383170891E1,1.413873992E1
6.763981507E0,-2.920137882E0,1.687320948E0,-1.361869240E1,1.403007626E1
6.768903890E0,-3.442620039E0,1.508241057E0,-1.341153240E1,1.392823123E1
6.773826084E0,-3.093328953E0,1.405156970E0,-1.295617485E1,1.339423820E1
6.778748466E0,-2.027529955E0,1.327067018E0,-1.214920998E1,1.238851434E1
6.783670928E0,-9.017639756E-1,9.150760174E-1,-1.093951416E1,1.101469530E1
6.788593161E0,-1.865579933E-1,3.169449866E-1,-9.851388931E0,9.858251462E0
6.793515543E0,-6.719599664E-2,-2.324140072E-1,-9.069410324E0,9.072636618E0
6.798438005E0,-2.042180002E-1,-6.416649818E-1,-8.365245819E0,8.392304603E0
6.803360209E0,-1.339329958E0,-1.812333941E0,-7.659742832E0,7.984360920E0
6.808282362E0,-1.196282029E0,-2.086908102E0,-7.177185059E0,7.569561512E0
6.813204745E0,-6.145790219E-1,-2.181353092E0,-7.511251926E0,7.845693990E0
6.818126964E0,-8.537160158E-1,-2.261802912E0,-8.163783073E0,8.514219725E0
6.823049347E0,-1.215227008E0,-2.246380091E0,-8.831594467E0,9.193479267E0
6.827971579E0,-9.824039936E-1,-2.238491058E0,-9.449403763E0,9.760491345E0
6.832893967E0,-7.771229744E-1,-2.486355066E0,-9.540964127E0,9.890191004E0
6.837816428E0,-1.343325973E0,-2.797281981E0,-8.996251106E0,9.516398747E0
6.842738661E0,-2.000570059E0,-2.980421066E0,-8.417319298E0,9.150762507E0
6.847661053E0,-2.262825966E0,-2.930840969E0,-7.887951851E0,8.713781874E0
6.852583514E0,-2.092502117E0,-2.819818974E0,-7.664636135E0,8.430693402E0
6.857505747E0,-1.821835995E0,-2.700961113E0,-7.726292133E0,8.385097940E0
6.862428115E0,-1.654274940E0,-2.659573078E0,-7.956353188E0,8.550643869E0
6.867350348E0,-1.518479943E0,-2.696232080E0,-8.227956772E0,8.790604155E0
6.872272501E0,-1.409173965E0,-2.744339943E0,-8.416134834E0,8.963732400E0
6.877194869E0,-1.345427990E0,-2.786195040E0,-8.470394135E0,9.017795522E0
6.882117331E0,-1.232463002E0,-2.730890036E0,-8.462164879E0,8.976912603E0
6.887039563E0,-1.163066983E0,-2.571302891E0,-8.389300346E0,8.851253226E0
6.891961708E0,-1.196313977E0,-2.392309904E0,-8.382102966E0,8.798520554E0
6.896884182E0,-1.038030028E0,-2.223922014E0,-8.475529671E0,8.823714562E0
6.901806566E0,-7.856940031E-1,-2.092255116E0,-8.539876938E0,8.827476686E0
6.906728799E0,-5.291010141E-1,-1.968374968E0,-8.551659584E0,8.791207513E0
6.911651201E0,-4.494310021E-1,-1.756682992E0,-8.480297089E0,8.671987204E0
6.916573662E0,-5.339270234E-1,-1.539155960E0,-8.362276077E0,8.519491788E0
6.921495895E0,-8.280969858E-1,-1.274577975E0,-8.203978539E0,8.343593800E0
6.926418283E0,-1.046547055E0,-1.036263943E0,-7.850701809E0,7.987654386E0
6.931340516E0,-1.109326005E0,-8.611969948E-1,-7.343702793E0,7.476779732E0
6.936262645E0,-1.048429966E0,-6.509180069E-1,-6.798239231E0,6.909338339E0
6.941185028E0,-9.947239757E-1,-4.420700073E-1,-6.344874859E0,6.437572419E0
6.946107490E0,-9.761390090E-1,-1.900890023E-1,-5.939804077E0,6.022479030E0
6.951029712E0,-1.125707984E0,7.394800335E-2,-5.736485958E0,5.846362794E0
6.955952095E0,-1.217952013E0,3.107849956E-1,-5.606595993E0,5.745773494E0
6.960874328E0,-1.102491021E0,5.450680256E-1,-5.523835182E0,5.659093631E0
6.965796715E0,-7.193530202E-1,7.160649896E-1,-5.434504032E0,5.528476455E0
6.970718948E0,-3.105860054E-1,8.673589826E-1,-5.233469009E0,5.313941394E0
6.975641341E0,4.791399837E-2,1.025789976E0,-4.806715012E0,4.915185656E0
6.980563802E0,3.956499994E-1,1.180392981E0,-4.071570873E0,4.257646755E0
6.985486035E0,6.192740202E-1,1.336210966E0,-3.146758080E0,3.474341156E0
6.990408427E0,4.930100143E-1,1.475986958E0,-2.371505022E0,2.836482407E0
6.995330660E0,1.850699931E-1,1.653283954E0,-1.828151941E0,2.471788473E0
7.000253042E0,4.027000163E-3,1.850550056E0,-1.195948005E0,2.203370907E0
7.005175261E0,-5.972399935E-2,2.069674015E0,-3.169870079E-1,2.094659459E0
7.010097644E0,-1.272500027E-2,2.177470922E0,9.138360023E-1,2.361490585E0
7.015020105E0,2.072079927E-1,2.172596931E0,2.494081974E0,3.314145059E0
7.019942338E0,4.913879931E-1,2.124938011E0,4.201312065E0,4.733692721E0
7.024864492E0,7.371630073E-1,2.142461061E0,5.983419895E0,6.398035819E0
7.029786878E0,7.522310019E-1,2.259815931E0,8.496648788E0,8.824152093E0
7.034709111E0,5.363630056E-1,2.512552977E0,1.165963364E1,1.193933266E1
7.039631494E0,9.442699701E-2,2.810671091E0,1.520649529E1,1.546435538E1
7.044553955E0,-4.626049995E-1,3.157686949E0,1.851261139E1,1.878567994E1
7.049476188E0,-9.189059734E-1,3.370937109E0,2.087990570E1,2.117021651E1
7.054398571E0,-1.113706946E0,3.271569967E0,2.236754990E1,2.263295830E1
7.059320785E0,-1.021749020E0,2.877166033E0,2.297502136E1,2.317700718E1
7.064243167E0,-1.015120029E0,2.403537035E0,2.250938988E1,2.266009911E1
7.069165640E0,-1.483786941E0,1.797250032E0,2.124383926E1,2.137129940E1
7.074087796E0,-2.499279022E0,1.086992979E0,2.019362831E1,2.037671646E1
7.079010040E0,-3.595172882E0,3.654179871E-1,1.928478241E1,1.962043911E1
7.083932423E0,-4.242592812E0,-4.137060046E-1,1.873030853E1,1.920924788E1
7.088854651E0,-4.460750103E0,-1.093590021E0,1.839150238E1,1.895630740E1
7.093777033E0,-4.370789051E0,-1.620056987E0,1.794716072E1,1.854262548E1
7.098699266E0,-4.095639229E0,-2.049047947E0,1.750951385E1,1.809850639E1
7.103621659E0,-3.531735897E0,-2.369211912E0,1.744131851E1,1.795232339E1
7.108544120E0,-2.667831898E0,-2.282417059E0,1.761184120E1,1.795838816E1
7.113466353E0,-1.760911942E0,-1.958825946E0,1.781788635E1,1.801152087E1
7.118388741E0,-1.154656053E0,-1.503813982E0,1.781024170E1,1.791087369E1
7.123310974E0,-1.008003950E0,-9.685360193E-1,1.733485413E1,1.739112709E1
7.128233122E0,-1.240319014E0,-4.604429901E-1,1.654631805E1,1.659912769E1
7.133155582E0,-1.546257973E0,-1.784629971E-1,1.566939926E1,1.574651822E1
7.138077986E0,-1.704290032E0,-9.464199841E-2,1.459934330E1,1.469878860E1
7.143000218E0,-1.521141052E0,-1.479820013E-1,1.319292068E1,1.328114923E1
7.147922625E0,-1.159548044E0,-5.829599872E-2,1.123234367E1,1.129218732E1
7.152845087E0,-9.495450258E-1,2.646409869E-1,8.853917122E0,8.908620489E0
7.157767271E0,-9.184870124E-1,7.761359811E-1,6.361010075E0,6.473673966E0
7.162689502E0,-8.055040240E-1,1.292482018E0,4.006246090E0,4.285948464E0
7.167611885E0,-5.025320053E-1,1.626014948E0,1.895984054E0,2.547786992E0
7.172534351E0,-1.245059967E-1,1.819784999E0,-2.369100042E-2,1.824193095E0
7.177456813E0,1.530350000E-1,1.932000041E0,-1.622020960E0,2.527250653E0
7.182378969E0,2.116360068E-1,2.110088110E0,-2.835004091E0,3.540410969E0
7.187301442E0,1.302559972E-1,2.317766905E0,-3.758482933E0,4.417601613E0
7.192223598E0,3.210100159E-2,2.583772898E0,-4.492582798E0,5.182683963E0
7.197145824E0,-6.819800287E-2,2.843930006E0,-5.153842926E0,5.886823061E0
7.202068207E0,-1.665930003E-1,3.070036888E0,-5.810638905E0,6.573918482E0
7.206990444E0,-1.442569941E-1,3.245901108E0,-6.308698177E0,7.096221303E0
7.211912904E0,-1.765349954E-1,3.388766050E0,-6.853077888E0,7.647194028E0
7.216835291E0,-2.638710141E-1,3.527544022E0,-7.596333027E0,8.379586517E0
7.221757472E0,-3.940419853E-1,3.683507919E0,-8.526106834E0,9.296128088E0
7.226679932E0,-5.374580026E-1,3.804228067E0,-9.330821991E0,1.009084988E1
7.231602394E0,-5.921829939E-1,3.904648066E0,-1.003177357E1,1.078116126E1
7.236524549E0,-5.347300172E-1,3.918642998E0,-1.048271465E1,1.120397276E1
7.241447009E0,-2.832100093E-1,3.823682070E0,-1.067394161E1,1.134168339E1
7.246369242E0,-1.779500023E-2,3.645555019E0,-1.063420582E1,1.124174014E1
7.251291363E0,1.604360044E-1,3.465549946E0,-1.045925903E1,1.101961323E1
7.256213745E0,2.574110031E-1,3.240801096E0,-1.017767715E1,1.068429522E1
7.261135963E0,2.572109997E-1,2.976474047E0,-9.727068901E0,1.017553068E1
7.266058346E0,2.301010042E-1,2.639827967E0,-9.052263260E0,9.432131694E0
7.270980792E0,2.083349973E-1,2.273097038E0,-8.095758438E0,8.411401685E0
7.275903025E0,1.996079981E-1,1.891756058E0,-7.001197815E0,7.255022755E0
7.280825179E0,1.891810000E-1,1.520298958E0,-5.986430168E0,6.179356320E0
7.285747609E0,1.014920026E-1,1.215177059E0,-5.125374794E0,5.268436456E0
7.290669994E0,8.354000002E-2,9.578210115E-1,-4.389664173E0,4.493723576E0
7.295592227E0,4.498700052E-2,6.996049881E-1,-3.942105055E0,4.003955948E0
7.300514667E0,-1.375100017E-2,5.404539704E-1,-3.947890997E0,3.984736241E0
7.305436823E0,-1.798399985E-1,4.413670003E-1,-4.349563122E0,4.375596714E0
7.310359283E0,-3.261460066E-1,4.174669981E-1,-4.869316101E0,4.898049531E0
7.315281672E0,-4.210090041E-1,4.099340141E-1,-5.361081123E0,5.393188787E0
7.320203828E0,-5.359600186E-1,4.128679931E-1,-5.837051868E0,5.876128627E0
7.325126264E0,-5.697829723E-1,3.839580119E-1,-6.378573895E0,6.415472026E0
7.330048420E0,-4.643769860E-1,3.341299891E-1,-6.918341160E0,6.941954569E0
7.334970879E0,-3.225120008E-1,2.888300121E-1,-7.410750866E0,7.423386368E0
7.339893035E0,-1.532869935E-1,2.875899971E-1,-7.774573803E0,7.781401077E0
7.344815495E0,3.381000087E-2,3.983519971E-1,-7.960526943E0,7.970559368E0
7.349737732E0,1.735579967E-1,5.377600193E-1,-8.043785095E0,8.063608800E0
7.354660192E0,1.661459953E-1,6.720269918E-1,-8.023328781E0,8.053137867E0
7.359582348E0,7.466500252E-2,8.076310158E-1,-7.928584099E0,7.969961639E0
7.364504778E0,3.149800003E-2,9.048399925E-1,-7.719414234E0,7.772328072E0
7.369427163E0,5.756000057E-3,9.401310086E-1,-7.364887238E0,7.424651067E0
7.374349396E0,-7.568299770E-2,9.365929961E-1,-6.978747845E0,7.041722505E0
7.379271763E0,-2.209559977E-1,8.777700067E-1,-6.584930897E0,6.646850130E0
7.384193996E0,-3.188030124E-1,8.721529841E-1,-6.230760098E0,6.299575984E0
7.389116160E0,-3.511649966E-1,8.714820147E-1,-5.927473068E0,6.001477712E0
7.394038543E0,-3.146809936E-1,9.007689953E-1,-5.691180229E0,5.770610133E0
7.398960780E0,-3.389880061E-1,9.936689734E-1,-5.469126225E0,5.568988468E0
7.403883240E0,-5.156970024E-1,1.089112997E0,-5.275772095E0,5.411643162E0
7.408805415E0,-7.066149712E-1,1.155200958E0,-5.098883152E0,5.275642460E0
7.413727874E0,-8.115720153E-1,1.156098962E0,-5.040239811E0,5.234427504E0
7.418650259E0,-8.858780265E-1,1.239946961E0,-5.100815773E0,5.323586187E0
7.423572492E0,-9.971960187E-1,1.353896022E0,-5.316545963E0,5.576118302E0
7.428494951E0,-1.086169004E0,1.480919957E0,-5.557722092E0,5.853303501E0
7.433417338E0,-1.076591015E0,1.587192059E0,-5.699416161E0,6.013449211E0
7.438339569E0,-1.047518015E0,1.670683980E0,-5.686397076E0,6.018603713E0
7.443261951E0,-1.061076045E0,1.696552992E0,-5.600238800E0,5.947003367E0
7.448184141E0,-1.173007011E0,1.714342952E0,-5.546903133E0,5.923094763E0
7.453106370E0,-1.321243048E0,1.786723018E0,-5.522062778E0,5.952414608E0
7.458028832E0,-1.490018964E0,1.932528973E0,-5.535700798E0,6.049694874E0
7.462951216E0,-1.635897994E0,2.064574957E0,-5.626195908E0,6.212303308E0
7.467873449E0,-1.688011050E0,2.121340990E0,-5.671148777E0,6.285809204E0
7.472795832E0,-1.672950029E0,2.137631893E0,-5.524291992E0,6.155163193E0
7.477718064E0,-1.682574987E0,2.117117882E0,-5.207318783E0,5.867658444E0
7.482640480E0,-1.572525024E0,2.107609034E0,-4.810842037E0,5.482613601E0
7.487562713E0,-1.362990975E0,2.109940052E0,-4.195684910E0,4.890129169E0
7.492485172E0,-1.172629952E0,2.150616884E0,-3.409878969E0,4.198510280E0
7.497407649E0,-1.099534035E0,2.186892986E0,-2.530498028E0,3.520638620E0
7.502329805E0,-1.271188974E0,2.204624891E0,-1.596755028E0,3.004316717E0
7.507252187E0,-1.638932943E0,2.076124907E0,-5.710639954E-1,2.706013656E0
7.512174328E0,-2.047573090E0,1.822321057E0,8.908240199E-1,2.882182685E0
7.517096557E0,-2.231106043E0,1.556141019E0,2.762408018E0,3.876894002E0
7.522019024E0,-2.415250063E0,1.378455997E0,4.904364109E0,5.637939439E0
7.526941408E0,-2.718411922E0,1.282879949E0,7.091310024E0,7.702092067E0
7.531863655E0,-2.959830999E0,1.085116982E0,9.594038963E0,1.009869606E1
7.536786038E0,-2.979875088E0,7.304620147E-1,1.237009430E1,1.274489950E1
7.541708270E0,-2.940007925E0,4.269289970E-1,1.500830841E1,1.529951752E1
7.546630639E0,-3.010391951E0,3.978500068E-1,1.681769371E1,1.708963329E1
7.551552872E0,-3.205673933E0,6.970880032E-1,1.753629684E1,1.784051524E1
7.556475331E0,-3.391732931E0,1.062595963E0,1.753733444E1,1.789388336E1
7.561397807E0,-3.602983952E0,1.296259999E0,1.724537277E1,1.766535212E1
7.566319963E0,-4.013862133E0,1.145311952E0,1.693253136E1,1.743942220E1
7.571242345E0,-4.541044235E0,5.054699779E-1,1.667951965E1,1.729401511E1
7.576164573E0,-5.003324032E0,-3.591200113E-1,1.625498199E1,1.701136850E1
7.581087033E0,-5.367115974E0,-1.060282946E0,1.562414932E1,1.655427968E1
7.586009175E0,-5.565667152E0,-1.289391994E0,1.483176327E1,1.589403612E1
7.590931557E0,-5.479922771E0,-1.193943977E0,1.423907757E1,1.530380298E1
7.595853790E0,-4.916134834E0,-9.436690211E-1,1.400894070E1,1.487646841E1
7.600776192E0,-3.858437061E0,-6.990929842E-1,1.415582275E1,1.468889327E1
7.605698424E0,-2.539249897E0,-4.613850117E-1,1.454074860E1,1.476800717E1
7.610620807E0,-1.321532011E0,-1.668729931E-1,1.487846756E1,1.493797478E1
7.615543040E0,-4.240959883E-1,2.500900030E-1,1.514704514E1,1.515504466E1
7.620465499E0,4.401599988E-2,7.683770061E-1,1.534864330E1,1.536792738E1
7.625387886E0,1.714189947E-1,1.213582993E0,1.556230927E1,1.561049768E1
7.630310074E0,-7.874500006E-2,1.475849986E0,1.583045006E1,1.589929190E1
7.635232533E0,-5.781720281E-1,1.495561957E0,1.594161415E1,1.602204888E1
7.640154915E0,-1.095841050E0,1.352498055E0,1.550407505E1,1.560148909E1
7.645077146E0,-1.393566012E0,1.203856945E0,1.447574615E1,1.459241325E1
7.649999528E0,-1.548509002E0,1.071249962E0,1.293894100E1,1.307523043E1
7.654921698E0,-1.571987033E0,9.008060098E-1,1.098053074E1,1.112900040E1
7.659843927E0,-1.462234020E0,7.909280062E-1,8.794819832E0,8.950561508E0
7.664766312E0,-1.328755975E0,7.366300225E-1,6.556616783E0,6.730337278E0
7.669688808E0,-1.272999048E0,6.878020167E-1,4.452387810E0,4.681597526E0
7.674611041E0,-1.240466952E0,6.665149927E-1,2.510363102E0,2.878354287E0
7.679533424E0,-1.205054045E0,7.340289950E-1,8.328480124E-1,1.638471736E0
7.684455890E0,-1.245972991E0,8.423029780E-1,-6.478779912E-1,1.637580194E0
7.689378123E0,-1.104982972E0,1.061401010E0,-1.649909973E0,2.251613286E0
7.694300506E0,-8.520810008E-1,1.371538043E0,-2.224000931E0,2.748333818E0
7.699222718E0,-5.221809745E-1,1.734617949E0,-2.633755922E0,3.196598607E0
7.704144872E0,-1.729059964E-1,2.129780054E0,-2.946216106E0,3.639512180E0
7.709067222E0,1.294420063E-1,2.491116047E0,-3.244988918E0,4.092965608E0
7.713989455E0,3.174000084E-1,2.819603920E0,-3.596858978E0,4.581299329E0
7.718911856E0,5.218589902E-1,3.159451008E0,-3.922578096E0,5.063702835E0
7.723834089E0,7.638859749E-1,3.475967884E0,-4.212416172E0,5.514555696E0
7.728756491E0,1.014842987E0,3.722198963E0,-4.538146973E0,5.956462822E0
7.733678877E0,1.210546970E0,3.872720003E0,-4.880615234E0,6.346951178E0
7.738601108E0,1.325505018E0,3.875067949E0,-5.225743771E0,6.639391020E0
7.743523481E0,1.397946000E0,3.800971031E0,-5.587391853E0,6.900766734E0
7.748445942E0,1.399646997E0,3.692003012E0,-5.953447819E0,7.143769235E0
7.753368175E0,1.378635049E0,3.493029118E0,-6.251831055E0,7.292960891E0
7.758290553E0,1.311671972E0,3.258335114E0,-6.496741772E0,7.385450881E0
7.763212785E0,1.218178034E0,2.937221050E0,-6.755064964E0,7.466065088E0
7.768134910E0,1.141180992E0,2.572153091E0,-7.017127037E0,7.560313316E0
7.773057293E0,1.121374011E0,2.231494904E0,-7.234990120E0,7.653896473E0
7.777979526E0,1.142410040E0,1.938092947E0,-7.387076855E0,7.722059921E0
7.782901990E0,1.176766992E0,1.720818043E0,-7.490159035E0,7.774861906E0
7.787824375E0,1.164927006E0,1.500054002E0,-7.501192093E0,7.737900216E0
7.792746627E0,1.135257006E0,1.312208056E0,-7.456203938E0,7.655434384E0
7.797669009E0,1.025954008E0,1.061086059E0,-7.393712044E0,7.539593029E0
7.802591242E0,8.726320267E-1,8.511260152E-1,-7.347454071E0,7.447884497E0
7.807513606E0,7.389780283E-1,6.156700253E-1,-7.394165993E0,7.456462220E0
7.812436067E0,6.054409742E-1,3.971900046E-1,-7.502805233E0,7.537665755E0
7.817358300E0,4.322420061E-1,1.467880011E-1,-7.635250092E0,7.648883829E0
7.822280683E0,3.124929965E-1,-8.048900217E-2,-7.805796146E0,7.812463365E0
7.827202915E0,2.726159990E-1,-2.456170022E-1,-7.916082859E0,7.924582956E0
7.832125298E0,2.368959934E-1,-3.763709962E-1,-8.061673164E0,8.073930211E0
7.837047541E0,1.762190014E-1,-4.901629984E-1,-8.235219955E0,8.251676231E0
7.841969923E0,1.224370003E-1,-5.693749785E-1,-8.438787460E0,8.458859999E0
7.846892156E0,7.996699959E-2,-6.206189990E-1,-8.626588821E0,8.649254150E0
7.851814539E0,7.144799829E-2,-6.644650102E-1,-8.774533272E0,8.799946176E0
7.856736772E0,4.905200005E-2,-7.132470012E-1,-8.842295647E0,8.871150979E0
7.861659149E0,2.639400028E-2,-7.670350075E-1,-8.909040451E0,8.942037861E0
7.866581382E0,-1.604099944E-2,-8.280820251E-1,-8.884407997E0,8.922930158E0
7.871503765E0,-3.051000088E-2,-8.762900233E-1,-8.780774117E0,8.824443844E0
7.876426197E0,-1.036359966E-1,-9.186360240E-1,-8.596616745E0,8.646181355E0
7.881348430E0,-2.303919941E-1,-9.706749916E-1,-8.394927979E0,8.453999419E0
7.886270813E0,-3.106319904E-1,-9.707369804E-1,-8.166207314E0,8.229566477E0
7.891193035E0,-3.735530078E-1,-9.623140097E-1,-7.927317142E0,7.994244629E0
7.896115418E0,-4.556950033E-1,-9.407280087E-1,-7.697432041E0,7.768081304E0
7.901037666E0,-6.053659916E-1,-8.926389813E-1,-7.383568764E0,7.461927367E0
7.905959820E0,-8.200989962E-1,-8.720359802E-1,-7.055243015E0,7.156078753E0
7.910882284E0,-1.087190032E0,-8.429309726E-1,-6.810297966E0,6.947853854E0
7.915804669E0,-1.333245993E0,-8.267179728E-1,-6.626546860E0,6.809708567E0
7.920726902E0,-1.491299987E0,-8.024849892E-1,-6.457533836E0,6.675904512E0
7.925649269E0,-1.558387995E0,-8.381339908E-1,-6.281013012E0,6.525501221E0
7.930571502E0,-1.589632034E0,-8.692809939E-1,-6.115698814E0,6.378428603E0
7.935493885E0,-1.625342965E0,-9.519060254E-1,-5.951770782E0,6.242710972E0
7.940416427E0,-1.691773057E0,-1.049450040E0,-5.800886154E0,6.133002661E0
7.945338660E0,-1.841336966E0,-1.119192958E0,-5.574112892E0,5.976106528E0
7.950261043E0,-1.951465011E0,-1.137542009E0,-5.311436176E0,5.771791036E0
7.955183485E0,-1.917729020E0,-1.167767048E0,-4.828080177E0,5.324633572E0
7.960105718E0,-1.642613053E0,-1.198712945E0,-4.044895172E0,4.527280345E0
7.965028100E0,-1.304756999E0,-1.226688981E0,-3.220922947E0,3.685308849E0
7.969950265E0,-1.129250050E0,-1.231570959E0,-2.565237999E0,3.061440624E0
7.974872496E0,-1.739941955E0,-1.275395036E0,-2.143552065E0,3.041191536E0
7.979794879E0,-1.571684003E0,-1.179626942E0,-2.019366980E0,2.817721300E0
7.984717374E0,-7.751870155E-1,-9.138069749E-1,-1.675639987E0,2.060030937E0
7.989639607E0,-8.899220228E-1,-6.127200127E-1,-1.497941017E0,1.846947295E0
7.994562004E0,-1.497575045E0,-3.434849977E-1,-1.422449946E0,2.093818714E0
7.999484236E0,-1.698230028E0,-9.031999856E-2,-1.171151996E0,2.064882546E0
8.004406619E0,-1.775244951E0,1.583520025E-1,-6.020470262E-1,1.881231144E0
8.009329076E0,-1.919666052E0,2.085720003E-1,3.496440053E-1,1.962363616E0
8.014251308E0,-2.304538965E0,1.362019926E-1,1.698225021E0,2.865906322E0
8.019173691E0,-2.760871887E0,8.781199902E-2,3.479752064E0,4.442836813E0
8.024095857E0,-2.912323952E0,6.900800020E-2,5.531755924E0,6.251937021E0
8.029018088E0,-2.649983883E0,1.643739939E-1,7.880734921E0,8.315973562E0
8.033940470E0,-2.161796093E0,2.990809977E-1,1.057398796E1,1.079685293E1
8.038862937E0,-1.653478980E0,5.750690103E-1,1.324668694E1,1.336186409E1
8.043785093E0,-1.176326036E0,8.740199804E-1,1.532356834E1,1.539348566E1
8.048707348E0,-8.368499875E-1,1.003479004E0,1.695306396E1,1.700334278E1
8.053629730E0,-7.147150040E-1,1.102563024E0,1.831838608E1,1.836544939E1
8.058552192E0,-5.946840048E-1,9.966499805E-1,1.915556908E1,1.919069532E1
8.063474433E0,-4.358589947E-1,9.559339881E-1,1.815837479E1,1.818874261E1
8.068396893E0,-1.004816055E0,1.213106990E0,1.575306034E1,1.583162007E1
8.073319280E0,-2.316972017E0,1.494627953E0,1.444466114E1,1.470545843E1
8.078241520E0,-3.747951031E0,1.533501983E0,1.525079155E1,1.577927147E1
8.083163903E0,-4.931144238E0,1.279286981E0,1.726767159E1,1.800347857E1
8.088086074E0,-5.399608135E0,8.077309728E-1,1.940906906E1,2.016234508E1
8.093008303E0,-4.969595909E0,2.862719893E-1,2.099018288E1,2.157235760E1
8.097930692E0,-4.031470776E0,1.479000039E-2,2.169747925E1,2.206883733E1
8.102852925E0,-3.088746071E0,2.246060073E-1,2.163279343E1,2.185334189E1
8.107775385E0,-2.162537098E0,8.630700111E-1,2.109490204E1,2.122301460E1
8.112697560E0,-1.466524959E0,1.630854011E0,2.047074890E1,2.058790764E1
8.117619942E0,-1.246577978E0,2.229041100E0,1.981816292E1,1.998204600E1
8.122542404E0,-1.389083982E0,2.462380886E0,1.914141464E1,1.934907306E1
8.127464670E0,-1.628095984E0,2.224788904E0,1.844910431E1,1.865394950E1
