"Time (s)","Linear Acceleration x (m/s^2)","Linear Acceleration y (m/s^2)","Linear Acceleration z (m/s^2)","Absolute acceleration (m/s^2)"
1.793571800E-2,-1.044860721E0,1.385962367E0,-6.121101379E-1,1.840463102E0
3.475859200E-2,-6.394304633E-1,1.605072021E0,-5.324068069E-1,1.807922708E0
5.157252400E-2,-4.829427898E-1,1.665249944E0,-1.599035263E-1,1.741223780E0
6.838223700E-2,-2.522488236E-1,1.430040717E0,3.187189102E-1,1.486683445E0
8.518036100E-2,-1.800127029E-1,1.295554399E0,-2.221202850E-1,1.326726496E0
1.019935720E-1,-6.812829971E-1,1.830911875E0,-2.585258484E-1,1.970588854E0
1.187916060E-1,-9.458302259E-1,2.247838020E0,-5.836486816E-2,2.439421456E0
1.356040320E-1,-5.162374973E-1,1.995096445E0,-2.073516846E-1,2.071208753E0
1.524188720E-1,-2.180208862E-1,1.524442196E0,-5.988245010E-1,1.652285659E0
1.692216460E-1,1.838714480E-1,9.993422031E-1,-3.385171890E-1,1.071021678E0
1.860283660E-1,2.651730776E-1,6.865705848E-1,1.395196915E-1,7.491072508E-1
2.028375180E-1,-1.217160597E-1,1.133895516E0,2.618694305E-1,1.170089501E0
2.196432830E-1,-2.966610193E-1,1.541244745E0,5.308265686E-1,1.656870535E0
2.364518450E-1,-3.374884427E-1,1.541380167E0,3.417844772E-1,1.614486884E0
2.532584130E-1,-3.282706738E-1,1.370263577E0,-1.223850250E-2,1.409089665E0
2.700656010E-1,-7.002024353E-2,9.723389745E-1,3.662967682E-1,1.041402534E0
2.868739090E-1,2.161941826E-1,8.067609668E-1,1.426817894E0,1.653303507E0
3.036818710E-1,6.180145741E-1,2.003031969E-1,2.146450043E0,2.242612577E0
3.204882350E-1,7.997735143E-1,-4.496142566E-1,1.742608070E0,1.969384051E0
3.372968890E-1,3.715734482E-1,-1.874511838E-1,6.070165634E-1,7.359849740E-1
3.541041290E-1,-7.462048531E-2,4.808084369E-1,-5.412216187E-1,7.277814303E-1
3.709067190E-1,4.483497143E-2,2.493242621E-1,-1.090812683E-1,2.758105971E-1
3.877209980E-1,7.995894551E-1,-9.270333648E-1,7.739210129E-1,1.448339701E0
4.045290220E-1,1.168801785E0,-1.990226865E0,1.103157043E0,2.558135268E0
4.213341040E-1,1.244506359E0,-2.617287874E0,9.107570648E-1,3.037839747E0
4.381298090E-1,8.898223639E-1,-2.420870066E0,-1.668262482E-2,2.579277811E0
4.549491010E-1,3.938449919E-1,-1.577800393E0,-1.069195747E0,1.946213633E0
4.717556090E-1,2.715498209E-1,-8.790574074E-1,-1.556689262E0,1.808248515E0
4.885577630E-1,8.177866936E-1,-3.473677039E-1,-1.620817184E0,1.848374352E0
5.053569250E-1,1.201921225E0,9.052187204E-2,-9.952116013E-1,1.563091479E0
5.221790670E-1,1.290301085E0,2.242112160E-2,1.468143463E-1,1.298820252E0
5.389965920E-1,1.308109045E0,-6.675509810E-1,1.693517685E0,2.241601154E0
5.557925390E-1,1.267280340E0,-1.670239210E0,1.989206314E0,2.890093466E0
5.726030750E-1,1.029508710E0,-1.687564373E0,8.714361191E-1,2.160361684E0
5.894074870E-1,7.568759918E-1,-9.966827035E-1,-9.667406082E-1,1.581399722E0
6.062156510E-1,5.894213915E-1,2.253340781E-1,-2.053756237E0,2.148512905E0
6.230207450E-1,3.414582014E-1,1.183706760E0,-2.313864231E0,2.621397161E0
6.398309130E-1,4.527980387E-1,1.504128695E0,-1.560940742E0,2.214489827E0
6.566380410E-1,7.459619045E-1,1.347272277E0,-3.994989395E-1,1.590974907E0
6.734449860E-1,7.977298498E-1,1.041841269E0,3.855895996E-2,1.312742524E0
6.902507910E-1,4.627623856E-1,8.303730488E-1,-4.425334930E-2,9.516442532E-1
7.070588440E-1,2.172014415E-1,7.719054222E-1,-5.681991577E-3,8.019019467E-1
7.238677630E-1,-7.606208324E-3,7.328442335E-1,1.281833649E-2,7.329957945E-1
7.406749100E-1,-2.878315449E-1,7.764617801E-1,-8.114337921E-2,8.320601794E-1
7.574785900E-1,-5.753069520E-1,1.061362267E0,-1.560306549E-2,1.207357199E0
7.742893400E-1,-8.854796886E-1,1.232656717E0,-3.701791763E-1,1.562225811E0
7.910952870E-1,-9.737185240E-1,1.227670908E0,-4.848146439E-1,1.640228295E0
8.079043780E-1,-8.502878547E-1,1.051143885E0,-3.546180725E-1,1.397729187E0
8.247106290E-1,-1.060793638E0,1.199403048E0,-2.849369049E-1,1.626357849E0
8.415243400E-1,-1.197889090E0,1.705013275E0,-2.021503448E-2,2.083846728E0
8.583274080E-1,-1.026154518E0,1.987887740E0,-1.237726212E-1,2.240537977E0
8.751341380E-1,-1.011434913E0,1.595502853E0,2.480525970E-1,1.905297884E0
8.919401370E-1,-9.983149767E-1,7.050453424E-1,1.158463478E0,1.683971305E0
9.087484760E-1,-9.107488394E-1,2.091567516E-1,1.886192322E0,2.104977784E0
9.255449530E-1,-9.462220073E-1,2.188286781E-1,1.875727654E0,2.112244377E0
9.423637180E-1,-1.090072632E0,4.016559124E-1,1.697764397E0,2.057180051E0
9.591699810E-1,-1.092136383E0,7.643997669E-1,1.718946457E0,2.175280627E0
9.759788790E-1,-6.923315525E-1,1.063628793E0,2.430294991E0,2.741708031E0
9.927887830E-1,-2.059476674E-1,1.147374392E0,2.848886490E0,3.078154751E0
1.009591527E0,3.520763218E-1,6.562402844E-1,4.071456909E0,4.139005969E0
1.026388604E0,1.191208720E0,-3.416907787E-2,4.969657898E0,5.110542570E0
1.043213686E0,1.750301480E0,-3.350636959E-1,4.593784332E0,4.927339794E0
1.060012125E0,7.371067405E-1,-7.998951674E-1,3.405058861E0,3.574574726E0
1.076816711E0,-3.927159309E-1,-2.328404665E0,1.302803993E0,2.696848593E0
1.093635965E0,-4.463914037E-1,-3.912339687E0,-3.100214005E-1,3.949908908E0
1.110436774E0,1.795209050E-1,-4.669948101E0,-1.499124527E0,4.907954500E0
1.127247066E0,6.371718645E-1,-4.088191032E0,-2.646000385E0,4.911273963E0
1.144048182E0,8.600316644E-1,-2.818612099E0,-3.699582577E0,4.729813936E0
1.160862216E0,9.778112173E-1,-1.745813370E0,-4.395210743E0,4.829270812E0
1.177668073E0,1.100739479E0,-1.103105545E0,-4.488967419E0,4.751767853E0
1.194475242E0,1.171200871E0,-7.586778402E-1,-4.103623867E0,4.334401042E0
1.211283741E0,8.296499848E-1,-6.497176886E-1,-3.329962254E0,3.492721114E0
1.228090422E0,6.669021845E-1,-5.561038256E-1,-2.717012882E0,2.852397060E0
1.244884325E0,3.349040747E-1,-4.648421705E-1,-2.249423027E0,2.321237372E0
1.261705653E0,-6.943216920E-2,-6.887623072E-1,-1.737445831E0,1.870276011E0
1.278514186E0,-3.479919434E-1,-9.133049250E-1,-1.471751213E0,1.766713308E0
1.295320753E0,-3.920687437E-1,-7.102053761E-1,-8.461008072E-1,1.172175820E0
1.312126894E0,-1.541625559E-1,-3.055500984E-2,-2.209930420E-1,2.711782198E-1
1.328933340E0,2.247346044E-1,1.098315477E0,3.303794861E-1,1.168739978E0
1.345740579E0,4.250966907E-1,2.178089380E0,7.215414047E-1,2.333538631E0
1.362562946E0,2.715903521E-1,2.999846935E0,1.387243271E0,3.316215742E0
1.379344653E0,3.673782945E-1,2.769146204E0,2.134380341E0,3.515496686E0
1.396162360E0,5.196909904E-1,1.974587202E0,1.860806465E0,2.762548469E0
1.412965967E0,4.459607005E-1,1.492011666E0,9.859848022E-1,1.843134772E0
1.429780317E0,2.515199482E-1,1.684561253E0,5.526771545E-1,1.790659358E0
1.446594922E0,1.702071726E-2,1.822433352E0,7.250099182E-1,1.961426117E0
1.463392122E0,-3.564205766E-1,1.743509531E0,5.443572998E-3,1.779576001E0
1.480218566E0,-7.614097595E-1,1.566410899E0,-1.009955406E0,2.013305205E0
1.497009164E0,-1.081642032E0,1.635779023E0,-2.035576344E0,2.826533840E0
1.513808347E0,-1.174906254E0,2.093633413E0,-2.305225372E0,3.328328348E0
1.530619482E0,-1.350667715E0,2.349297285E0,-1.213511467E0,2.969193677E0
1.547434687E0,-1.182096124E0,2.346979380E0,-4.942293167E-1,2.673934568E0
1.564241754E0,-1.014541984E0,2.219889164E0,9.671745300E-1,2.625381860E0
1.581043643E0,-7.946473956E-1,1.671900034E0,2.607443810E0,3.197730043E0
1.597850810E0,-2.079578638E-1,7.567775846E-1,3.696418762E0,3.778818658E0
1.614655985E0,1.190182567E-1,-7.938337326E-2,3.510340691E0,3.513254735E0
1.631465819E0,1.697578192E0,-2.152924776E0,5.007094383E0,5.708576966E0
1.648278124E0,2.485490799E0,-3.337786198E0,5.635556221E0,7.005567438E0
1.665082331E0,2.068078279E0,-2.921875954E0,4.884517670E0,6.055808759E0
1.681887924E0,3.718090653E-1,-1.753188968E0,3.951043129E0,4.338508424E0
1.698700138E0,-1.924521625E-1,-2.029388905E0,4.909286499E0,5.315689145E0
1.715503359E0,5.190473795E-1,-2.667530775E0,2.735373497E0,3.855826602E0
1.732318482E0,1.184579730E0,-2.801038504E0,9.609041214E-1,3.189417277E0
1.749117382E0,2.341154814E0,-3.943461895E0,3.417682648E-2,4.586182032E0
1.765927590E0,2.774391651E0,-4.262680054E0,-3.169728756E0,5.992901690E0
1.782734739E0,1.267053485E0,-3.619156599E0,-3.064547062E0,4.908682890E0
1.799530565E0,2.402053595E0,-2.780723095E0,-5.692433834E0,6.775402966E0
1.816352300E0,2.317473412E0,-4.365406036E0,-2.641721249E0,5.604118488E0
1.833155420E0,1.625305563E-1,-4.696105003E0,-2.279154301E0,5.222486258E0
1.849963493E0,-3.972921968E-1,-2.852801561E0,-2.298207760E0,3.684844196E0
1.866772126E0,-6.499565244E-1,-3.018209696E0,-3.640108585E0,4.773093731E0
1.883582164E0,5.202343464E-1,7.156566620E0,-2.017076015E0,7.453568623E0
1.900373899E0,3.081269741E0,6.758184910E0,-3.964984417E0,8.419524210E0
1.917195066E0,2.366997719E0,5.512013435E0,-2.388854027E0,6.456902808E0
1.934003639E0,4.542337656E-1,3.768086910E0,-1.370991707E0,4.035396577E0
1.950800297E0,-1.864290953E0,-9.920085073E-1,1.802906990E0,2.776713030E0
1.967597813E0,7.245841026E-1,-1.396198034E0,-1.328359604E0,2.058866268E0
1.984423312E0,-2.367404103E-2,-4.950073063E-1,-4.790334702E-1,6.892501426E-1
2.001220033E0,-4.202269018E-1,-7.083557248E-1,1.556129456E-1,8.381967971E-1
2.018036326E0,-8.386721015E-1,-5.417060852E-2,-2.579802990E0,2.713243228E0
2.034848489E0,4.140093029E-1,1.553683043E0,1.453208923E-1,1.614451257E0
2.051653359E0,1.307841778E0,3.234690905E0,1.586535454E0,3.832854042E0
2.068462765E0,1.640336156E0,1.550879836E0,1.860679626E0,2.925416149E0
2.085266830E0,6.021984816E-1,8.772252202E-1,4.503059387E-1,1.155397134E0
2.102077366E0,-7.337452769E-1,2.049426794E0,2.504081726E-1,2.191172419E0
2.118879885E0,1.253358245E0,1.148318768E0,1.925497055E0,2.568478497E0
2.135694713E0,4.259099662E-1,9.483733773E-2,-1.826222897E0,1.877627090E0
2.152499786E0,-9.040360451E-1,2.408128500E0,-1.104117393E0,2.799185464E0
2.169305531E0,5.510348678E-1,1.936968565E0,-6.817626953E-2,2.014977581E0
2.186113390E0,3.478971720E-1,-4.713764787E-1,9.461803436E-1,1.112872621E0
2.202922085E0,-8.566730022E-1,-2.789735794E-1,2.481393814E-1,9.344988194E-1
2.219728612E0,-4.172545075E-1,-1.426455677E-1,1.743402481E-1,4.741767647E-1
2.236526574E0,2.934409678E-1,2.872396708E-1,1.358773232E0,1.419464309E0
2.253341027E0,1.168578386E0,2.868757844E-1,2.183578491E0,2.493168303E0
2.270153301E0,1.822481155E0,1.170316696E0,1.506340981E0,2.638208081E0
2.286958161E0,2.664245605E0,1.455830932E0,2.685178757E0,4.053126362E0
2.303765929E0,2.482479334E0,5.276761055E-1,3.638577461E0,4.436258745E0
2.320576210E0,1.145990133E0,-9.802788496E-1,3.900697708E0,4.182066788E0
2.337383063E0,2.318508625E-1,-3.507594824E0,3.407876015E0,4.895977451E0
2.354184729E0,-1.181245327E0,-3.933877468E0,2.372199059E0,4.743212079E0
2.370996077E0,-1.363340378E0,-3.963102102E0,2.596540451E-1,4.199082695E0
2.387803521E0,-1.068463087E0,-3.170233727E0,-1.893748760E0,3.844252803E0
2.404610760E0,-3.519656062E-1,-2.751254320E0,-2.626824379E0,3.820142202E0
2.421409852E0,4.761391878E-1,-1.080724120E0,-2.439843178E0,2.710628688E0
2.438224608E0,1.087941766E0,-4.448520541E-1,-2.505824089E0,2.767790635E0
2.455047655E0,1.278075576E0,-3.470994830E-1,-2.384625912E0,2.727708923E0
2.471840461E0,1.645855665E0,-2.678633630E-1,-2.057711124E0,2.648540489E0
2.488646215E0,1.881386995E0,1.846815944E-1,-1.711281776E0,2.549943065E0
2.505455530E0,1.904897928E0,6.290511489E-1,-1.656346321E0,2.601504296E0
2.522258497E0,1.539473653E0,7.560449243E-1,-1.142127037E0,2.060591474E0
2.539066419E0,9.328818321E-1,6.546004415E-1,-1.029268265E0,1.535631275E0
2.555878469E0,2.688912153E-1,8.377091885E-1,-1.322596550E0,1.588496397E0
2.572682748E0,1.073904037E-1,6.526567340E-1,-1.631130219E0,1.760136160E0
2.589494058E0,-6.886470318E-2,4.719713628E-1,-1.122560501E0,1.219689056E0
2.606297146E0,3.922951221E-2,3.005616665E-1,-2.642717361E-1,4.021390562E-1
2.623109025E0,1.087681055E-1,1.153641790E-1,1.279020309E-1,2.037113745E-1
2.639913537E0,1.304116249E-1,3.977041245E-1,8.797073364E-2,4.276851792E-1
2.656722791E0,6.771695614E-2,6.609466076E-1,-6.918811798E-2,6.679992514E-1
2.673527976E0,2.212005854E-1,5.260426402E-1,-6.651687622E-2,5.745215863E-1
2.690332693E0,2.421659231E-1,6.743170023E-1,-3.307638168E-1,7.891466634E-1
2.707153910E0,4.241935015E-1,1.124222279E0,-4.754304886E-1,1.292226763E0
2.723945829E0,5.541391969E-1,1.285329580E0,-6.858854294E-1,1.558711391E0
2.740758409E0,4.953666329E-1,9.580020308E-1,-1.201438904E0,1.614500366E0
2.757569687E0,3.621733189E-1,1.204377174E0,-1.391226768E0,1.875421503E0
2.774361242E0,6.388706565E-1,7.787776589E-1,-4.165306091E-1,1.090022067E0
2.791181023E0,4.669744968E-1,1.115338564E0,3.697128296E-1,1.264410087E0
2.807987968E0,4.359588623E-1,1.191125631E0,-6.777095795E-2,1.270209944E0
2.824797607E0,4.534275234E-1,1.217727900E0,-1.639280319E-1,1.309706133E0
2.841605905E0,5.589718819E-1,7.483757138E-1,9.722976685E-1,1.348287258E0
2.858410510E0,8.318160176E-1,-1.628082991E-2,2.363517761E0,2.505673395E0
2.875206784E0,8.690379262E-1,-6.092317104E-1,2.639587402E0,2.844962539E0
2.892026932E0,5.695210099E-1,-1.677019000E-1,1.633553505E0,1.738095268E0
2.908832565E0,2.118622065E-1,7.525250912E-1,3.117666245E-1,8.416519681E-1
2.925641075E0,1.544779539E-2,7.302525043E-1,1.280679703E-1,7.415583318E-1
2.942445661E0,4.137806296E-1,-2.637781501E-1,1.714395523E0,1.783240122E0
2.959259350E0,9.512911439E-1,-1.603556514E0,4.025881767E0,4.436673567E0
2.976050515E0,1.068965197E0,-2.657172680E0,5.269192696E0,5.997303136E0
2.992863381E0,6.294806004E-1,-3.153435707E0,3.698422432E0,4.900890845E0
3.009680884E0,9.843081236E-3,-2.756094456E0,4.765815735E-1,2.797013323E0
3.026469681E0,3.893199563E-2,-1.860929608E0,-1.783206940E0,2.577673699E0
3.043280685E0,3.902477920E-1,-1.128531456E0,-2.657531261E0,2.913477131E0
3.060105807E0,5.964473486E-1,-5.286728144E-1,-2.737653732E0,2.851314143E0
3.076902651E0,9.397935867E-1,-6.309415698E-1,-1.553291321E0,1.921981576E0
3.093728069E0,8.702966571E-1,-9.531923532E-1,-6.558380127E-1,1.447796751E0
3.110523172E0,8.049154282E-1,-1.501657248E0,-3.592758179E-1,1.741247383E0
3.127332263E0,6.981750131E-1,-1.105285883E0,-1.279000282E0,1.828919614E0
3.144139788E0,7.662688494E-1,-5.728019476E-1,-2.641633511E0,2.809536906E0
3.160944586E0,7.978017330E-1,-3.178160787E-1,-2.850503922E0,2.977056814E0
3.177753707E0,8.496704698E-1,-5.654014349E-1,-1.798792362E0,2.068156825E0
3.194556563E0,7.322359085E-1,-5.680340528E-1,-7.869777679E-1,1.215798552E0
3.211383811E0,7.430976033E-1,-4.835456014E-1,-5.509767532E-1,1.043832256E0
3.228174897E0,6.581192613E-1,3.098326325E-1,-8.521051407E-1,1.120357261E0
3.244977162E0,7.056649923E-1,7.543234229E-1,-8.117885590E-1,1.313760850E0
3.261789366E0,4.181314409E-1,6.527086496E-1,-1.383814812E0,1.586129224E0
3.278596097E0,3.314882219E-1,5.964981318E-1,-1.153161049E0,1.339953308E0
3.295407589E0,2.129518986E-1,5.992020965E-1,-8.157157898E-1,1.034303589E0
3.312212010E0,2.540290952E-1,2.778439522E-1,-3.357381821E-1,5.044285577E-1
3.329019616E0,5.670084953E-1,1.569346189E-1,1.836233139E-1,6.163153655E-1
3.345827638E0,3.413143456E-1,8.222647905E-1,1.182174683E-2,8.903676892E-1
3.362635265E0,-2.440440953E-1,1.866464734E0,-1.955299377E-1,1.892479876E0
3.379440826E0,-4.019268751E-1,2.301938534E0,-6.641435623E-1,2.429311198E0
3.396237761E0,-2.910164297E-1,1.684255362E0,-3.174419403E-1,1.738440701E0
3.413058581E0,-2.663636208E-2,6.994301677E-1,9.087371826E-2,7.058116519E-1
3.429852768E0,3.255447149E-1,-1.420369297E-1,1.748332977E-1,3.958794423E-1
3.446670445E0,7.152854204E-1,3.203423619E-1,-3.694524765E-1,8.664569198E-1
3.463469160E0,1.006251335E0,1.423097730E0,3.223552704E-1,1.772473362E0
3.480286145E0,1.151486993E0,1.429879665E0,1.324826241E0,2.263988233E0
3.497094961E0,1.534324408E0,2.514773607E-2,2.658989906E0,3.070018097E0
3.513897014E0,9.833303690E-1,-4.958197474E-1,3.076627731E0,3.267784270E0
3.530694171E0,7.738966942E-1,-1.829668581E-1,2.962848663E0,3.067713345E0
3.547520739E0,1.628740191E0,-5.468560457E-1,2.684285164E0,3.187041416E0
3.564327277E0,1.533329129E0,-6.395250559E-1,1.667376518E0,2.353770373E0
3.581126072E0,1.224005818E0,-5.577027798E-1,1.453445435E0,1.980334887E0
3.597944116E0,1.577423573E0,-1.296845555E0,2.161993027E0,2.973934661E0
3.614738375E0,1.707028270E0,-2.050579786E0,3.491935730E0,4.394591917E0
3.631562216E0,1.362750292E0,-2.468017340E0,2.885152817E0,4.033894486E0
3.648365316E0,9.485002756E-1,-2.881943941E0,4.037284851E-1,3.060759766E0
3.665169238E0,5.526688099E-1,-2.393347979E0,-2.478445530E0,3.489448324E0
3.681977597E0,3.620215654E-1,-1.198685765E0,-3.931313038E0,4.125909521E0
3.698781775E0,3.544526100E-1,-3.544858098E-1,-3.692353249E0,3.726227228E0
3.715595657E0,7.808673382E-1,-4.133654237E-1,-2.552366257E0,2.700962473E0
3.732398776E0,6.754033566E-1,-6.265265942E-1,-1.577221394E0,1.826563054E0
3.749208733E0,2.292745113E-1,-9.815373421E-1,-1.040842056E0,1.448908051E0
3.766012309E0,-1.735134125E-1,-1.239052176E0,-1.319267273E0,1.818192327E0
3.782808471E0,-4.077209234E-1,-9.771509171E-1,-1.446811676E0,1.792853673E0
3.799627440E0,-6.898807287E-1,-2.581080794E-1,-1.955015659E0,2.089172427E0
3.816436185E0,-1.061255455E0,6.676948667E-1,-2.294587135E0,2.614805862E0
3.833242061E0,-1.267469406E0,1.173541903E0,-1.783561707E0,2.482895821E0
3.850056034E0,-1.050262928E0,1.106971502E0,-1.852033138E0,2.399680160E0
3.866858046E0,-1.151016712E0,1.149374723E0,-1.569979668E0,2.260694115E0
3.883656548E0,-9.603123069E-1,1.557776928E0,-4.396610260E-1,1.882065488E0
3.900471833E0,-7.954206467E-1,2.008288860E0,2.278432846E-1,2.172056793E0
3.917295705E0,-7.103109360E-1,2.273724318E0,2.619199753E-1,2.396448616E0
3.934090168E0,-7.105574608E-1,1.832360864E0,-1.549663544E-1,1.971408839E0
3.950881161E0,-8.952152729E-1,1.365555644E0,-4.478740692E-2,1.633449881E0
3.967701016E0,-7.484630346E-1,1.043936372E0,2.705020905E-1,1.312696250E0
3.984518285E0,-4.250947237E-1,1.242353559E0,6.490306854E-1,1.464714552E0
4.001316339E0,-3.587938547E-1,1.702513456E0,5.740814209E-1,1.832172093E0
4.018126091E0,-6.563899517E-1,1.661969066E0,4.855899811E-1,1.851698294E0
4.034930929E0,-7.984584570E-1,1.340343595E0,3.018617630E-1,1.589080672E0
4.051743744E0,-7.200077772E-1,1.124032497E0,4.846744537E-1,1.420130128E0
4.068555257E0,-5.521309376E-1,9.018350840E-1,1.210264206E0,1.607138618E0
4.085356718E0,-4.038907886E-1,6.031713486E-1,1.981535912E0,2.110314672E0
4.102163499E0,-1.374398470E-1,4.317481518E-1,2.723172188E0,2.760609161E0
4.118957362E0,2.032870054E-1,3.767545223E-1,3.284069061E0,3.311854341E0
4.135777958E0,-7.321405411E-2,1.342890263E-1,2.986069679E0,2.989984276E0
4.152584120E0,-6.072154641E-1,-5.889773369E-3,2.173665047E0,2.256892785E0
4.169391603E0,-4.148952365E-1,-3.493213654E-1,1.962972641E0,2.036522787E0
4.186205241E0,3.553587198E-2,-1.142360210E0,2.432747841E0,2.687845179E0
4.203008472E0,4.465485215E-1,-2.317849874E0,3.119461060E0,3.911888409E0
4.219813341E0,6.636727452E-1,-2.840870857E0,2.926043510E0,4.131917154E0
4.236622483E0,1.528822780E-1,-2.956963062E0,2.095987320E0,3.627694363E0
4.253430629E0,2.815279365E-1,-3.044446945E0,5.236616135E-1,3.101956909E0
4.270238834E0,6.064669490E-1,-2.205798388E0,-1.283410072E0,2.623068833E0
4.287053236E0,4.690229893E-1,-9.888967872E-1,-1.975885391E0,2.258765703E0
4.303851463E0,3.211333752E-1,-4.281316996E-1,-1.751866817E0,1.831791676E0
4.320658915E0,8.299350739E-1,-5.307486057E-1,-1.642849445E0,1.915578401E0
4.337465687E0,8.498878479E-1,-8.654611111E-1,-1.506771088E0,1.934345212E0
4.354274311E0,6.585406065E-1,-1.021511078E0,-1.471206665E0,1.908300203E0
4.371069007E0,8.316693306E-1,-1.231312752E0,-1.533082485E0,2.134981704E0
4.387890010E0,9.998048544E-1,-1.347527027E0,-2.018438339E0,2.624791833E0
4.404683893E0,7.437874079E-1,-1.034263849E0,-2.603693008E0,2.898644287E0
4.421508894E0,4.970721006E-1,-7.395187616E-1,-3.032532215E0,3.160730977E0
4.438298087E0,5.205264091E-1,-7.369202375E-1,-2.537839890E0,2.693442126E0
4.455117217E0,7.642515898E-1,-1.062848926E0,-1.695300579E0,2.141908585E0
4.471925709E0,9.640187025E-1,-1.225867152E0,-1.161190987E0,1.944337121E0
4.488733213E0,8.732788563E-1,-7.112309933E-1,-1.247037888E0,1.680347875E0
4.505527889E0,4.332022667E-1,-1.293802261E-2,-1.499470711E0,1.560847209E0
4.522347997E0,2.482712269E-2,3.637149334E-1,-1.805062771E0,1.841509312E0
4.539156835E0,-1.679848433E-1,3.632835150E-1,-1.951690197E0,1.992307317E0
4.555962730E0,-3.669500351E-2,6.222770214E-1,-1.763352871E0,1.870291037E0
4.572773042E0,1.478350163E-2,1.256369233E0,-1.258419037E0,1.778285881E0
4.589580924E0,-1.458859444E-2,1.558716178E0,-6.978397369E-1,1.707861016E0
4.606385405E0,1.621979475E-1,1.361969471E0,-2.363967896E-2,1.371797306E0
4.623183001E0,3.524876833E-1,1.016916752E0,1.093277931E0,1.534152496E0
4.640001217E0,3.960587978E-1,1.013184071E0,1.930705070E0,2.216083618E0
4.656806463E0,2.784684896E-1,1.236310840E0,2.304531097E0,2.629994823E0
4.673615656E0,2.022299767E-1,8.527104855E-1,2.281076431E0,2.443628822E0
4.690423169E0,6.872260571E-2,3.482059240E-1,2.316976547E0,2.344003089E0
4.707232495E0,-3.246879578E-1,2.947838306E-1,2.375215530E0,2.415360965E0
4.724037964E0,-3.010793924E-1,1.815527678E-1,2.752592087E0,2.774954667E0
4.740833170E0,3.140716553E-1,-6.679756641E-1,3.459266663E0,3.537139852E0
4.757654498E0,5.875695944E-1,-1.058728456E0,4.209272385E0,4.379967806E0
4.774461016E0,5.310205221E-1,-9.664746523E-1,4.728047371E0,4.854944695E0
4.791258550E0,3.833571672E-1,-1.144866705E0,4.395755768E0,4.558547056E0
4.808076848E0,4.229117632E-1,-1.882293224E0,3.282739639E0,3.807658294E0
4.824872440E0,3.103606701E-1,-2.246116877E0,1.176724434E0,2.554612527E0
4.841690889E0,4.686825275E-1,-1.684243202E0,-1.525555611E0,2.320271190E0
4.858490876E0,9.690924883E-1,-6.143006086E-1,-3.021515369E0,3.232036605E0
4.875307657E0,1.364131570E0,2.825323343E-1,-2.896674633E0,3.214250051E0
4.892100961E0,1.275911927E0,5.071249008E-1,-2.119708538E0,2.525527905E0
4.908922625E0,9.581030607E-1,3.709208965E-2,-1.557435036E0,1.828918038E0
4.925719091E0,5.910166502E-1,-2.737249434E-1,-1.639950752E0,1.764557875E0
4.942529841E0,1.066491604E-1,-1.472809911E-1,-2.235676289E0,2.243059117E0
4.959338942E0,-3.294279575E-1,3.016883731E-1,-2.790360451E0,2.825889258E0
4.976149487E0,-7.268233895E-1,7.554239631E-1,-3.004959106E0,3.182564506E0
4.992960878E0,-9.981814027E-1,5.289765000E-1,-3.201642513E0,3.395098972E0
5.009763243E0,-9.429969192E-1,7.209177017E-1,-3.597333431E0,3.788109467E0
5.026577563E0,-8.150016069E-1,1.028429270E0,-3.113992691E0,3.379178134E0
5.043376269E0,-8.677940369E-1,8.243975639E-1,-1.994314671E0,2.325938271E0
5.060190954E0,-9.704014659E-1,3.401265740E-1,-1.265010834E0,1.630220077E0
5.076996851E0,-1.241409898E0,3.741159439E-1,-1.444365501E0,1.940941260E0
5.093812107E0,-1.866248846E0,6.872229576E-1,-1.383640289E0,2.422729989E0
5.110606183E0,-2.256409407E0,6.023935080E-1,-6.425666809E-1,2.422220735E0
5.127422100E0,-1.918524742E0,1.070713282E0,4.817676544E-1,2.249280816E0
5.144226257E0,-1.714381099E0,1.621554852E0,1.033697128E0,2.576251626E0
5.161032021E0,-1.489852309E0,1.666194797E0,1.055381775E0,2.471779864E0
5.177838488E0,-1.764076591E0,1.689609289E0,1.241455078E0,2.740065050E0
5.194648454E0,-1.960995793E0,1.666623354E0,1.738987923E0,3.105996925E0
5.211456323E0,-1.575986624E0,8.960818052E-1,2.359801292E0,2.975795453E0
5.228264723E0,-7.870613933E-1,1.544282138E-1,3.454586983E0,3.546475001E0
5.245069236E0,-3.317641020E-1,-4.080188274E-2,3.910110474E0,3.924372068E0
5.261878978E0,-1.940300465E-1,4.979662001E-1,3.850049019E0,3.886964811E0
5.278684723E0,-5.807178020E-1,7.211068869E-1,3.137587547E0,3.271342832E0
5.295494322E0,-9.666254520E-1,3.168197274E-1,2.100711823E0,2.334037203E0
5.312289263E0,-1.007543802E0,-4.538527727E-1,1.479775429E0,1.846851963E0
5.329106004E0,-8.310770988E-1,-1.395707130E0,1.817328453E0,2.437492614E0
5.345915512E0,-3.920994699E-1,-2.279930830E0,2.761529922E0,3.602481658E0
5.362722202E0,4.252641797E-1,-3.803218842E0,2.969250679E0,4.843735415E0
5.379535312E0,8.889276385E-1,-5.032962799E0,1.571209908E0,5.346925047E0
5.396333954E0,1.388242722E0,-5.154547691E0,-1.814308167E-1,5.341301049E0
5.413163177E0,1.805133462E0,-4.514993191E0,-1.246910095E0,5.019806282E0
5.429951720E0,1.787418365E0,-2.963631630E0,-1.711297035E0,3.860895543E0
5.446759081E0,1.424756765E0,-1.348556042E0,-1.635691643E0,2.554216590E0
5.463565375E0,1.160052538E0,-4.798019826E-1,-1.064594269E0,1.645992950E0
5.480380040E0,1.179587007E0,-6.071910858E-1,-5.197038651E-1,1.424850388E0
5.497176883E0,1.072546363E0,-1.016604543E0,-9.030275345E-1,1.731848499E0
5.513996473E0,9.164651632E-1,-1.012771368E0,-1.819070339E0,2.274781558E0
5.530795960E0,6.647632122E-1,-8.322384953E-1,-3.009040356E0,3.191998575E0
5.547608561E0,4.323652387E-1,-3.525463343E-1,-4.058126926E0,4.096293784E0
5.564412068E0,3.398249149E-1,-2.012968063E-3,-4.660776615E0,4.673149225E0
5.581220018E0,5.131645799E-1,1.386628747E-1,-4.670712948E0,4.700864252E0
5.598028429E0,6.612949371E-1,3.368538320E-1,-4.266613483E0,4.330678020E0
5.614822474E0,9.505454302E-1,8.653126359E-1,-3.450405121E0,3.682064376E0
5.631642013E0,8.501312733E-1,1.347095609E0,-2.146872997E0,2.673285138E0
5.648450940E0,7.594327927E-1,1.505758524E0,-7.506036758E-1,1.845928703E0
5.665262676E0,8.832967281E-1,1.619047165E0,3.155918121E-1,1.871129345E0
5.682064219E0,1.011243820E0,1.678612828E0,7.315912247E-1,2.091788902E0
5.698872263E0,7.532988787E-1,1.889988780E0,5.869398117E-1,2.117549322E0
5.715679807E0,7.904812098E-1,1.520571947E0,6.164131165E-1,1.821253612E0
5.732488531E0,9.072699547E-1,1.107468009E0,8.140134811E-1,1.646888615E0
5.749293880E0,1.073920012E0,1.099562287E0,1.319781303E0,2.025873664E0
5.766100315E0,1.312440991E0,1.295904875E0,2.852411270E0,3.396780955E0
5.782910729E0,1.671666741E0,6.777804494E-1,3.917932510E0,4.313241378E0
5.799717469E0,1.377058029E0,-2.846065760E-1,3.335119247E0,3.619435054E0
5.816525594E0,1.069118023E0,-1.188409209E0,1.930635452E0,2.506528086E0
5.833331226E0,1.369940042E0,-1.329668164E0,7.672538757E-1,2.057530475E0
5.850140968E0,2.000371933E0,-7.836154699E-1,1.710382462E0,2.746078884E0
5.866934261E0,2.292500019E0,-5.826182961E-1,3.754191399E0,4.437223622E0
5.883751053E0,1.893898010E0,-1.175986052E0,5.020442963E0,5.493144856E0
5.900568352E0,2.233357430E0,-2.945438385E0,5.050174713E0,6.258414921E0
5.917369987E0,2.282098770E0,-4.004498482E0,3.458452225E0,5.762367107E0
5.934178235E0,1.236818314E0,-3.802467823E0,2.278928757E-1,4.005048845E0
5.950983998E0,2.200119495E-1,-3.057891846E0,-2.250086308E0,3.802893134E0
5.967795572E0,-6.169080734E-3,-2.261061192E0,-3.910180092E0,4.516851129E0
5.984598336E0,-9.288501740E-2,-1.404840708E0,-3.941122055E0,4.185050549E0
6.001408036E0,-3.862278461E-1,-7.906298637E-1,-3.686142445E0,3.789711553E0
6.018215633E0,-8.631680012E-1,-2.585594058E-1,-3.552818775E0,3.665301245E0
6.035022699E0,-1.401235819E0,2.525163293E-1,-3.045167923E0,3.361588017E0
6.051826927E0,-1.632053971E0,6.603425145E-1,-2.169585705E0,2.794057002E0
6.068639691E0,-1.476537943E0,9.449895620E-1,-2.074615479E0,2.716099953E0
6.085445424E0,-1.361505628E0,1.204203844E0,-1.960469723E0,2.673433374E0
6.102254984E0,-1.334635139E0,1.450827956E0,-1.803034306E0,2.671532410E0
6.119062498E0,-1.323725581E0,1.629050374E0,-2.016396046E0,2.910654144E0
6.135866085E0,-1.323861003E0,2.046319246E0,-1.718381882E0,2.982090995E0
6.152675807E0,-1.364222646E0,2.194763422E0,-1.140602112E0,2.824723541E0
6.169481938E0,-1.263305306E0,1.986547351E0,-9.303236008E-1,2.531365773E0
6.186289848E0,-1.299599648E0,2.299656630E0,-1.083078384E0,2.854897309E0
6.203096265E0,-1.454892993E0,2.541194439E0,-2.065849304E-1,2.935482947E0
6.219889434E0,-1.575436354E0,2.312529802E0,1.165918350E0,3.031362629E0
6.236715941E0,-1.704393864E0,1.672288060E0,1.569276810E0,2.857295138E0
6.253529854E0,-1.860646486E0,7.605123520E-1,1.389963150E0,2.443845728E0
6.270327673E0,-1.626860261E0,7.769266516E-2,1.040960312E0,1.932953396E0
6.287126867E0,-7.519925833E-1,-3.461113572E-1,1.672816277E0,1.866440519E0
6.303942662E0,-1.146986485E-1,2.882604301E-2,1.920539856E0,1.924177762E0
6.320734865E0,5.456099510E-1,6.561948061E-1,1.785731316E0,1.979171082E0
6.337556663E0,5.103356838E-1,8.937847614E-1,1.619101524E0,1.918536801E0
6.354348095E0,-2.437162399E-2,6.289802194E-1,1.165333748E0,1.324467001E0
6.371172016E0,-3.064055443E-1,-1.182909608E-1,5.019674301E-1,5.998736616E-1
6.387978625E0,9.394335747E-2,-1.191972971E0,3.222827911E-1,1.238342083E0
6.404786617E0,9.236302376E-1,-1.576357365E0,1.628571510E0,2.447496787E0
6.421604131E0,1.818359375E0,-2.820577145E0,2.787589073E0,4.362652758E0
6.438392063E0,2.423795700E0,-4.370331764E0,2.984371185E0,5.820743655E0
6.455213199E0,2.345268250E0,-4.845043182E0,2.082740784E0,5.771701289E0
6.472015159E0,1.411286831E0,-3.923469543E0,1.409232140E0,4.401281518E0
6.488827557E0,7.620258331E-1,-2.414985657E0,1.202073097E0,2.803180127E0
6.505632831E0,7.688336372E-1,-1.884720325E0,7.926998138E-1,2.184410415E0
6.522424894E0,7.040791512E-1,-1.864351034E0,5.534992218E-1,2.068306945E0
6.539250008E0,6.087820530E-1,-2.370438337E0,-1.568832397E-1,2.452387785E0
6.556055760E0,4.115605354E-2,-2.218039751E0,-1.359239101E0,2.601715798E0
6.572862584E0,-3.277127743E-1,-1.769195080E0,-2.555690289E0,3.125539912E0
6.589658948E0,-3.984405994E-1,-8.897902966E-1,-3.780229092E0,3.903922856E0
6.606477998E0,-6.678385735E-1,-1.151918173E-1,-3.969063282E0,4.026504793E0
6.623286489E0,-5.973196030E-2,1.178723693E0,-3.577011585E0,3.766692094E0
6.640091064E0,3.944475651E-1,2.185836077E0,-3.000532150E0,3.733183818E0
6.656898740E0,3.833460808E-2,2.447284698E0,-2.456940174E0,3.468029261E0
6.673708513E0,-8.796811104E-2,1.769156933E0,-1.677955151E0,2.439915599E0
6.690522669E0,1.991186142E-1,1.290733337E0,-9.316387177E-1,1.604241712E0
6.707321324E0,3.011965752E-1,1.627141714E0,-3.846178055E-1,1.698893873E0
6.724130883E0,2.507817745E-1,1.897152185E0,1.857376099E-1,1.922648271E0
6.740934195E0,1.385262012E-1,1.662820339E0,2.815437317E-1,1.692166618E0
6.757746674E0,1.422564983E-1,9.585051537E-1,3.616504669E-1,1.034292077E0
6.774552683E0,5.719773769E-1,-7.532620430E-2,1.586999893E0,1.688609137E0
6.791360329E0,7.311511040E-2,5.045992136E-1,7.916688919E-1,9.416505828E-1
6.808163042E0,-1.348841190E-1,1.532598376E0,5.729932785E-1,1.641759058E0
6.824976944E0,7.738103867E-1,1.400058031E0,1.680700302E0,2.320279835E0
6.841768590E0,1.316627979E0,1.335028887E0,2.516342163E0,3.138118743E0
6.858587813E0,1.239675045E0,1.839052200E0,1.963217735E0,2.961947179E0
6.875399436E0,1.383126259E0,1.794473886E0,3.336032867E0,4.032652982E0
6.892209830E0,1.901426077E0,1.136458158E0,6.395376205E0,6.768145616E0
6.909015442E0,1.281384468E0,-5.337762833E-2,5.525261879E0,5.672152515E0
6.925818052E0,5.369102955E-1,-1.008497357E0,3.865257263E0,4.030577291E0
6.942629921E0,-3.272769451E-1,-2.228928089E0,3.229543686E0,3.937662129E0
6.959431067E0,-5.771753788E-1,-2.892310143E0,2.047760963E0,3.590531206E0
6.976244897E0,-8.369337320E-1,-4.010315895E0,7.985744476E-1,4.173824721E0
6.993051151E0,-7.086814642E-1,-4.346583366E0,-2.943305969E-1,4.413801862E0
7.009856406E0,-3.257772923E-1,-4.006909370E0,-1.238159180E0,4.206482105E0
7.026663921E0,1.659631729E-1,-2.466819286E0,-1.990539551E0,3.174112296E0
7.043472595E0,1.127052307E-1,-1.066937923E0,-1.711480618E0,2.019956659E0
7.060276060E0,-3.134540915E-1,-8.264678717E-1,-1.456200600E0,1.703473744E0
7.077091590E0,-9.418701530E-1,-6.831251979E-1,-1.836935997E0,2.174422516E0
7.093893510E0,-1.369337678E0,-6.430146098E-1,-2.840142727E0,3.217913015E0
7.110702457E0,-1.864618182E0,-1.323742867E-1,-3.905841351E0,4.330117847E0
7.127517826E0,-1.736195564E0,3.931574821E-1,-4.507127762E0,4.845941447E0
7.144318504E0,-1.626110792E0,6.519421339E-1,-4.725855827E0,5.040136720E0
7.161123770E0,-1.717797995E0,9.638923407E-1,-4.599743366E0,5.003754333E0
7.177933878E0,-1.988245130E0,1.124442339E0,-3.204331875E0,3.935127956E0
7.194745145E0,-1.826386690E0,6.736257076E-1,-1.821294785E0,2.665815940E0
7.211532477E0,-1.477297068E0,3.994573355E-1,-8.179082870E-1,1.735207986E0
7.228342077E0,-8.854506016E-1,6.500279903E-1,-3.415422440E-1,1.150308767E0
7.245163873E0,-1.013330221E0,5.852142572E-1,-3.217182159E-1,1.213596504E0
7.261971012E0,-1.008241177E0,1.432257891E-1,-8.236932755E-1,1.309784146E0
7.278776604E0,-7.766233087E-1,6.589000225E-1,-4.118480682E-1,1.098595392E0
7.295596325E0,-1.282073617E0,1.322783709E0,5.349273682E-1,1.918232725E0
7.312393442E0,-1.668581963E0,1.455653310E0,1.580863953E0,2.720702696E0
7.329193154E0,-1.606335402E0,9.421939850E-1,2.325039864E0,2.978901357E0
7.346009976E0,-9.662137032E-1,4.980087280E-3,2.932467461E0,3.087549049E0
7.362811896E0,-4.700111747E-1,-3.232543468E-1,3.343763351E0,3.392072704E0
7.379620428E0,-7.762192488E-1,-1.037538052E-1,3.231913567E0,3.325439291E0
7.396432712E0,-1.172273278E0,2.554351091E-1,2.940258980E0,3.175625073E0
7.413234275E0,-7.640537620E-1,3.453829288E-1,3.301646233E0,3.406454956E0
7.430048513E0,1.108095050E-1,-6.948038936E-1,3.358254433E0,3.431166570E0
7.446850392E0,1.012863219E-1,-1.273474574E0,2.250305176E0,2.587637879E0
7.463664021E0,7.924437523E-3,-2.422661304E0,1.774180412E0,3.002843108E0
7.480466804E0,4.143659770E-1,-3.699404240E0,1.765106201E0,4.119816840E0
7.497276739E0,1.078800797E0,-4.640873909E0,1.715796471E0,5.064136583E0
7.514084987E0,1.526878595E0,-4.701779842E0,7.832403183E-1,5.005153077E0
7.530888807E0,1.528110862E0,-3.796890974E0,-3.994626999E-1,4.112307664E0
7.547697044E0,1.303742290E0,-2.824181080E0,-1.494181633E0,3.450843590E0
7.564510520E0,1.114877939E0,-1.620845556E0,-2.191946983E0,2.945288562E0
7.581316711E0,7.418486476E-1,-6.539261341E-1,-2.306273937E0,2.509354156E0
7.598119160E0,3.732257485E-1,-3.622975349E-1,-2.084437847E0,2.148357070E0
7.614927843E0,2.430974245E-1,-7.241853476E-1,-1.736883640E0,1.897447115E0
7.631741421E0,6.000996828E-1,-1.080673695E0,-1.418540955E0,1.881550877E0
7.648542994E0,9.438539743E-1,-1.100739837E0,-1.716543198E0,2.247000014E0
7.665350518E0,8.121242523E-1,-5.917426944E-1,-2.399074078E0,2.601011658E0
7.682163018E0,5.867680311E-1,-1.412022114E-1,-3.021677971E0,3.081358880E0
7.698965120E0,2.985261679E-1,4.273747206E-1,-2.410218716E0,2.465952409E0
7.715773305E0,2.533042431E-1,7.209308147E-1,-2.463469028E0,2.579260346E0
7.732579853E0,4.499634504E-1,1.054403663E0,-2.476938725E0,2.729369824E0
7.749385017E0,5.830075741E-1,1.376317620E0,-2.019005299E0,2.512076913E0
7.766202602E0,5.102131367E-1,1.558639169E0,-8.019771576E-1,1.825606985E0
7.782994105E0,-2.987062931E-2,1.386135221E0,-1.505317688E-1,1.394604932E0
7.799806501E0,-3.899490833E-1,1.570342541E0,1.057615280E-1,1.621487429E0
7.816625287E0,-4.328411222E-1,1.878419638E0,3.705739975E-1,1.962940870E0
7.833429933E0,-5.160271525E-1,2.464595079E0,1.156805038E0,2.771048687E0
7.850236022E0,-4.250217676E-1,2.147551060E0,1.907816887E0,2.903856803E0
7.867038156E0,-1.555522680E-1,1.319468737E0,3.004417419E0,3.285075081E0
7.883851357E0,-1.407364607E-1,7.524762154E-1,3.777537346E0,3.854324274E0
7.900651669E0,-3.038188219E-1,1.333564639E0,3.912027359E0,4.144231965E0
7.917468257E0,-5.893415213E-1,2.009381771E0,4.428727150E0,4.898832790E0
7.934270360E0,-7.405079603E-1,1.349374056E0,4.332153320E0,4.597468300E0
7.951078463E0,-1.024989963E0,3.369357586E-1,3.919996262E0,4.065771860E0
7.967886965E0,-1.175621271E0,-1.074259758E0,3.550240517E0,3.891057328E0
7.984693013E0,-7.633550763E-1,-2.420991898E0,3.540996552E0,4.356899048E0
8.001501219E0,-2.855726480E-1,-3.495777607E0,3.884936333E0,5.233998770E0
8.018312671E0,1.896905899E-1,-4.078834057E0,3.880300522E0,5.632903507E0
8.035114996E0,2.457193136E-1,-3.605761051E0,2.660977364E0,4.488060970E0
8.051923538E0,6.036003828E-1,-2.851511002E0,8.022098541E-1,3.023076093E0
8.068729547E0,8.683127165E-1,-2.249873638E0,-1.124781609E0,2.661020862E0
8.085531995E0,8.949209452E-1,-1.687756538E0,-2.676969528E0,3.288703618E0
8.102349916E0,6.376312971E-1,-1.245530486E0,-3.528068542E0,3.795416644E0
8.119150412E0,3.314371109E-1,-1.199752688E0,-3.831696987E0,4.028791242E0
8.135962055E0,-3.260992765E-1,-1.207870126E0,-3.753050804E0,3.956094200E0
8.152769326E0,-7.800676823E-1,-1.112764359E0,-3.604328632E0,3.852004023E0
8.169563616E0,-8.593182564E-1,-5.264518261E-1,-3.521496773E0,3.662856660E0
8.186385065E0,-7.867581844E-1,2.518327236E-1,-2.985954762E0,3.098117816E0
8.203193923E0,-1.029696703E0,8.740303516E-1,-2.821681499E0,3.128272821E0
8.220000389E0,-1.386353731E0,9.553711414E-1,-2.969417572E0,3.413524777E0
8.236784455E0,-1.023054242E0,7.016165257E-1,-2.495990753E0,2.787270272E0
8.253613974E0,-6.112215519E-1,7.532041073E-1,-1.594694614E0,1.866536666E0
8.270409890E0,-5.596455336E-1,1.275746107E0,-1.051809311E0,1.745575573E0
8.287227191E0,-9.976150990E-1,1.658517838E0,-1.075966835E0,2.214412322E0
8.304040453E0,-1.232383251E0,1.564805508E0,-7.604942322E-1,2.132073224E0
8.320838811E0,-1.083755136E0,1.169677258E0,7.291793823E-3,1.594591876E0
8.337657444E0,-1.129080653E0,8.165791035E-1,8.034572601E-1,1.608467632E0
8.354457370E0,-9.662443995E-1,3.071904182E-1,4.958868027E-1,1.128670862E0
8.371272076E0,-7.007296681E-1,-5.349713564E-1,7.392435074E-1,1.150520484E0
8.388072978E0,-5.909470320E-1,-1.408432007E0,8.467750549E-1,1.746404050E0
8.404872933E0,-7.963281274E-1,-8.634154201E-1,3.726310730E-1,1.232265633E0
8.421690936E0,-9.523895979E-1,-1.547710896E-1,-9.829521179E-3,9.649334981E-1
8.438496995E0,-1.124852657E0,5.709289312E-1,3.461437225E-1,1.308078293E0
8.455303197E0,-1.161115527E0,9.080600739E-1,9.492073059E-1,1.753213300E0
8.472116154E0,-9.336748123E-1,3.841387033E-1,2.306232452E0,2.517542318E0
8.488919458E0,-3.937154710E-1,-1.051170826E0,3.778894424E0,3.942082578E0
8.505728324E0,1.563471854E-1,-2.384028196E0,4.705111504E0,5.276941268E0
8.522529429E0,4.530309141E-1,-2.842305660E0,4.729216576E0,5.536192545E0
8.539337850E0,2.405491471E-1,-2.647309303E0,3.375292778E0,4.296360294E0
8.556154081E0,3.573613763E-1,-2.280592442E0,2.116797447E0,3.132034558E0
8.572952420E0,5.399126410E-1,-2.025951624E0,9.664382935E-1,2.308676811E0
8.589770116E0,6.450273991E-1,-1.682456255E0,-6.817626953E-2,1.803154846E0
8.606574691E0,8.790819645E-1,-1.489878893E0,-9.018440247E-1,1.950857981E0
8.623387272E0,1.049736977E0,-1.239410162E0,-1.675195694E0,2.333316499E0
8.640187288E0,1.260249853E0,-9.286569953E-1,-2.383119583E0,2.851296627E0
8.657008291E0,1.364494801E0,-4.747948647E-1,-3.061497688E0,3.385268722E0
8.673811390E0,1.133458495E0,-6.073880196E-2,-3.566932678E0,3.743183951E0
8.690609719E0,7.474930882E-1,7.941126823E-3,-3.898361683E0,3.969386954E0
8.707417895E0,5.270990729E-1,-2.321684361E-2,-3.599798679E0,3.638258235E0
8.724218013E0,5.583114624E-1,-8.810949326E-2,-3.099611282E0,3.150724532E0
8.741031173E0,6.675682068E-1,2.976489067E-2,-2.599277973E0,2.683799404E0
8.757839786E0,9.186909199E-1,1.530262232E-1,-2.012556553E0,2.217609954E0
8.774649386E0,1.266197681E0,3.787226677E-1,-1.720096111E0,2.169197561E0
8.791457723E0,1.043371558E0,7.541673183E-1,-1.485184669E0,1.965493845E0
8.808265522E0,5.775027275E-1,1.144975662E0,-1.237957001E0,1.782418639E0
8.825065864E0,2.164205313E-1,1.207667232E0,-5.334043503E-1,1.337840869E0
8.841883053E0,3.519017696E-1,4.356682301E-1,3.398742676E-1,6.551001297E-1
8.858687119E0,4.802989960E-1,-3.858649731E-2,7.696847916E-1,9.080697780E-1
8.875494766E0,2.459400892E-1,5.523061752E-1,5.152168274E-1,7.943406183E-1
8.892301699E0,-3.055988550E-1,1.391453385E0,4.808607101E-1,1.503582457E0
8.909096020E0,-5.220986605E-1,1.296042681E0,2.323941231E0,2.711644609E0
8.925904063E0,-1.998403072E-1,3.352207541E-1,4.358545303E0,4.375982891E0
8.942726053E0,-7.949864864E-2,8.248252869E-1,4.550410271E0,4.625244904E0
8.959527556E0,9.261654019E-1,2.016117096E0,4.620992661E0,5.126020256E0
8.976336474E0,2.445662975E0,1.969002485E0,4.675615311E0,5.632017108E0
8.993150031E0,2.314123869E0,1.167328835E0,2.373473167E0,3.514427516E0
9.009953038E0,1.696311235E0,1.975025237E-2,2.032369614E0,2.647336043E0
9.026762567E0,1.038899899E0,-2.233465195E0,2.778013229E0,3.712820663E0
9.043570996E0,-1.039141268E-1,-3.579407215E0,2.567000389E0,4.405955646E0
9.060377269E0,-6.128003001E-1,-3.849071741E0,1.992433548E0,4.377290134E0
9.077180074E0,-4.124235511E-1,-4.035879612E0,8.946590424E-1,4.154375071E0
9.093997059E0,-1.936258376E-2,-3.916119814E0,-4.519748688E-1,3.942163186E0
9.110792538E0,1.714669764E-1,-3.431090832E0,-1.752079010E0,3.856366953E0
9.127609025E0,8.304946125E-2,-2.838456392E0,-2.815608025E0,3.998922411E0
9.144407984E0,3.847043216E-2,-1.838318229E0,-3.926029682E0,4.335274265E0
9.161222445E0,4.777729511E-2,-1.196977735E0,-4.066627502E0,4.239398260E0
9.178022840E0,-5.286389589E-2,-9.503554702E-1,-3.926859379E0,4.040568610E0
9.194837688E0,-2.395090461E-1,-6.598765850E-1,-3.724998474E0,3.790569261E0
9.211632608E0,-4.910804629E-1,-2.435821295E-2,-3.724135876E0,3.756453296E0
9.228451913E0,-7.960446477E-1,6.324185133E-1,-3.541730881E0,3.684765649E0
9.245265062E0,-6.583275795E-1,1.243541479E0,-2.626578808E0,2.979715900E0
9.262068579E0,-4.372949600E-1,1.192813993E0,-2.713482857E0,2.996167772E0
9.278874984E0,-3.066513538E-1,6.112260818E-1,-2.637111187E0,2.724332540E0
9.295679498E0,-1.934041977E-1,2.008348703E0,-1.179581642E0,2.337152658E0
9.312496483E0,2.066323757E-1,2.294757366E0,4.399423599E-1,2.345667834E0
9.329294181E0,3.647435904E-1,2.047607660E0,7.887849808E-1,2.224391324E0
9.346108133E0,-4.101856947E-1,2.083020687E0,9.521484375E-3,2.123044546E0
9.362914671E0,-1.501741409E0,2.242932796E0,-5.408430099E-1,2.752905002E0
9.379720965E0,-1.654075146E0,2.540877342E0,5.042457581E-2,3.032254095E0
9.396513047E0,-1.046434045E0,2.774144411E0,1.500873566E0,3.323179635E0
9.413337061E0,-9.532046318E-2,2.578754425E0,3.084731102E0,4.021769057E0
9.430145959E0,3.734548092E-1,2.173868656E0,4.489933968E0,5.002467437E0
9.446951662E0,3.172591925E-1,2.263009071E0,5.254973412E0,5.730323639E0
9.463758922E0,4.460996389E-2,2.929900169E0,5.387094498E0,6.132462163E0
9.480569457E0,-5.378282070E-1,1.673442721E0,5.122052193E0,5.415264388E0
9.497375701E0,-2.035342455E0,-2.270035028E0,4.116365433E0,5.122513281E0
9.514182574E0,-3.746525526E0,-6.172938347E0,2.580873489E0,7.668280728E0
9.530989112E0,-4.176910877E0,-8.769031525E0,1.478504181E0,9.824890481E0
9.547799586E0,-3.028581619E0,-9.411122322E0,1.823905945E0,1.005326628E1
9.564604648E0,-1.293051839E0,-7.551058769E0,2.665028572E0,8.111279115E0
9.581409721E0,5.405158997E-1,-3.805576801E0,2.274725914E0,4.466424768E0
9.598215262E0,3.333088398E0,1.362446308E0,1.972270966E0,4.105556110E0
9.615028167E0,5.934623718E0,4.239268303E0,5.686664581E-2,7.293448309E0
9.631825031E0,6.434873581E0,3.471944094E0,-1.479197502E0,7.459894037E0
9.648641233E0,4.911782742E0,1.437380552E0,-2.187605858E0,5.565724745E0
9.665438228E0,2.786527634E0,-5.387406349E-1,-3.668810368E0,4.638442329E0
9.682263310E0,1.057268858E0,-1.925838351E0,-4.880914211E0,5.352568947E0
9.699066594E0,2.200002968E-1,-2.553615570E0,-5.056705475E0,5.669181852E0
9.715869560E0,8.778870106E-3,-2.544311523E0,-5.085702419E0,5.686648160E0
9.732690116E0,1.662131846E-1,-2.262004852E0,-4.534724712E0,5.070307781E0
9.749483775E0,3.039878905E-1,-1.300397038E0,-3.590747833E0,3.831045692E0
9.766299315E0,5.630668998E-1,-1.320115328E-1,-2.700576782E0,2.761808526E0
9.783096972E0,4.624168873E-1,8.847502470E-1,-2.748001575E0,2.923717674E0
9.799915971E0,4.174640477E-1,1.262143493E0,-2.436039448E0,2.775170376E0
9.816716405E0,4.849154651E-1,8.405283689E-1,-1.982397556E0,2.207154507E0
9.833532272E0,4.465715885E-1,3.108217716E-1,-1.782841206E0,1.864016932E0
9.850329815E0,2.503048182E-1,1.175856590E-2,-1.383545876E0,1.406054748E0
9.867149741E0,2.177193016E-2,-2.405167818E-1,-5.980463028E-1,6.449664484E-1
9.883943858E0,1.193279624E-1,8.381247520E-3,5.807418823E-1,5.929338427E-1
9.900755238E0,2.319048792E-1,1.322586894E0,1.637485504E0,2.117634232E0
9.917564725E0,3.682044744E-1,3.220610857E0,2.203906059E0,3.919835551E0
9.934372219E0,5.433842540E-1,3.614528179E0,2.297807693E0,4.317406699E0
9.951178390E0,8.924296498E-1,2.785475016E0,2.469783783E0,3.828202408E0
9.967985620E0,1.179228306E0,2.502282381E0,4.000771523E0,4.863966415E0
9.984793530E0,1.090934157E0,2.439467430E0,4.624737740E0,5.341286160E0
1.000160469E1,5.306055546E-1,7.008144259E-1,5.115382195E0,5.190358187E0
1.001840870E1,-5.336437821E-1,-1.065798044E0,4.621616364E0,4.772843908E0
1.003521662E1,-9.072937369E-1,-1.362366438E0,3.517601013E0,3.879786221E0
1.005202194E1,-5.776263475E-1,-1.691527843E0,2.746575356E0,3.276979528E0
1.006883179E1,-4.690450728E-1,-2.677810192E0,2.720468521E0,3.845987478E0
1.008563996E1,-2.936919034E-1,-4.016823769E0,2.872291565E0,4.946836055E0
1.010244685E1,1.754845381E-1,-5.041697502E0,2.821462631E0,5.780152239E0
1.011926404E1,6.492426991E-1,-5.378869534E0,2.137598038E0,5.824352231E0
1.013606098E1,8.087455034E-1,-4.958088398E0,6.103410721E-1,5.060555906E0
1.015285865E1,6.165896654E-1,-3.863029957E0,-9.783620834E-1,4.032415607E0
1.016967406E1,5.509805679E-2,-2.473450422E0,-2.330127239E0,3.398600556E0
1.018648948E1,-3.780912161E-1,-1.526167512E0,-2.906332016E0,3.304376799E0
1.020329477E1,-5.638420582E-1,-1.228840470E0,-3.118047237E0,3.398556362E0
1.022008293E1,-6.631956697E-1,-1.242636561E0,-3.563842773E0,3.832094654E0
1.023690624E1,-7.822254896E-1,-1.270805836E0,-4.108640194E0,4.371241063E0
1.025371969E1,-8.418916464E-1,-9.120306969E-1,-4.248461246E0,4.426059704E0
1.027052352E1,-8.348207474E-1,-1.987385750E-1,-4.129347801E0,4.217574654E0
1.028733312E1,-9.361796975E-1,6.001127958E-1,-3.872499943E0,4.028997841E0
1.030414001E1,-1.028806448E0,1.246070623E0,-3.088023663E0,3.485258218E0
1.032094604E1,-1.213464022E0,1.822218299E0,-2.962310314E0,3.683511485E0
1.033775456E1,-1.440063953E0,2.231868267E0,-2.631760120E0,3.739141811E0
1.035455643E1,-1.181483030E0,2.275859356E0,-1.784640312E0,3.124160528E0
1.037136927E1,-8.200275302E-1,2.151040792E0,-1.100107193E0,2.551403041E0
1.038817714E1,-6.929266453E-1,1.972770452E0,-1.556234360E-1,2.096709147E0
1.040498549E1,-8.759348392E-1,1.639385581E0,1.046987534E0,2.133314281E0
1.042179100E1,-1.133586287E0,1.115231037E0,1.684807777E0,2.316751041E0
1.043860180E1,-1.111937284E0,9.559230804E-1,1.926727295E0,2.421254123E0
1.045540553E1,-7.881414294E-1,9.827433825E-1,2.288686752E0,2.612477468E0
1.047221723E1,-5.738697052E-1,8.353542686E-1,2.679942131E0,2.865175914E0
1.048902173E1,-2.978133857E-1,5.284146667E-1,3.190423965E0,3.247571393E0
1.050583084E1,-1.879482567E-1,1.060222983E-1,3.163620949E0,3.170971899E0
1.052263919E1,-3.063048124E-1,5.463624001E-2,3.276163101E0,3.290904499E0
1.053944532E1,-4.544548392E-1,4.856283665E-1,3.803140640E0,3.860860376E0
1.055624904E1,-6.536701918E-1,9.096727967E-1,3.924478531E0,4.081215635E0
1.057305172E1,-9.171082973E-1,-3.334311843E-1,3.021437645E0,3.175114081E0
1.058986780E1,-1.343049288E0,-1.662405133E0,1.835158348E0,2.816944866E0
1.060669080E1,-1.144035816E0,-3.153723240E0,9.362516403E-1,3.483009526E0
1.062348272E1,-5.962533951E-1,-4.410150051E0,2.120437622E-1,4.455323124E0
1.064027979E1,-4.474373162E-2,-4.831233501E0,-5.431880951E-1,4.861879519E0
1.065709738E1,6.510569453E-1,-4.601701260E0,-1.231771469E0,4.807992365E0
1.067390799E1,1.329080582E0,-3.679664135E0,-1.465361595E0,4.177758722E0
1.069071388E1,1.637816787E0,-2.473513603E0,-1.067934990E0,3.152966621E0
1.070752620E1,1.510037184E0,-1.576017141E0,-5.952205658E-1,2.262372615E0
1.072432729E1,1.263247013E0,-1.028247356E0,-2.378797531E-1,1.646108265E0
1.074113881E1,9.335218668E-1,-6.153473854E-1,-6.025533676E-1,1.270112610E0
1.075794243E1,7.299364805E-1,-5.957478285E-2,-1.327973366E0,1.516532123E0
1.077475627E1,4.663578272E-1,3.479362726E-1,-2.283023357E0,2.356001894E0
1.079156169E1,2.546517253E-1,8.126349449E-1,-2.997753143E0,3.116367591E0
1.080836692E1,1.657193899E-1,1.004387140E0,-3.196240425E0,3.354431293E0
1.082516530E1,2.280247211E-1,8.488814831E-1,-3.059711456E0,3.183461833E0
1.084198428E1,4.015501738E-1,6.957721710E-1,-2.562720776E0,2.685680403E0
1.085878963E1,5.673041940E-1,9.075912833E-1,-2.225638390E0,2.469619855E0
1.087559742E1,5.288732648E-1,1.475136995E0,-2.060067654E0,2.588361417E0
1.089240667E1,3.083984256E-1,1.760010719E0,-1.646176338E0,2.429535729E0
1.090921462E1,3.600667715E-1,1.636260509E0,-1.221835136E0,2.073614630E0
1.092602175E1,6.451702714E-1,1.514905095E0,-2.991428375E-1,1.673519813E0
1.094282797E1,7.139492035E-1,1.332575083E0,3.214492798E-1,1.545577386E0
1.095963579E1,6.704190969E-1,9.893794060E-1,1.950740814E-1,1.210944785E0
1.097644434E1,7.409032583E-1,5.076605678E-1,1.849117279E-1,9.169783189E-1
1.099325095E1,9.419995546E-1,1.172059774E-1,1.046161652E0,1.412641003E0
1.101005919E1,1.054184556E0,4.300626516E-1,2.909569740E0,3.124396748E0
1.102685868E1,7.780352831E-1,9.854459763E-1,4.444739342E0,4.618674105E0
1.104367552E1,3.724470139E-1,1.008214831E0,5.202831268E0,5.312689256E0
1.106047081E1,-2.657368183E-1,7.159067392E-1,4.659076691E0,4.721242858E0
1.107729168E1,-5.338351727E-1,2.306451797E-1,3.256284714E0,3.307804004E0
1.109409329E1,-2.994722128E-1,8.377326727E-1,1.670378685E0,1.892523339E0
1.111090417E1,5.155369043E-1,6.826028824E-1,1.283972740E0,1.542825652E0
1.112771239E1,6.068283319E-1,-1.342895865E0,1.790748596E0,2.319135715E0
1.114452268E1,3.335161209E-1,-2.289527893E0,1.906922340E0,2.998253456E0
1.116133327E1,-3.890514374E-2,-2.296425581E0,2.020762444E0,3.059177163E0
1.117813421E1,-2.585204840E-1,-2.187515736E0,1.715047836E0,2.791674590E0
1.119494565E1,-2.632330656E-1,-2.096721172E0,7.553329468E-1,2.244116570E0
1.121175090E1,-2.010358572E-1,-2.117369175E0,-3.950071335E-1,2.163261028E0
1.122854865E1,-9.407031536E-2,-2.084631443E0,-1.256499290E0,2.435842348E0
1.124536704E1,-1.334550381E-1,-1.905404210E0,-1.642599583E0,2.519227826E0
1.126217312E1,-4.288983345E-2,-1.910815477E0,-1.782647610E0,2.613596722E0
1.127898185E1,8.240437508E-2,-1.804437399E0,-2.134727955E0,2.796399158E0
1.129579008E1,-1.611307859E-1,-1.298437595E0,-2.607077599E0,2.916977361E0
1.131259615E1,-3.408617973E-1,-3.746730089E-1,-2.755662441E0,2.801828353E0
1.132940215E1,-1.919957995E-1,6.124622226E-1,-2.184801102E0,2.277131576E0
1.134621550E1,-1.746371984E-1,1.253800869E0,-1.928949833E0,2.307241259E0
1.136302043E1,-4.451937675E-1,1.679249167E0,-2.160189629E0,2.772092078E0
1.137982670E1,-7.654644251E-1,2.047609329E0,-2.548048019E0,3.357259070E0
1.139663797E1,-8.182895184E-1,2.028317690E0,-2.883775711E0,3.619369108E0
1.141344422E1,-4.440153837E-1,1.556764841E0,-2.466176510E0,2.950032713E0
1.143025188E1,-3.556036055E-1,1.012421846E0,-1.831453800E0,2.122657519E0
1.144705713E1,-6.808691025E-1,8.797280788E-1,-1.424548149E0,1.807440637E0
1.146386678E1,-1.137137532E0,7.057200670E-1,-1.131770134E0,1.752719663E0
1.148066722E1,-1.409155846E0,3.337423801E-1,-9.956331253E-1,1.757381431E0
1.149748151E1,-1.558543921E0,6.149613857E-2,-4.005689621E-1,1.610371516E0
1.151428988E1,-1.866379499E0,-1.171226501E-1,1.910247803E-1,1.879782067E0
1.153109542E1,-2.103190422E0,-1.651923656E-1,5.738391876E-1,2.186318797E0
1.154790228E1,-2.080555439E0,-1.575349569E-1,1.191572189E0,2.402784318E0
1.156471176E1,-1.938964367E0,-4.206643105E-1,2.309989929E0,3.045093554E0
1.158152676E1,-1.613271475E0,-7.960471511E-1,3.325939178E0,3.781297044E0
1.159832953E1,-1.536803126E0,-7.385457754E-1,3.920481682E0,4.275206466E0
1.161512298E1,-1.726273775E0,-1.457205415E-1,4.303585052E0,4.639191732E0
1.163194140E1,-1.888636112E0,4.143149853E-1,4.102795601E0,4.535585410E0
1.164875000E1,-1.828039646E0,1.478775740E-1,3.324344635E0,3.796691188E0
1.166556165E1,-1.589909196E0,-1.114767075E0,2.629201889E0,3.268519459E0
1.168236680E1,-1.193607807E0,-2.269259930E0,1.765282631E0,3.112950850E0
1.169916893E1,-7.970623970E-1,-2.843041897E0,5.650196075E-1,3.006233998E0
1.171598292E1,-3.991120458E-1,-3.048186541E0,-5.162267685E-1,3.117245850E0
1.173277690E1,2.936390936E-1,-2.956929445E0,-9.262208939E-1,3.112481455E0
1.174959556E1,1.198068142E0,-2.422701836E0,-7.398643494E-1,2.802186773E0
1.176640214E1,1.737736106E0,-1.754629493E0,-2.941293716E-1,2.486958688E0
1.178321314E1,1.869164228E0,-1.433827877E0,-1.712160110E-1,2.361980571E0
1.180001810E1,1.877973557E0,-8.769665956E-1,-5.353031158E-1,2.140655160E0
1.181682732E1,1.687184095E0,-1.465012431E-1,-1.539496422E0,2.288690022E0
1.183363328E1,1.515999794E0,2.084864080E-1,-2.084305286E0,2.585739833E0
1.185044167E1,1.388096929E0,3.600734472E-1,-2.189962387E0,2.617709156E0
1.186725182E1,1.318345189E0,7.591857910E-1,-2.456328869E0,2.889281678E0
1.188405816E1,1.187889099E0,1.114863992E0,-2.752191067E0,3.198211672E0
1.190086388E1,9.471690655E-1,1.324811101E0,-3.005072117E0,3.417998262E0
1.191767372E1,6.804314852E-1,1.413620353E0,-3.423921108E0,3.766237547E0
1.193448072E1,4.148053229E-1,1.564992309E0,-3.201294422E0,3.587415554E0
1.195129018E1,3.235466480E-1,1.584025502E0,-2.462697506E0,2.945963040E0
1.196809510E1,1.811944246E-1,1.346914291E0,-1.426609993E0,1.970336418E0
1.198489134E1,3.406584263E-3,1.063867211E0,-6.893959045E-1,1.267711229E0
1.200170995E1,-8.496907353E-2,8.526193500E-1,-1.739072800E-1,8.743130111E-1
1.201852074E1,-2.109289169E-2,9.256017208E-1,2.598352432E-1,9.616120888E-1
1.203533255E1,-1.236318052E-1,1.126145601E0,2.872371674E-1,1.168757429E0
1.205213513E1,-1.021994650E-1,1.196079135E0,7.205696106E-1,1.400096636E0
1.206893852E1,-1.153732836E-2,8.901650906E-1,1.309799194E0,1.583698497E0
1.208574937E1,8.350862563E-2,6.030007005E-1,2.433931351E0,2.508905211E0
1.210256412E1,-7.024781406E-2,8.443899155E-1,4.064161301E0,4.151546238E0
1.211936510E1,-1.393539310E-1,8.502819538E-1,5.081933022E0,5.154458473E0
1.213617187E1,-3.648037612E-1,6.703705788E-1,4.909860611E0,4.968823776E0
1.215297823E1,-5.722569227E-1,7.016220093E-1,4.232549667E0,4.328305456E0
1.216979049E1,-6.410183907E-1,-5.271846056E-2,3.857877731E0,3.911125721E0
1.218659278E1,-2.966333032E-1,-1.131959915E0,3.641618729E0,3.825011311E0
1.220340683E1,-6.121253967E-2,-2.089296341E0,3.427956581E0,4.014946139E0
1.222021020E1,1.685886383E-1,-3.125224113E0,2.679914474E0,4.120362785E0
1.223700693E1,5.917881727E-1,-3.981698751E0,1.670802116E0,4.358407725E0
1.225382703E1,8.905733824E-1,-4.046773911E0,9.091072083E-1,4.242166422E0
1.227063252E1,9.389947653E-1,-3.250832558E0,4.527759552E-2,3.384032143E0
1.228744133E1,9.945729971E-1,-2.166297436E0,-7.544851303E-1,2.500253555E0
1.230425140E1,9.914338589E-1,-1.429826260E0,-1.430465698E0,2.252460065E0
1.232105211E1,9.810206890E-1,-8.607428670E-1,-1.942229748E0,2.339986382E0
1.233786645E1,9.444779754E-1,-5.815931559E-1,-2.103501320E0,2.378025872E0
1.235467156E1,8.370747566E-1,-3.472129703E-1,-2.490213871E0,2.649984173E0
1.237148059E1,7.158062458E-1,-1.156733930E-1,-2.683077812E0,2.779328239E0
1.238829220E1,5.302225351E-1,2.432591915E-1,-3.342023849E0,3.392555730E0
1.240509390E1,2.548969388E-1,7.072523832E-1,-3.960203171E0,4.030928868E0
1.242190428E1,2.208569646E-1,9.717134237E-1,-4.186471939E0,4.303434916E0
1.243870975E1,1.354004145E-1,9.713882208E-1,-4.165116310E0,4.279032861E0
1.245552524E1,-1.029084921E-1,1.024925232E0,-3.897164345E0,4.030998861E0
1.247232432E1,-4.894671440E-1,1.167829275E0,-3.572648048E0,3.790411241E0
1.248912843E1,-8.164601326E-1,9.479560256E-1,-3.098194599E0,3.341262867E0
1.250594126E1,-8.460591435E-1,6.093555689E-1,-2.489685059E0,2.699196542E0
1.252273573E1,-9.852572680E-1,4.961409569E-1,-1.683886528E0,2.013047832E0
1.253955582E1,-1.172776461E0,6.071360111E-1,-3.254594803E-1,1.360125963E0
1.255635252E1,-1.489260674E0,7.400473952E-1,6.577901840E-1,1.788366693E0
1.257315632E1,-1.773979306E0,7.909421325E-1,1.041943550E0,2.204141193E0
1.258998173E1,-1.708423138E0,7.020704746E-1,1.186217308E0,2.195159236E0
1.260678416E1,-1.475765944E0,5.950688720E-1,1.355106354E0,2.090049117E0
1.262359908E1,-1.280264378E0,3.684678376E-1,1.776427269E0,2.220481764E0
1.264039682E1,-1.035766840E0,-3.897314146E-2,2.675511360E0,2.869266961E0
1.265721412E1,-8.244695067E-1,-2.566618323E-1,3.602504730E0,3.704546611E0
1.267401757E1,-6.834940314E-1,-5.170280933E-1,3.981917381E0,4.073100560E0
1.269082536E1,-9.297758341E-1,-9.792600274E-1,2.998984337E0,3.288972538E0
1.270763380E1,-1.156303406E0,-1.536627889E0,1.675105095E0,2.550341137E0
1.272443994E1,-1.117553473E0,-2.297106981E0,7.584667206E-1,2.664751023E0
1.274125184E1,-6.210316420E-1,-3.327578783E0,6.534404755E-1,3.447527420E0
1.275805533E1,-7.803243399E-2,-3.967007160E0,2.850036621E-1,3.977997229E0
1.277486402E1,3.072215617E-1,-3.661912441E0,-4.438781738E-2,3.675045319E0
1.279167122E1,4.411747158E-1,-2.632946014E0,3.318843842E-1,2.690202054E0
1.280848190E1,5.883202553E-1,-1.412392855E0,5.230970383E-1,1.616973967E0
1.282528764E1,6.385275722E-1,-4.766767919E-1,3.015069962E-1,8.519651948E-1
1.284209567E1,4.355896413E-1,1.369635761E-1,-1.851701736E-1,4.927325340E-1
1.285890157E1,2.893845737E-1,2.895166278E-1,-6.364526749E-1,7.567267120E-1
1.287571096E1,7.981854677E-2,2.732312977E-1,-9.530124664E-1,9.946150530E-1
1.289252361E1,1.869824529E-2,9.302398562E-2,-9.800729752E-1,9.846553320E-1
1.290933387E1,1.199100614E-1,-2.958545089E-2,-1.039530754E0,1.046841875E0
1.292614262E1,1.966057420E-1,1.521748304E-2,-1.429341316E0,1.442879755E0
1.294293000E1,2.886556983E-1,1.891647279E-1,-1.920789719E0,1.951547732E0
1.295975112E1,3.971187472E-1,4.351164401E-1,-2.149349689E0,2.228616993E0
1.297654269E1,4.271266162E-1,9.188592434E-1,-2.380155087E0,2.586866385E0
1.299336500E1,2.746610940E-1,1.211011171E0,-2.439597130E0,2.737447886E0
1.301016171E1,9.861406684E-2,1.211905837E0,-2.336495876E0,2.633942572E0
1.302698038E1,1.207630634E-1,1.008612752E0,-1.725125313E0,2.001984202E0
1.304378631E1,-1.098235250E-1,8.428341150E-1,-9.816379547E-1,1.298477426E0
1.306059147E1,-4.885697663E-1,8.209267855E-1,-2.437391281E-1,9.859158008E-1
1.307740661E1,-4.229391217E-1,5.150985122E-1,2.222442627E-2,6.668567335E-1
1.309420962E1,-4.508838058E-1,4.558420777E-1,1.084585190E-1,6.502702949E-1
1.311102047E1,-5.354288816E-1,6.332898140E-1,5.889539719E-1,1.017156260E0
1.312782434E1,-4.790768623E-1,8.077613115E-1,1.697587013E0,1.940050165E0
1.314463550E1,-3.060169220E-1,3.531302810E-1,3.073506355E0,3.108824322E0
1.316143924E1,-1.006180048E-2,-5.566205978E-1,4.196695328E0,4.233459508E0
1.317825203E1,2.092299163E-1,-1.263629198E0,4.217587471E0,4.407786291E0
1.319505491E1,2.073253095E-1,-1.371997237E0,3.281147957E0,3.562483981E0
1.321186750E1,2.009315938E-1,-1.023221254E0,2.260442734E0,2.489368714E0
1.322867099E1,4.157982469E-1,-6.953370571E-1,2.179974556E0,2.325654934E0
1.324547858E1,8.448289633E-1,-5.818564892E-1,2.667203903E0,2.857668562E0
1.326228841E1,1.336810350E0,-7.695041895E-1,2.397651672E0,2.850952850E0
1.327909429E1,1.659588099E0,-1.495488644E0,1.383206367E0,2.627542349E0
1.329590187E1,2.073146820E0,-1.919547558E0,4.533319473E-1,2.861487449E0
1.331271028E1,2.217948675E0,-1.586437941E0,1.141805649E-1,2.729307397E0
1.332952260E1,2.025809526E0,-9.966808558E-1,-2.649307251E-1,2.273205942E0
1.334632578E1,1.568241000E0,-6.021462679E-1,-7.320508957E-1,1.832446036E0
1.336313289E1,1.048232675E0,-5.530679226E-1,-1.178363800E0,1.671292049E0
1.337993729E1,6.481174231E-1,-6.853511930E-1,-1.426629066E0,1.710272769E0
1.339673721E1,1.769328564E-1,-8.043731451E-1,-1.839529991E0,2.015488025E0
1.341356186E1,-2.230571508E-1,-7.207370400E-1,-2.332191467E0,2.451190203E0
1.343036382E1,-6.223762035E-1,-4.174813032E-1,-2.903871536E0,2.999018619E0
1.344717291E1,-1.039089441E0,2.466690540E-2,-3.406345844E0,3.561391208E0
1.346398050E1,-1.207319498E0,3.699169159E-1,-3.495170116E0,3.716271389E0
1.348078855E1,-1.215829253E0,5.636683702E-1,-3.169537544E0,3.441210695E0
1.349760413E1,-1.138493299E0,6.841392517E-1,-2.611457348E0,2.929833270E0
1.351440334E1,-9.238038659E-1,6.237226725E-1,-2.115879536E0,2.391524569E0
1.353121194E1,-6.027053595E-1,7.021931410E-1,-1.676084518E0,1.914572608E0
1.354801873E1,-4.341858029E-1,1.139368653E0,-1.532716751E0,1.958545092E0
1.356482529E1,-5.068663359E-1,1.488763928E0,-1.566963196E0,2.220068732E0
1.358163444E1,-4.862862229E-1,1.475097179E0,-1.434093475E0,2.114003329E0
1.359844396E1,-2.822445035E-1,1.261895299E0,-8.653345108E-1,1.555906656E0
1.361524693E1,-1.374149919E-1,1.409983993E0,1.941776276E-2,1.416797370E0
1.363206045E1,1.946210861E-3,1.523456097E0,1.211923599E0,1.946710322E0
1.364886394E1,1.310333610E-1,1.326689959E0,2.223573685E0,2.592596366E0
1.366566027E1,3.507959843E-1,1.193559408E0,2.985610008E0,3.234425607E0
1.368247917E1,4.989949167E-1,1.274670362E0,3.502364159E0,3.760363700E0
1.369928770E1,3.189283013E-1,1.873428941E0,3.636549950E0,4.103163023E0
1.371609500E1,2.797583938E-1,2.169211149E0,3.528672218E0,4.151538196E0
1.373290415E1,-6.851112843E-2,1.774304390E0,2.698782921E0,3.230523038E0
1.374970697E1,-5.767360926E-1,5.482782125E-1,1.716973305E0,1.892414027E0
1.376652621E1,-7.787064314E-1,-1.155315518E0,1.194781303E0,1.835385523E0
1.378332626E1,-1.085391045E0,-2.625771761E0,8.123683929E-1,2.955113105E0
1.380013359E1,-1.361952662E0,-3.665996790E0,5.133228302E-1,3.944356455E0
1.381694043E1,-1.441393137E0,-4.276723862E0,2.465295792E-1,4.519818359E0
1.383375145E1,-1.156629086E0,-4.377160549E0,1.353931427E-1,4.529421223E0
1.385054435E1,-4.301899672E-1,-3.859791756E0,2.489061356E-1,3.891659038E0
1.386736595E1,2.915042639E-1,-2.826169491E0,6.037874222E-1,2.904611502E0
1.388417104E1,7.093898654E-1,-1.640533328E0,1.018345833E0,2.057088189E0
1.390098023E1,6.818218231E-1,-7.519804239E-1,8.200702667E-1,1.304940918E0
1.391777526E1,3.895393014E-1,-5.279434323E-1,-3.500699997E-1,7.436492048E-1
1.393459646E1,3.798648715E-1,-7.421650290E-1,-1.663419247E0,1.860663817E0
1.395139081E1,5.017731190E-1,-7.800434232E-1,-2.795804024E0,2.945634761E0
1.396821350E1,5.123856068E-1,-5.064892769E-1,-3.675654888E0,3.745598651E0
1.398501521E1,3.073447943E-1,3.483486176E-2,-3.987171650E0,3.999151417E0
1.406905323E1,4.099600315E-1,8.179620504E-1,-1.278856277E0,1.572451119E0
1.408586860E1,2.475013733E-1,1.115719080E0,-7.580451965E-1,1.371392911E0
1.410267143E1,2.276417017E-1,1.147658467E0,-3.511857986E-1,1.221585923E0
1.411948242E1,2.802564502E-1,1.260184526E0,-6.662845612E-2,1.292690245E0
1.413628731E1,2.145575881E-1,1.510402441E0,-3.834724426E-3,1.525570450E0
1.415309697E1,8.956587315E-2,1.491242647E0,1.299257278E-1,1.499569062E0
1.416990161E1,2.612783313E-1,1.118761420E0,4.348611832E-1,1.228412687E0
1.418671298E1,5.821272135E-1,9.438067675E-1,1.246562004E0,1.668400473E0
1.420352119E1,6.174352169E-1,8.993728161E-1,1.908831596E0,2.198575851E0
1.422032564E1,2.368361354E-1,1.130565882E0,2.074545860E0,2.374449640E0
1.423714266E1,7.887244225E-3,9.706591368E-1,2.292643547E0,2.489669818E0
1.425393593E1,1.425215006E-1,6.629753709E-1,2.533810616E0,2.622983979E0
1.427074964E1,5.020349026E-1,4.066945910E-1,2.570854187E0,2.650798141E0
1.428756179E1,4.438398182E-1,9.828495979E-2,2.693249702E0,2.731345397E0
1.430436663E1,5.819876194E-1,-8.499041796E-1,3.079494476E0,3.247203864E0
1.432117217E1,8.846027851E-1,-2.088780403E0,3.319828987E0,4.020794718E0
1.433796998E1,1.087417960E0,-2.941232920E0,3.196184158E0,4.477602269E0
1.435478958E1,1.145265818E0,-3.026915789E0,2.727541924E0,4.232415141E0
1.437160414E1,8.141286969E-1,-2.205977917E0,1.629635811E0,2.860918905E0
1.438840285E1,6.334334612E-1,-1.490329981E0,7.923698425E-1,1.802823166E0
1.440520004E1,6.147179604E-1,-1.248930573E0,-4.417610168E-2,1.392715792E0
1.442202033E1,3.565680385E-1,-1.073589325E0,-7.833747864E-1,1.376012667E0
1.443882717E1,-1.050569415E-1,-1.041620255E0,-1.511961937E0,1.839031978E0
1.445563366E1,-3.822415173E-1,-8.628915548E-1,-2.065303326E0,2.270719763E0
1.447243363E1,-6.422418952E-1,-5.464538336E-1,-2.600020409E0,2.733348234E0
1.448925211E1,-7.020606995E-1,-3.948707581E-1,-2.659731865E0,2.779026041E0
1.450604675E1,-7.625948191E-1,2.448555827E-1,-2.955321789E0,3.061932721E0
1.452286500E1,-1.048672199E0,9.388074279E-1,-3.326680660E0,3.612184517E0
1.453967340E1,-1.340804458E0,1.240047455E0,-3.427291870E0,3.883529818E0
1.455648171E1,-1.163154721E0,1.169189215E0,-3.037919998E0,3.456716685E0
1.457329020E1,-9.184081554E-1,1.258724213E0,-2.685872078E0,3.105119805E0
1.459009335E1,-8.508437276E-1,1.617479801E0,-2.270382881E0,2.914586486E0
1.460690784E1,-7.315068245E-1,1.942871571E0,-1.915919304E0,2.824995390E0
1.462371388E1,-6.570471525E-1,2.230879307E0,-1.550307274E0,2.794993039E0
1.464052207E1,-5.270212889E-1,2.187506199E0,-3.547315598E-1,2.277887023E0
1.472454724E1,6.195776463E-1,-3.094778955E-1,1.813101768E0,1.940873785E0
1.474137200E1,4.007512033E-1,-5.526109338E-1,1.773637772E0,1.900466079E0
1.475817471E1,2.048463523E-1,-3.840777278E-1,2.019499779E0,2.065879252E0
1.477498119E1,-1.177790463E-1,-5.439519882E-3,2.136665344E0,2.139915953E0
1.479179284E1,-4.415676594E-1,-2.118220329E-1,2.165375710E0,2.220068137E0
1.480859705E1,-5.893461704E-1,-8.322826624E-1,3.014232635E0,3.182078208E0
1.482541018E1,-7.221176624E-1,-1.370374203E0,4.150769234E0,4.430379736E0
1.484221330E1,-8.975744247E-1,-1.839998960E0,3.931524277E0,4.432619898E0
1.485900821E1,-1.090352774E0,-2.330273151E0,2.307012558E0,3.455625714E0
1.487582902E1,-8.988826871E-1,-2.549743176E0,9.401998520E-1,2.862368968E0
1.489263038E1,-6.316078305E-1,-1.909144402E0,-2.282991409E-1,2.023828376E0
1.490944340E1,-2.724698186E-1,-1.295442581E0,-1.168328285E0,1.765616681E0
1.492624312E1,2.422172576E-1,-6.343510151E-1,-1.019424438E0,1.224865950E0
1.494306060E1,6.295363903E-1,8.235108852E-2,-3.783311844E-1,7.390752692E-1
1.495985783E1,5.978502035E-1,1.657999754E-1,3.075599670E-2,6.211766488E-1
1.497667446E1,1.729365289E-1,-1.339220405E-1,-6.278305054E-1,6.648408076E-1
1.499348336E1,-2.273406386E-1,-5.419219136E-1,-1.011412621E0,1.169751519E0
1.501028635E1,-2.212731838E-1,-8.127101064E-1,-1.216420174E0,1.479573445E0
1.502710109E1,-1.857203245E-2,-7.428818941E-1,-1.667436600E0,1.825530948E0
1.504390740E1,2.235068083E-1,-3.452313542E-1,-2.309130669E0,2.345468914E0
1.506071253E1,3.332830667E-1,2.123315930E-1,-2.762485027E0,2.790606714E0
1.507752419E1,1.809532642E-1,6.655862331E-1,-2.681102753E0,2.768404069E0
1.509432868E1,-3.798508644E-2,1.003921151E0,-2.398531914E0,2.600433788E0
1.511113566E1,2.245610952E-2,1.135276079E0,-1.920634747E0,2.231186653E0
1.512794740E1,1.862442493E-2,8.897801638E-1,-1.582592010E0,1.815668770E0
1.514475339E1,1.961991191E-1,3.710963130E-1,-7.159919739E-1,8.299705263E-1
1.516155485E1,1.915503740E-1,1.251643896E-1,-5.451602936E-1,5.912338082E-1
1.517836764E1,3.781861067E-2,2.504072189E-1,-6.753215790E-1,7.212442427E-1
1.519517497E1,7.523298264E-3,3.320297897E-1,-8.462142944E-1,9.090539111E-1
1.521198411E1,5.730617046E-2,3.971101940E-1,-3.979244232E-1,5.650879134E-1
1.522879031E1,5.004485846E-1,-1.131620407E-1,6.085681915E-1,7.959960282E-1
1.524560121E1,8.427329659E-1,-7.228465676E-1,1.646003723E0,1.985455683E0
1.526240318E1,6.287761927E-1,-1.675590992E0,2.154594421E0,2.800935878E0
1.527921807E1,4.438452721E-1,-2.111211300E0,2.000142097E0,2.941900778E0
1.529602162E1,3.777003884E-1,-1.839322209E0,1.521314621E0,2.416642702E0
1.531283090E1,4.340618253E-1,-1.155715466E0,1.033782959E0,1.610215859E0
1.532963652E1,6.601065993E-1,-5.400309563E-1,1.070039749E0,1.368341778E0
1.534642620E1,8.243095279E-1,-3.534033895E-1,1.806838989E0,2.017187965E0
1.536325270E1,1.007290244E0,-7.244028449E-1,1.846547127E0,2.224663887E0
1.538006045E1,1.087222099E0,-1.548031092E0,1.095121384E0,2.185804886E0
1.539686856E1,9.217078686E-1,-2.094298601E0,-7.158632278E-1,2.397517922E0
1.541368119E1,6.337608099E-1,-2.136694431E0,-2.349552155E0,3.238442710E0
1.543048368E1,5.996338129E-1,-1.244214654E0,-2.625289917E0,2.966441970E0
1.544728004E1,8.552957177E-1,5.773234367E-2,-1.788898945E0,1.983689296E0
1.546409770E1,8.287976980E-1,6.889719963E-1,-1.731126785E0,2.039212589E0
1.548089658E1,3.889001608E-1,6.014320850E-1,-1.792194843E0,1.930006799E0
1.549771194E1,-1.418291330E-1,-1.759618521E-2,-1.934511662E0,1.939783621E0
1.551454146E1,-5.332790017E-1,-8.100636005E-1,-2.189621925E0,2.394793040E0
1.553133670E1,-7.832692266E-1,-1.131891727E0,-2.521680355E0,2.872901213E0
1.554813672E1,-8.242702484E-1,-7.608542442E-1,-2.505333900E0,2.744998830E0
1.556494377E1,-7.995229363E-1,7.226294279E-2,-2.268910408E0,2.406743297E0
1.558175748E1,-8.009463549E-1,8.050768375E-1,-2.334995270E0,2.596510483E0
1.559855712E1,-8.385080099E-1,1.117151976E0,-2.235305309E0,2.635851674E0
1.561536874E1,-6.159946918E-1,1.131717682E0,-1.706210136E0,2.138080308E0
1.563217789E1,-3.718416691E-1,1.118725777E0,-8.810586929E-1,1.471760174E0
1.564898464E1,-2.561476529E-1,1.138099790E0,-1.802215576E-1,1.180407794E0
1.566579098E1,-2.597700655E-1,1.332370996E0,1.349954605E-1,1.364154219E0
1.568260167E1,-4.213340282E-1,1.571807981E0,3.443250656E-1,1.663328723E0
1.569940569E1,-3.299687505E-1,1.816087484E0,8.121156693E-1,2.016577543E0
1.571621751E1,-3.399932683E-1,2.011169672E0,1.704642296E0,2.658233291E0
1.573302261E1,-4.035282731E-1,1.739818454E0,2.155819893E0,2.799529019E0
1.574981947E1,-1.982613504E-1,1.108619809E0,2.267011642E0,2.531340995E0
1.576663930E1,5.368952453E-2,5.933209658E-1,2.259519577E0,2.336737266E0
1.578344844E1,1.357761472E-1,4.299804568E-1,2.603158951E0,2.641922572E0
1.580025335E1,2.408850342E-1,4.305534363E-1,3.204111099E0,3.241871342E0
1.581706330E1,3.961296976E-1,7.095946074E-1,3.455305099E0,3.549588226E0
1.583385907E1,2.526464760E-1,7.895215750E-1,2.980404854E0,3.093539664E0
1.585067751E1,-1.012599021E-1,5.416836739E-1,2.030195236E0,2.103655739E0
1.586747279E1,-2.988607883E-1,-1.568225920E-1,1.919830322E0,1.949271547E0
1.588429471E1,-5.058138967E-1,-1.350569487E0,2.414076805E0,2.812054846E0
1.590109982E1,-5.047256947E-1,-2.715841770E0,2.347723961E0,3.625238247E0
1.591791176E1,-4.204255044E-1,-3.705692768E0,1.228568077E0,3.926613810E0
1.593471410E1,-3.831759989E-1,-3.733141422E0,-3.499984741E-1,3.769040681E0
1.595152569E1,-2.717229128E-1,-2.866074800E0,-1.394233704E0,3.198766281E0
1.596833330E1,-3.322604299E-2,-1.552083015E0,-1.637001991E0,2.256067636E0
1.598513888E1,1.925376058E-1,-2.993476093E-1,-1.388157845E0,1.433060334E0
1.600194967E1,1.247961223E-1,4.217119217E-1,-1.271797180E0,1.345690560E0
1.601875535E1,-1.867807209E-1,5.183343291E-1,-1.687667847E0,1.775325400E0
1.603556165E1,-4.506691992E-1,1.776979566E-1,-2.330424309E0,2.380243002E0
1.605237056E1,-3.695029020E-1,-2.730622888E-1,-2.686316967E0,2.725324615E0
1.606917861E1,-1.026235819E-1,-5.512119532E-1,-2.851625443E0,2.906223302E0
1.608598737E1,3.308237791E-1,-4.037989080E-1,-2.714604855E0,2.764340328E0
1.610279652E1,6.637277603E-1,7.344916463E-2,-2.540661335E0,2.626954385E0
1.611960142E1,6.549457312E-1,6.792008877E-1,-2.512144566E0,2.683493632E0
1.613641034E1,5.452619195E-1,1.152265191E0,-2.505675316E0,2.811304754E0
1.615321834E1,5.879839659E-1,1.352842450E0,-2.182442665E0,2.634191304E0
1.617002474E1,5.948686600E-1,1.302870035E0,-1.466514587E0,2.049879042E0
1.618683245E1,4.669610262E-1,1.255975723E0,-4.794654846E-1,1.423170674E0
1.620364201E1,4.782586694E-1,9.904469848E-1,1.718320847E-1,1.113212850E0
1.622044795E1,3.822776973E-1,5.695659518E-1,6.705398560E-1,9.592524745E-1
1.623726178E1,4.878457189E-1,3.682522103E-2,6.211719513E-1,7.906985111E-1
1.625405252E1,5.574223399E-1,-3.903317750E-1,5.509290695E-1,8.755577646E-1
1.627086909E1,3.411978483E-1,-3.971573114E-1,1.125576019E0,1.241398919E0
1.628768826E1,6.663869321E-2,-4.265636206E-1,2.392943382E0,2.431578761E0
1.630448690E1,-1.088744551E-1,-6.331839561E-1,3.142225266E0,3.207234820E0
1.632129966E1,-3.922050595E-1,-7.708064914E-1,2.874739647E0,3.002015239E0
1.633810272E1,-5.601309538E-1,-7.924033403E-1,2.421027184E0,2.608260409E0
1.635491135E1,-5.078190565E-1,-8.205314875E-1,2.031073570E0,2.248646696E0
1.637171794E1,-2.676728368E-2,-7.450748682E-1,2.966131210E0,3.058396214E0
1.638851894E1,3.766947687E-1,-6.457100511E-1,4.524764061E0,4.586101855E0
1.640533264E1,7.420786619E-1,-9.848129749E-1,4.842779160E0,4.997304006E0
1.642214400E1,1.115972161E0,-1.479639053E0,3.842241287E0,4.265857909E0
1.643894882E1,1.299521685E0,-1.634351492E0,2.048583031E0,2.925158772E0
1.645575728E1,1.523054957E0,-1.236065507E0,-9.705257416E-2,1.963917906E0
1.647256875E1,1.807962060E0,-5.975689292E-1,-1.518861771E0,2.435725049E0
1.648937320E1,1.844669700E0,9.269519150E-2,-1.765470505E0,2.555050841E0
1.650618321E1,1.511694074E0,5.877035856E-1,-1.689588547E0,2.342076842E0
1.652298520E1,1.012139320E0,7.348054647E-1,-1.385797501E0,1.866761845E0
1.653980262E1,3.815990090E-1,2.782174349E-1,-1.275241852E0,1.359876658E0
1.655660263E1,-2.187900841E-1,-3.828172684E-1,-1.819297314E0,1.871967114E0
1.657341123E1,-6.124488711E-1,-7.531694174E-1,-2.567182064E0,2.744591325E0
1.659022033E1,-7.495394349E-1,-7.535925508E-1,-3.307084560E0,3.473689593E0
1.660702808E1,-8.096034527E-1,-5.129537582E-1,-3.984939098E0,4.098575231E0
1.662383406E1,-9.766997099E-1,-1.092533842E-1,-4.317492008E0,4.427935847E0
1.664064238E1,-9.512774348E-1,3.183083832E-1,-4.347177029E0,4.461412008E0
1.665745253E1,-8.757340908E-1,6.659342051E-1,-3.816196918E0,3.971616482E0
1.667426231E1,-7.963707447E-1,9.722124338E-1,-3.194211006E0,3.432548227E0
1.669106538E1,-6.493965387E-1,1.235041857E0,-2.352980137E0,2.735609581E0
1.670787553E1,-6.082388163E-1,1.320847154E0,-1.520523071E0,2.103944408E0
1.672468276E1,-6.393202543E-1,1.446939230E0,-6.560363770E-1,1.712526569E0
1.674149089E1,-5.623898506E-1,1.423337460E0,5.202550888E-1,1.616427303E0
1.675829972E1,-4.922401011E-1,1.322275996E0,1.267725945E0,1.896798144E0
1.677510605E1,-7.552299500E-1,1.120384693E0,1.800032616E0,2.250722452E0
1.679191476E1,-9.359869957E-1,7.171812057E-1,2.110467911E0,2.417539108E0
1.680871193E1,-1.021943212E0,1.998762786E-1,2.356071472E0,2.575925317E0
1.682552546E1,-1.133930564E0,-1.328029633E-1,2.514498711E0,2.761546472E0
1.684232731E1,-1.099192023E0,-2.746218443E-1,2.709672928E0,2.936999768E0
1.685914703E1,-1.025488853E0,-7.228016853E-2,2.715484619E0,2.903568241E0
1.687593146E1,-1.172515392E0,-3.465205431E-2,1.942487717E0,2.269196254E0
1.689275957E1,-1.328719735E0,-4.002913237E-1,6.639070511E-1,1.538343866E0
1.690955585E1,-1.115885973E0,-8.696267009E-1,1.965436935E-1,1.428314226E0
1.692637326E1,-8.157851696E-1,-1.373710036E0,4.052543640E-1,1.648276617E0
1.694318747E1,-6.965858340E-1,-1.981024981E0,7.855854034E-1,2.242060709E0
1.695999509E1,-6.189400554E-1,-2.351627111E0,5.586433411E-1,2.495058966E0
1.697679591E1,-3.969692886E-1,-2.242965221E0,2.399539948E-1,2.290426930E0
1.699360256E1,-3.401914537E-1,-1.598698258E0,7.955455780E-2,1.636427595E0
1.701041760E1,-5.903133750E-1,-8.299821019E-1,7.201938629E-1,1.247405055E0
1.702722310E1,-9.260728955E-1,-8.511873484E-1,1.282567024E0,1.796415620E0
1.704403092E1,-8.105850816E-1,-1.566031933E0,1.419864655E0,2.263961092E0
1.706083706E1,-6.504582167E-1,-2.361554623E0,8.312597275E-1,2.586702314E0
1.707764438E1,-5.523929596E-1,-2.601399899E0,1.076955795E-1,2.661581814E0
1.709445416E1,-5.320217609E-1,-1.910784245E0,-5.262088776E-1,2.052081715E0
1.711126113E1,-4.588371217E-1,-8.505188823E-1,-8.739080429E-1,1.302930981E0
1.712807514E1,-4.029440284E-1,7.302880287E-3,-1.438871384E0,1.494244987E0
1.714487567E1,-3.573251367E-1,5.672238469E-1,-1.958569527E0,2.070125295E0
1.716168535E1,-8.768887818E-2,7.760127187E-1,-1.695446014E0,1.866660726E0
1.717849483E1,3.056701124E-1,7.430659533E-1,-1.141466141E0,1.395896192E0
1.719530168E1,5.033224821E-1,6.288964748E-1,-7.416439056E-1,1.094933779E0
1.721210608E1,3.485087156E-1,5.802361965E-1,-7.686853409E-1,1.024211659E0
1.722891239E1,2.554482520E-1,9.696804285E-1,-6.783485413E-1,1.210657130E0
1.724572829E1,3.524850309E-1,1.387681007E0,-2.330942154E-1,1.450598907E0
1.726254584E1,1.912250519E-1,1.909203410E0,3.553371429E-1,1.951381348E0
1.727933562E1,-1.547782719E-1,2.194849491E0,7.263154984E-1,2.317078938E0
1.729614154E1,-3.857460618E-2,1.907695293E0,9.090766907E-1,2.113577480E0
1.731295590E1,6.924329400E-1,1.367790580E0,1.489497185E0,2.137502353E0
1.732974200E1,8.518400192E-1,1.047324181E0,2.290812492E0,2.659011326E0
1.734656934E1,4.212682545E-1,7.551313043E-1,2.751903534E0,2.884555995E0
1.736338075E1,8.897388726E-2,1.383902431E-1,2.792410851E0,2.797253398E0
1.738018258E1,8.381028473E-2,-7.571711540E-1,2.317564011E0,2.439556366E0
1.739698479E1,3.609676659E-1,-1.532084703E0,1.796130180E0,2.388234666E0
1.741381101E1,4.893812239E-1,-1.954210758E0,1.286030769E0,2.390043684E0
1.743060866E1,8.879816532E-1,-1.930685520E0,1.699252129E0,2.720940240E0
1.744741777E1,1.052742839E0,-1.675748467E0,2.529410362E0,3.211591069E0
1.746422463E1,1.010803342E0,-1.768999696E0,2.843979836E0,3.498471756E0
1.748102685E1,9.304474592E-1,-2.274600506E0,1.617527962E0,2.942097320E0
1.749784593E1,8.177597523E-1,-2.470497608E0,-3.424539566E-1,2.624759828E0
1.751465072E1,8.509343863E-1,-2.218045712E0,-1.947044373E0,3.071611612E0
1.753145550E1,9.312028885E-1,-1.693523407E0,-3.319715500E0,3.841311150E0
1.754826414E1,1.073268771E0,-1.012932062E0,-3.721286774E0,4.003237748E0
1.756507192E1,1.232094884E0,-4.586580396E-1,-3.370215416E0,3.617565058E0
1.758188031E1,1.057334065E0,-1.239807010E-1,-2.872489452E0,3.063416752E0
1.759868678E1,8.142255545E-1,-2.224271894E-1,-2.381610870E0,2.526758288E0
1.761549637E1,6.480227113E-1,-7.045572996E-1,-2.140039444E0,2.344376942E0
1.763230552E1,5.377035141E-1,-1.223782301E0,-1.998063564E0,2.403960523E0
1.764910837E1,1.594899893E-1,-1.200223207E0,-1.889099598E0,2.243807054E0
1.766591815E1,-5.566583574E-2,-6.232185960E-1,-1.968288422E0,2.065347287E0
1.768272891E1,-7.204986364E-2,1.072039008E-1,-2.046225548E0,2.050298235E0
1.769952919E1,-6.128078699E-2,5.456259251E-1,-1.977258205E0,2.052075290E0
1.771634274E1,1.370943338E-1,7.932634354E-1,-1.546401024E0,1.743392630E0
1.773314808E1,6.465434283E-2,9.954612255E-1,-1.138801575E0,1.513932714E0
1.774996222E1,-1.704086363E-1,1.152023435E0,-7.021141052E-1,1.359838709E0
1.776676427E1,-5.478224754E-1,1.395077825E0,-1.943321228E-1,1.511329407E0
1.778355619E1,-7.834901214E-1,1.505524397E0,3.480234146E-1,1.732507078E0
1.780038209E1,-8.078544140E-1,1.404399037E0,4.195728302E-1,1.673620856E0
1.781718548E1,-7.155674100E-1,1.268192053E0,4.813394547E-1,1.533634726E0
1.783399856E1,-6.074836254E-1,1.203619599E0,7.330760956E-1,1.534645580E0
1.785079044E1,-5.840697885E-1,1.109031200E0,5.777778625E-1,1.380186574E0
1.786761456E1,-5.938638449E-1,1.031903267E0,7.261590958E-1,1.394562889E0
1.788441913E1,-6.048551798E-1,6.611548662E-1,1.573374748E0,1.810658345E0
1.790122594E1,-4.406183064E-1,1.195484400E-1,2.450994492E0,2.493152687E0
1.791802653E1,-4.918296039E-1,-1.875768304E-1,2.706203461E0,2.756921943E0
1.793484128E1,-3.087204099E-1,-3.729677796E-1,2.213479042E0,2.265811715E0
1.795165510E1,-1.957939565E-1,-6.435012817E-2,1.374605179E0,1.389969644E0
1.796845844E1,-3.439106345E-1,2.982218862E-1,7.127923965E-1,8.457445350E-1
1.798526868E1,-2.843798995E-1,-2.583413124E-1,5.373115540E-1,6.605421008E-1
1.800207657E1,-3.280633688E-2,-1.308579922E0,8.567218781E-1,1.564426426E0
1.801888145E1,2.398641407E-1,-2.126266956E0,9.656858444E-1,2.347572177E0
1.803567548E1,3.296505511E-1,-2.672682524E0,7.948713303E-1,2.807796608E0
1.805250052E1,2.523886263E-1,-2.791613579E0,-2.065944672E-2,2.803075669E0
1.806930719E1,1.799828410E-1,-2.420962095E0,-8.748664856E-1,2.580473340E0
1.808611206E1,4.725389779E-1,-1.637779236E0,-9.945688248E-1,1.973519966E0
1.810292096E1,5.877244473E-1,-7.140966654E-1,-8.007860184E-1,1.223361075E0
1.811973183E1,4.737609029E-1,-7.833433151E-2,-8.646383286E-1,9.890324058E-1
1.813652824E1,5.614258349E-2,1.532142162E-1,-1.153462410E0,1.164947259E0
1.815334843E1,-1.661074162E-1,9.979337454E-2,-8.820896149E-1,9.031237346E-1
1.817014863E1,-9.586787969E-2,5.964994431E-2,-4.043731689E-1,4.198409532E-1
1.818696139E1,7.947042584E-2,6.001764536E-2,-6.364459991E-1,6.441903260E-1
1.820376868E1,3.279233873E-1,1.003744602E-1,-1.369195938E0,1.411490807E0
1.822057820E1,5.328633189E-1,3.027291000E-1,-1.877391338E0,1.974888975E0
1.823738351E1,5.934765339E-1,5.909249187E-1,-2.137382507E0,2.295606813E0
1.825419465E1,6.836121082E-1,7.582564354E-1,-1.780444145E0,2.052379032E0
1.827099583E1,7.114522457E-1,7.608228922E-1,-1.073090553E0,1.495506304E0
1.828780904E1,6.571887732E-1,7.159713507E-1,-4.643421173E-1,1.077091296E0
1.830460730E1,4.657436609E-1,7.079359889E-1,-9.992218018E-2,8.532730889E-1
1.832142420E1,2.223042250E-1,7.542723417E-1,-3.269433975E-1,8.516090178E-1
1.833822202E1,3.375731111E-1,7.193922997E-1,-4.477834702E-1,9.121353640E-1
1.835503761E1,5.456460714E-1,6.457362175E-1,-4.343290329E-1,9.504454780E-1
1.837184800E1,4.960521162E-1,7.401567101E-1,-3.279905319E-1,9.494616614E-1
1.838865051E1,3.378443718E-1,7.572788596E-1,5.528831482E-2,8.310637091E-1
1.840546642E1,5.254787803E-1,4.111807346E-1,8.095769882E-1,1.049100779E0
1.842226623E1,7.174374461E-1,1.419415474E-1,1.823201180E0,1.964415036E0
1.843908057E1,5.180214047E-1,-3.359478116E-1,1.892865181E0,1.991016248E0
1.845588329E1,1.330818534E-1,-4.029206038E-1,1.903262138E0,1.949990400E0
1.847269774E1,-9.929084778E-2,-3.354927003E-1,1.665648460E0,1.701998478E0
1.848950041E1,-2.121059000E-1,-4.977977276E-2,1.593785286E0,1.608607620E0
1.850631134E1,-2.583188713E-1,3.234928846E-1,1.601340294E0,1.653985194E0
1.852311669E1,-5.721175671E-2,4.104190469E-1,1.343558311E0,1.406010638E0
1.853992389E1,3.849663734E-1,4.944105148E-1,2.281671524E0,2.366149997E0
1.855673347E1,2.522310019E-1,5.473922491E-1,3.443354607E0,3.495704464E0
1.857352883E1,3.075529337E-1,-3.971893489E-1,3.557054520E0,3.592350907E0
1.859034997E1,5.074390173E-1,-1.471716166E0,2.767104149E0,3.174950110E0
1.860715427E1,2.542836666E-1,-1.768477440E0,1.055448532E0,2.075125115E0
1.862396330E1,1.512551308E-2,-1.210151672E0,-4.316577911E-1,1.284921904E0
1.864076897E1,3.023028374E-1,-6.680326462E-1,-1.241816521E0,1.442138306E0
1.865758463E1,8.022470474E-1,-2.900326848E-1,-1.468697548E0,1.698467477E0
1.867438638E1,7.054749727E-1,-5.651652813E-3,-1.270700455E0,1.453412028E0
1.869119561E1,2.402731180E-1,-1.178695560E-1,-1.291819572E0,1.319250625E0
1.870800451E1,-3.474813700E-2,-5.089727044E-1,-1.470186234E0,1.556183861E0
1.872481416E1,-3.402400017E-1,-7.235331535E-1,-1.906281471E0,2.067165337E0
1.874161831E1,-4.435895383E-1,-6.580326557E-1,-2.512948036E0,2.635277307E0
1.875844360E1,-5.038048029E-1,-2.582080364E-1,-3.088797569E0,3.140248572E0
1.877523638E1,-6.298455596E-1,3.797016144E-1,-3.324921608E0,3.405287425E0
1.879203254E1,-7.545668483E-1,8.807311654E-1,-3.103458405E0,3.313082037E0
1.880884891E1,-7.977575064E-1,1.172411680E0,-2.633462906E0,2.991002017E0
1.882564556E1,-7.584104538E-1,1.440249920E0,-2.112565041E0,2.666915315E0
1.884246656E1,-8.263137341E-1,1.426582098E0,-1.517123222E0,2.240444987E0
1.885926885E1,-8.165212870E-1,1.054787517E0,-7.173814774E-1,1.514569213E0
1.887608396E1,-8.224038482E-1,6.186824441E-1,1.433105469E-1,1.039063987E0
1.889288984E1,-7.527186275E-1,2.766978741E-1,5.714530945E-1,9.847363530E-1
1.890969200E1,-5.640065670E-1,2.520811558E-1,5.506696701E-1,8.275780340E-1
1.892649409E1,-7.917562723E-1,6.616293192E-1,1.305227280E-1,1.040032467E0
1.894331274E1,-9.168112278E-1,8.976151347E-1,-1.493835449E-1,1.291731861E0
1.896012232E1,-8.651671410E-1,1.063260913E0,1.644649506E-1,1.380610977E0
1.897692887E1,-7.865418196E-1,9.530972242E-1,4.767570496E-1,1.324514869E0
1.899373623E1,-4.991604090E-1,2.672410011E-1,1.311239243E0,1.428260207E0
1.907777685E1,-4.902153015E-1,-2.770777047E-1,6.873216629E-1,8.885348415E-1
1.909459022E1,1.372534633E-1,-5.535877943E-1,1.530160904E0,1.633000414E0
1.911139225E1,5.307434797E-1,-9.919183254E-1,3.208016396E0,3.399552882E0
1.919542911E1,-2.941726446E-1,-1.427382231E0,-1.999012470E0,2.473865080E0
1.921224130E1,2.585470676E-3,-1.098242998E0,-7.698631287E-1,1.341206026E0
1.922904642E1,9.602469206E-2,-7.492378950E-1,5.956430435E-1,9.619609140E-1
1.924584891E1,1.492509842E-1,-8.399858475E-1,1.381863594E0,1.624007104E0
1.926266088E1,-1.959066987E-1,-7.750325203E-1,9.647140503E-1,1.252887880E0
1.927945174E1,-4.691493511E-1,-6.200557947E-1,-6.559391022E-1,1.017264178E0
1.929627729E1,-3.092049658E-1,-3.606458902E-1,-2.177376270E0,2.228596103E0
1.931308463E1,-5.455511808E-2,1.628145576E-2,-2.856117249E0,2.856684632E0
1.932989022E1,-7.170253992E-2,2.781617939E-1,-3.292216301E0,3.304724408E0
1.934670377E1,-2.453446388E-3,4.692879617E-1,-2.824227810E0,2.862953009E0
1.936351434E1,-2.018468976E-1,6.262941957E-1,-1.958571434E0,2.066153105E0
1.938031797E1,-3.930621743E-1,5.521271229E-1,-1.615571022E0,1.751973733E0
1.939712233E1,-8.376885653E-1,2.206840217E-1,-1.303614616E0,1.565194760E0
1.941393538E1,-9.909986258E-1,1.200001538E-1,-9.053478241E-1,1.347639787E0
1.943073897E1,-1.122285128E0,5.356866717E-1,-2.553176880E-1,1.269516144E0
1.944755789E1,-1.082185268E0,1.094510555E0,3.510036469E-1,1.578696257E0
1.946435626E1,-1.083414793E0,1.234812498E0,4.482402802E-1,1.702782684E0
1.948116322E1,-9.637938738E-1,1.118780136E0,3.845682144E-1,1.525929335E0
1.949797188E1,-7.167624235E-1,9.675721526E-1,7.279682159E-1,1.407082786E0
1.951476655E1,-1.963825822E-1,6.949206591E-1,1.239686966E0,1.434679272E0
1.953159159E1,2.941495180E-1,3.181165457E-1,1.752006531E0,1.804785018E0
1.954839401E1,4.846293926E-1,-5.775469542E-2,1.875044823E0,1.937522733E0
1.956520744E1,4.528994560E-1,-5.504069328E-1,1.882621765E0,2.013040094E0
1.958201022E1,1.395456791E-1,-8.373707533E-1,1.704915047E0,1.904572942E0
1.959881755E1,-1.523026824E-1,-9.449988008E-1,9.907999039E-1,1.377644109E0
1.961562681E1,-4.224610329E-2,-1.023943543E0,-1.298694611E-1,1.033010741E0
1.963243298E1,4.077428579E-1,-7.793582678E-1,-2.466859818E-1,9.135138321E-1
1.964924159E1,6.706497669E-1,-4.256748557E-1,1.306331635E0,1.528879502E0
1.966605169E1,9.338834286E-1,-8.347319365E-1,3.075405121E0,3.320697565E0
1.968284190E1,1.085441589E0,-1.707234740E0,4.110039711E0,4.580967183E0
1.969967161E1,9.067251682E-1,-2.503069162E0,3.521299362E0,4.414414453E0
1.971647258E1,6.108903885E-1,-2.858358860E0,1.806507111E0,3.436112684E0
1.973327948E1,2.373363972E-1,-2.163150787E0,-6.063804626E-1,2.259036777E0
1.975008858E1,3.458950520E-1,-1.058973789E0,-2.221123219E0,2.484845513E0
1.976687506E1,5.340058804E-1,7.168078423E-2,-2.449356079E0,2.507916589E0
1.978370577E1,3.849946260E-1,6.110304594E-1,-2.566094875E0,2.665787312E0
1.980050478E1,2.105518579E-1,6.858160496E-1,-2.295195580E0,2.404703409E0
1.981732262E1,-1.707006693E-1,3.630475402E-1,-2.291843891E0,2.326690924E0
1.983412571E1,-4.169772863E-1,3.870010376E-2,-1.739006042E0,1.788717354E0
1.985093405E1,-5.633044839E-1,-9.195163846E-2,-1.513661385E0,1.617695222E0
1.986774683E1,-7.898835540E-1,5.917710066E-2,-1.546861649E0,1.737871951E0
1.988455896E1,-8.903003931E-1,3.344503343E-1,-1.750162601E0,1.991873728E0
1.990136104E1,-8.858661056E-1,6.280438900E-1,-1.975156784E0,2.253983630E0
1.991816499E1,-9.660409689E-1,6.738476753E-1,-2.000817776E0,2.321761748E0
1.993497889E1,-8.304952383E-1,4.840979278E-1,-1.564321518E0,1.836075967E0
1.995178356E1,-7.242038250E-1,3.934036195E-1,-7.139949799E-1,1.090424880E0
1.996859056E1,-6.194216013E-1,5.126665235E-1,4.512691498E-2,8.053238621E-1
1.998539891E1,-6.166815758E-1,7.852299809E-1,2.321243286E-2,9.987097205E-1
2.000220969E1,-6.486899853E-1,8.959456682E-1,-4.656963348E-1,1.200162661E0
2.001901667E1,-7.270026207E-1,1.015193224E0,-6.371726990E-1,1.401834206E0
2.003582265E1,-7.434337139E-1,1.191178322E0,-3.006267548E-2,1.404458346E0
2.005263143E1,-7.579955459E-1,1.516651392E0,7.746095657E-1,1.864083869E0
2.006943740E1,-8.114399910E-1,1.739434004E0,1.178565025E0,2.252350113E0
2.008624512E1,-7.185585499E-1,1.560264587E0,1.196115494E0,2.093189969E0
2.010305573E1,-4.177630842E-1,1.132887840E0,1.131506920E0,1.654771514E0
2.011985968E1,-2.642990351E-1,6.955522299E-1,1.095321655E0,1.324151205E0
2.013667003E1,-5.137330294E-1,3.024836779E-1,1.248816490E0,1.383821024E0
2.015347688E1,-7.004308701E-1,-3.074955940E-1,1.213212967E0,1.434239397E0
2.017028461E1,-6.485537887E-1,-9.932210445E-1,1.137270927E0,1.643318357E0
2.018708090E1,-5.104287267E-1,-1.389543414E0,7.604694366E-1,1.664236206E0
2.020390110E1,-4.098217487E-1,-1.578739524E0,-3.619480133E-2,1.631466339E0
2.022069643E1,-6.722033024E-1,-1.640711784E0,-5.425186157E-1,1.854216516E0
2.023752402E1,-7.120960355E-1,-1.548814535E0,2.443161011E-1,1.722091050E0
2.025430382E1,-3.895379603E-1,-1.913815260E0,1.618053436E0,2.536242416E0
2.027113205E1,-2.080532610E-1,-2.516591787E0,1.996670723E0,3.219194676E0
2.028794039E1,-2.738325298E-1,-2.800333738E0,1.523300171E0,3.199577583E0
2.030474653E1,-4.109510481E-1,-3.076952934E0,7.589502335E-1,3.195704239E0
2.032156648E1,-2.440379858E-1,-3.384401560E0,1.815795898E-1,3.398043497E0
2.033836309E1,-1.761339605E-2,-3.149297714E0,-1.736946106E-1,3.154133184E0
2.035517125E1,1.416318417E-1,-2.152294159E0,-6.098690033E-1,2.241510635E0
2.037197756E1,1.361529231E-1,-8.630021811E-1,-9.303178787E-1,1.276245172E0
2.038878951E1,2.901193202E-1,-3.541630507E-2,-1.168593407E0,1.204588762E0
2.040559189E1,4.624454379E-1,2.264330685E-1,-1.598659515E0,1.679535639E0
2.042240668E1,5.868719816E-1,3.300262615E-3,-2.146668911E0,2.225447602E0
2.043921220E1,7.695446610E-1,-3.760724664E-1,-2.515770435E0,2.657579795E0
2.045601905E1,1.037971616E0,-6.694556475E-1,-2.322883129E0,2.630844346E0
2.047282577E1,1.306554198E0,-4.822079837E-1,-1.858004570E0,2.322022695E0
2.048963446E1,1.245658875E0,7.774913311E-2,-1.518280983E0,1.965423136E0
2.050644237E1,9.993924499E-1,7.492694855E-1,-1.182038307E0,1.719710612E0
2.052325221E1,6.333694458E-1,1.338557005E0,-6.600160599E-1,1.621268920E0
2.054005701E1,2.338390350E-1,1.551488757E0,-2.496480942E-1,1.588748636E0
2.055686678E1,-1.436445117E-1,1.352353096E0,-3.508796692E-1,1.404496061E0
2.057367474E1,-2.891235054E-1,9.143543839E-1,-4.337482452E-1,1.052508376E0
2.059048063E1,-3.063520193E-1,5.875492692E-1,-4.308280945E-1,7.903660864E-1
2.060728934E1,-2.857614458E-1,6.866430044E-1,-4.642734528E-1,8.767485719E-1
2.062409849E1,-3.652299047E-1,1.062026381E0,-4.149599075E-1,1.197282190E0
2.064089253E1,-5.667040944E-1,1.489843488E0,-1.528081894E-1,1.601292444E0
2.065771236E1,-8.098748922E-1,1.728661537E0,4.543266296E-1,1.962289667E0
2.067452274E1,-7.472743392E-1,1.618620753E0,1.535385132E0,2.352819497E0
2.069133061E1,-6.648313999E-1,1.314025402E0,2.424598694E0,2.836783808E0
2.070813867E1,-7.051962614E-1,6.491097808E-1,3.474850655E0,3.604612649E0
2.072494363E1,-6.281614304E-1,-1.579447389E-1,4.121611595E0,4.172195521E0
2.074174372E1,-6.783126593E-1,-4.641057849E-1,4.098144531E0,4.179747701E0
2.075855889E1,-7.157030106E-1,-3.374463320E-1,3.912292480E0,3.991507645E0
2.077536657E1,-5.262145996E-1,-1.435152888E-1,4.256714821E0,4.291517157E0
2.079217371E1,1.728000343E-1,-3.525373340E-1,4.551476479E0,4.568378329E0
2.080898398E1,6.434915066E-1,-1.102870584E0,3.285441399E0,3.524844681E0
2.082579159E1,6.876808405E-1,-1.923152447E0,1.911306381E0,2.797232982E0
2.084260434E1,5.054005980E-1,-2.295294285E0,2.669925690E-1,2.365394396E0
2.085940183E1,4.239747822E-1,-2.381528854E0,-1.122165680E0,2.666587728E0
2.087622010E1,5.221924782E-1,-2.114281416E0,-1.866364002E0,2.868132751E0
2.089302486E1,7.647181153E-1,-1.644078970E0,-2.118759632E0,2.788715087E0
2.090982964E1,1.058156013E0,-1.253508568E0,-2.068719387E0,2.640185179E0
2.092662674E1,1.143041611E0,-1.003242970E0,-2.053576946E0,2.555429290E0
2.094344800E1,8.210263848E-1,-8.010798097E-1,-2.144573689E0,2.432079253E0
2.096025878E1,5.501212478E-1,-7.170123458E-1,-1.943583488E0,2.143421766E0
2.097706199E1,3.037948608E-1,-7.824473381E-1,-1.961196423E0,2.133261954E0
2.099386948E1,-6.989777088E-3,-8.792755008E-1,-2.429103374E0,2.583353918E0
2.101067432E1,-1.763992608E-1,-7.583657503E-1,-2.635742664E0,2.748340354E0
2.102749040E1,-3.799218833E-1,-3.232617676E-1,-2.543210030E0,2.591670516E0
2.104429292E1,-5.661867261E-1,1.460932493E-1,-2.384187698E0,2.454844522E0
2.106110147E1,-8.431960344E-1,3.108766377E-1,-2.147189617E0,2.327669884E0
2.107791055E1,-8.801706433E-1,2.329483777E-1,-1.916152477E0,2.121463086E0
2.109471906E1,-1.011491895E0,1.403729618E-1,-1.675128937E0,1.961855595E0
2.111152525E1,-1.401600838E0,2.983242273E-1,-1.086877823E0,1.798550988E0
2.112831532E1,-1.849831462E0,4.605263770E-1,-1.798343658E-1,1.914758831E0
2.114514493E1,-1.892297268E0,5.550673604E-1,6.710891724E-1,2.083086509E0
2.116195045E1,-1.892028093E0,9.068750739E-1,9.253282547E-1,2.293125615E0
2.117875589E1,-1.887787342E0,1.153066158E0,7.491970062E-1,2.335508246E0
2.119556573E1,-1.791425109E0,1.263406038E0,3.627233505E-1,2.221928659E0
2.121237418E1,-1.709149361E0,1.247636318E0,5.353889465E-1,2.182757257E0
2.122916803E1,-1.608290076E0,1.120810032E0,7.198038101E-1,2.088283894E0
2.124598486E1,-1.698382735E0,8.601742983E-1,7.863740921E-1,2.059802891E0
2.126280203E1,-1.737238526E0,3.265343308E-1,7.743959427E-1,1.929847518E0
2.127960526E1,-1.694766045E0,-1.766028106E-1,1.092582703E0,2.024143636E0
2.129641010E1,-1.649993777E0,-4.690142870E-1,1.620247841E0,2.359588297E0
2.131321804E1,-1.271404743E0,-6.057199240E-1,2.372747421E0,2.759220356E0
2.133003009E1,-1.033577442E0,-6.490574479E-1,3.178122520E0,3.404411940E0
2.134683276E1,-1.191701055E0,-1.065624952E0,3.241475105E0,3.614259094E0
2.136364619E1,-1.323074341E0,-1.930873632E0,2.582180023E0,3.485176089E0
2.138045103E1,-1.168487668E0,-2.778964996E0,1.825926781E0,3.524488401E0
2.139726122E1,-1.126110435E0,-2.953142881E0,1.376812935E0,3.447432588E0
2.141406864E1,-1.233505249E0,-2.454141140E0,7.539892197E-1,2.848305405E0
2.143087393E1,-1.395144701E0,-1.837448239E0,5.309104919E-3,2.307091883E0
2.144768194E1,-1.162378669E0,-1.515604496E0,-1.038868904E0,2.174265338E0
2.146449427E1,-8.224188685E-1,-1.256861567E0,-1.668328285E0,2.244859252E0
2.148130092E1,-6.844522357E-1,-1.289658666E0,-1.849788189E0,2.356567563E0
2.149810499E1,-7.932286263E-1,-1.377747297E0,-1.388442039E0,2.110727497E0
2.151490228E1,-1.159271836E0,-1.211324453E0,-2.930450439E-1,1.702085051E0
2.153172481E1,-1.518399000E0,-1.172705412E0,7.916202545E-1,2.075436372E0
2.154852515E1,-1.660531044E0,-1.344439030E0,5.583515167E-1,2.208310682E0
2.156533490E1,-1.812918425E0,-1.550633669E0,-8.801727295E-1,2.542802002E0
2.158214657E1,-1.800815344E0,-1.632507920E0,-2.196957111E0,3.276375827E0
2.159895662E1,-1.805701375E0,-1.667637825E0,-2.943460464E0,3.834779378E0
2.161576146E1,-1.698969364E0,-1.665076256E0,-3.113005638E0,3.917879521E0
2.163256934E1,-1.799892783E0,-1.541753292E0,-3.233072281E0,4.008662323E0
2.164935731E1,-2.025788546E0,-1.172241092E0,-2.971273899E0,3.782385093E0
2.166618672E1,-2.097931385E0,-8.575553894E-1,-2.050998688E0,3.056683327E0
2.168298687E1,-2.027663946E0,-5.857074261E-1,-5.924358368E-1,2.192134688E0
2.169980092E1,-2.000038624E0,-5.443097949E-1,7.917232513E-1,2.218840543E0
2.171659635E1,-2.030428886E0,-5.669681430E-1,1.496772766E0,2.585425120E0
2.173341932E1,-1.738497496E0,-4.405443370E-1,1.793694496E0,2.536492224E0
2.175022312E1,-1.417813063E0,-2.097910345E-1,1.760508537E0,2.270153402E0
2.176703120E1,-1.186240911E0,2.938955128E-1,2.158483505E0,2.480442121E0
2.178384440E1,-1.079443812E0,1.019248962E0,2.165866852E0,2.625842077E0
2.180065027E1,-8.310417533E-1,1.380249977E0,1.164230347E0,1.987750662E0
2.181745332E1,-5.666647553E-1,1.258949041E0,5.138778687E-1,1.473136822E0
2.183426278E1,-5.876981020E-1,9.447739124E-1,4.983768463E-1,1.219166226E0
2.185107412E1,-9.640302658E-1,5.589534044E-1,1.014123917E0,1.506728436E0
2.186788117E1,-1.365970612E0,1.374533772E-1,1.365373611E0,1.936237135E0
2.188468727E1,-1.575255871E0,-1.940333843E-1,1.537543297E0,2.209778134E0
2.190149837E1,-1.563425541E0,-4.206104577E-1,1.463440895E0,2.182400475E0
2.191830722E1,-1.566389561E0,-4.337449074E-1,1.479828835E0,2.198091054E0
2.193511074E1,-1.619221926E0,-4.989806712E-1,2.719297409E0,3.203972496E0
2.195191948E1,-1.984395862E0,-6.333309412E-1,3.772282600E0,4.309182177E0
2.196872920E1,-2.207013607E0,-1.407708168E0,3.686994553E0,4.521778431E0
2.198552747E1,-2.350857019E0,-2.340341568E0,2.370272636E0,4.076998866E0
2.200234414E1,-2.567609787E0,-2.971226454E0,-1.019582748E-1,3.928256884E0
2.201914854E1,-2.430710316E0,-3.194871902E0,-2.172392368E0,4.564520535E0
2.203595973E1,-2.014835835E0,-2.997556448E0,-3.165023804E0,4.802320666E0
2.205276713E1,-1.530624866E0,-2.835706234E0,-3.108875751E0,4.477627806E0
2.206957399E1,-1.348062158E0,-2.625667095E0,-2.736968517E0,4.025219987E0
2.208638426E1,-1.173148990E0,-2.542613029E0,-1.896278858E0,3.381868282E0
2.210317550E1,-1.260887265E0,-2.478793144E0,-1.130022049E0,3.001866416E0
2.212000261E1,-1.386051178E0,-2.387255669E0,-1.120196342E0,2.979088341E0
2.213678562E1,-1.345068812E0,-2.236525774E0,-1.295962334E0,2.913893618E0
2.215361558E1,-1.067422152E0,-1.917878985E0,-1.631680489E0,2.734964546E0
2.217041818E1,-6.665533781E-1,-1.682449579E0,-1.985761642E0,2.686666949E0
2.218723118E1,-6.097762585E-1,-1.388382435E0,-2.199742317E0,2.671759557E0
2.220402618E1,-4.560552835E-1,-1.358332872E0,-1.876136780E0,2.360708332E0
2.222084467E1,-3.625137210E-1,-1.219792366E0,-1.384737015E0,1.880639842E0
2.223765573E1,-4.727512598E-1,-9.802758694E-1,-7.535848618E-1,1.323754009E0
2.225445947E1,-6.290150881E-1,-8.789748549E-1,-4.706544876E-1,1.178886094E0
2.227127511E1,-6.620434523E-1,-9.866167903E-1,-2.252950668E-1,1.209327123E0
2.228807426E1,-5.944666266E-1,-1.083262205E0,1.312446594E-2,1.235726437E0
2.230489036E1,-6.216000319E-1,-6.930541396E-1,3.064870834E-1,9.801249779E-1
2.232169391E1,-6.774625182E-1,4.533827305E-4,6.969919205E-1,9.719842624E-1
2.233850352E1,-7.891793847E-1,4.983237684E-1,7.416954041E-1,1.192158862E0
2.235531111E1,-8.373170495E-1,6.218500137E-1,6.273403168E-1,1.217108522E0
2.237211704E1,-9.805010557E-1,6.251134872E-1,4.639797211E-1,1.251968999E0
2.238891259E1,-1.029680729E0,6.789596677E-1,6.630678177E-1,1.400316952E0
2.240573884E1,-1.055706739E0,7.383568287E-1,6.870613098E-1,1.460048208E0
2.242253267E1,-1.247924089E0,8.363906145E-1,6.968994141E-1,1.656059355E0
2.243935008E1,-1.457115293E0,1.034896612E0,7.170763016E-1,1.925719189E0
2.245615056E1,-1.756719828E0,1.076533794E0,6.645326614E-1,2.164854088E0
2.247296868E1,-1.844254732E0,8.872296810E-1,7.268190384E-1,2.171800621E0
2.248977348E1,-1.692103386E0,3.868097067E-1,9.187154770E-1,1.963892498E0
2.250658291E1,-1.541030288E0,-8.132576942E-2,1.065720558E0,1.875406232E0
2.252338655E1,-1.338926315E0,-4.212294221E-1,1.443807602E0,2.013638075E0
2.254020001E1,-1.213677406E0,-5.012637377E-1,1.548298836E0,2.030149617E0
2.255700516E1,-9.422594905E-1,-8.085248470E-1,1.347096443E0,1.832002785E0
2.257381238E1,-6.713818908E-1,-1.232994437E0,9.195222855E-1,1.678258073E0
2.259061846E1,1.436395943E-1,-1.347978592E0,1.562766075E0,2.068795887E0
2.260742956E1,7.757425308E-1,-8.393082023E-1,2.518942833E0,2.766096117E0
2.262422676E1,6.854480505E-1,-3.247944713E-1,3.400631905E0,3.484196870E0
2.264104236E1,-1.542460918E-1,-1.924142838E-1,3.350779533E0,3.359842049E0
2.265784460E1,-7.481775284E-1,-5.653448105E-1,1.392147064E0,1.678528468E0
2.267465983E1,-7.714369893E-1,-9.836485982E-1,-1.079330444E0,1.651554965E0
2.269147601E1,-8.593399525E-1,-1.116360903E0,-3.226800919E0,3.520933255E0
2.270827538E1,-1.146662354E0,-1.008563876E0,-3.898593903E0,4.187012069E0
2.272508392E1,-1.156270146E0,-1.060899496E0,-2.321454048E0,2.802073748E0
2.274188961E1,-9.763606191E-1,-1.451100826E0,-2.868490219E-1,1.772358888E0
2.275870109E1,-7.773673534E-1,-1.919080496E0,9.238414764E-1,2.267300824E0
2.277550656E1,-6.520003080E-1,-2.156023741E0,7.961034775E-1,2.389000527E0
2.279232036E1,-9.057020545E-1,-1.596228838E0,-5.572319031E-1,1.918006806E0
2.280911785E1,-8.053023219E-1,-9.513728619E-1,-1.696609497E0,2.105256739E0
2.282593406E1,-5.998597145E-1,-3.855375051E-1,-2.388666630E0,2.492829540E0
2.284273899E1,-3.815371394E-1,-1.530206203E-2,-2.545600414E0,2.574079682E0
2.285956907E1,-2.910564542E-1,5.349937081E-2,-2.120233536E0,2.140786371E0
2.287635618E1,-3.285047412E-1,4.536977410E-2,-1.319583893E0,1.360615828E0
2.289316156E1,-5.088699460E-1,-7.855668664E-2,-7.626695633E-1,9.202090185E-1
2.290996992E1,-5.215713382E-1,-1.070641577E-1,-6.159315109E-1,8.141689142E-1
2.292678166E1,-6.462836266E-1,3.104067445E-1,-9.764862061E-1,1.211428984E0
2.294358854E1,-7.192671895E-1,8.557561040E-1,-1.036746979E0,1.524633758E0
2.296038898E1,-7.813571095E-1,1.052967548E0,-8.176298141E-1,1.545243704E0
2.297720213E1,-8.125515580E-1,1.205033541E0,-1.920881271E-1,1.466029917E0
2.299401338E1,-8.873622417E-1,1.117193222E0,4.861888885E-1,1.507286329E0
2.301081410E1,-6.744688153E-1,7.869458199E-1,4.881677628E-1,1.145643780E0
2.302762449E1,-4.671168327E-1,7.567963600E-1,4.776191711E-2,8.906290287E-1
2.304443472E1,-3.675748408E-1,9.464353323E-1,-5.474472046E-1,1.153494492E0
2.306124392E1,-3.939545751E-1,1.219540715E0,-4.903411865E-1,1.372193223E0
2.307805038E1,-5.184295774E-1,1.573020458E0,6.765747070E-2,1.657630876E0
2.309485608E1,-4.334137142E-1,1.624937296E0,9.775304794E-1,1.945208087E0
2.311165180E1,-2.076008171E-1,1.139466524E0,1.792986870E0,2.134545379E0
2.312847172E1,-2.128606588E-1,5.297482610E-1,2.003334045E0,2.083096296E0
2.314527160E1,-4.209265709E-1,8.514595032E-2,1.838524818E0,1.888015498E0
2.316208821E1,-5.230691433E-1,-5.558943748E-2,1.719812393E0,1.798456611E0
2.317888570E1,-2.813575566E-1,-6.949949265E-2,1.801734924E0,1.824894789E0
2.319570485E1,3.398696184E-1,-2.315846682E-1,2.430840492E0,2.465386038E0
2.321252057E1,9.414846301E-1,-3.444988728E-1,2.884922981E0,3.054153465E0
2.322931538E1,1.249946833E0,-2.353502512E-1,3.687566757E0,3.900757031E0
2.324613394E1,1.216344953E0,-1.630942225E-1,4.269947052E0,4.442807963E0
2.326293446E1,8.550175428E-1,-5.834720731E-1,3.929223061E0,4.063285434E0
2.327974787E1,6.570975184E-1,-1.451035500E0,2.502083778E0,2.966092447E0
2.329655639E1,5.687438846E-1,-2.175925255E0,3.230428696E-1,2.272108496E0
2.331336231E1,6.337335110E-1,-2.329521418E0,-1.479995728E0,2.831726603E0
2.333016643E1,6.493104696E-1,-1.955460906E0,-2.348172665E0,3.123995247E0
2.334697511E1,4.021762908E-1,-1.282676220E0,-2.721558094E0,3.035437779E0
2.336378614E1,1.836643815E-1,-5.766252279E-1,-2.774888992E0,2.840112353E0
2.338059195E1,-2.665164322E-2,-1.120459735E-1,-2.965843201E0,2.968078587E0
2.339739999E1,-1.656302065E-1,1.373683214E-1,-3.084497452E0,3.091994171E0
2.341420745E1,-2.519950867E-1,2.076120377E-1,-3.196714878E0,3.213345654E0
2.343101440E1,-2.509277463E-1,2.409462631E-1,-3.294052124E0,3.312370636E0
2.344782480E1,-1.834235489E-1,2.426631898E-1,-3.322300434E0,3.336196906E0
2.346463383E1,1.000178605E-2,4.188634455E-1,-3.389187336E0,3.414987177E0
2.348143666E1,3.452882469E-1,1.145520449E0,-3.014167309E0,3.242937810E0
2.349824964E1,9.107358754E-2,1.912781954E0,-2.188482285E0,2.908003423E0
2.351505741E1,-3.799476326E-1,2.100867748E0,-1.580770493E0,2.656471504E0
2.353186599E1,-4.471181631E-1,1.520745754E0,-8.431863785E-1,1.795423507E0
2.354867344E1,-3.525341749E-1,6.413339972E-1,1.121129990E-1,7.403775828E-1
2.356546709E1,-5.723669529E-1,2.863541543E-1,5.327777863E-1,8.327393350E-1
2.358228879E1,-7.655903697E-1,2.762187123E-1,1.161157608E0,1.417995903E0
2.359908644E1,-1.196675539E0,4.590962529E-1,1.189544678E0,1.748661847E0
2.361590219E1,-1.521152377E0,5.228563547E-1,9.424619675E-1,1.864274090E0
2.363270561E1,-1.693067789E0,8.700603843E-1,6.035900116E-2,1.904501725E0
2.364952350E1,-2.081112385E0,9.444638491E-1,2.631111145E-1,2.300493030E0
2.366631010E1,-1.849027514E0,-7.933860421E-1,1.655247688E0,2.605419174E0
2.368313282E1,-1.357864976E0,-1.167557716E0,3.330968857E0,3.781843709E0
2.369994449E1,-2.325992346E0,-2.116780996E0,4.055109978E0,5.131755948E0
2.371674852E1,-1.154355764E0,-1.712348223E0,3.509467125E0,4.071981479E0
2.373355917E1,-5.052492619E-1,-3.542904854E-1,2.591482162E0,2.663940383E0
2.375036301E1,1.303073645E0,-6.319441795E-1,-4.134712219E-1,1.506091903E0
2.376717782E1,2.369959354E-1,-4.231279790E-1,8.794543266E0,8.807905291E0
2.378398278E1,1.431705475E0,-7.855191827E-3,1.352703094E0,1.969682191E0
2.380078926E1,-2.242295742E0,-2.102826357E0,-1.114176750E0,3.269733737E0
2.381760146E1,-1.587495089E0,-2.513407946E0,-1.421298981E-1,2.976165497E0
2.383440495E1,-1.117547035E0,-1.659094214E0,-8.744716644E-2,2.002286692E0
2.385121529E1,5.272319317E-1,-9.014984369E-1,-1.098430634E0,1.515659196E0
2.386802045E1,2.011776447E0,4.200344086E-1,-1.856430531E0,2.769477874E0
2.388483308E1,6.055852175E-1,1.269508004E0,-1.800140858E0,2.284489251E0
2.390163817E1,-3.332959414E-1,8.894468546E-1,-1.496533394E0,1.772516316E0
2.391844743E1,-5.581034422E-1,1.472457409E0,-8.402147293E-1,1.784816815E0
2.393525281E1,1.344893098E0,1.059120774E0,-1.548328400E-1,1.718850624E0
2.395206271E1,2.285986662E0,7.843521833E-1,-5.139855385E0,5.679705692E0
2.396886557E1,1.675802231E0,-1.524988413E-1,-1.577068329E0,2.306233624E0
2.398567984E1,3.267647505E0,-4.453239918E0,2.284047127E0,5.977101075E0
2.400248470E1,2.332962990E0,-3.965453625E0,6.676256180E0,8.108016733E0
2.401929286E1,5.536878705E-1,-2.275949717E0,-7.308845520E-1,2.453713430E0
2.403610123E1,6.152623296E-1,-3.871605992E-1,-3.701670170E0,3.772373671E0
2.405290787E1,1.886594296E0,2.442240715E-2,-4.281680107E0,4.678954908E0
2.406971710E1,1.659919143E0,1.366580963E0,1.486241341E0,2.613769005E0
2.408652993E1,2.009632587E0,1.439488769E0,2.800496101E0,3.735442339E0
2.410333109E1,1.428858399E0,6.922966242E-1,-1.769664764E0,2.377524831E0
2.412012129E1,8.179758787E-1,2.203528881E0,-5.552197456E0,6.029222227E0
2.413694921E1,6.629638672E-1,2.854188442E0,-4.810704231E0,5.632831256E0
2.415374486E1,-7.243082523E-1,3.599209785E0,-3.142452240E-2,3.671501195E0
2.417056244E1,-4.603893757E-1,3.204980850E0,1.032076836E0,3.398388327E0
2.418737235E1,1.190047264E-1,2.487719774E0,-1.665982723E0,2.996399545E0
2.420418190E1,1.273758054E0,1.695383787E0,-3.475670338E0,4.071494819E0
2.422098690E1,6.117433310E-1,2.059363842E0,1.802215576E0,2.804138071E0
2.423780197E1,1.084328175E0,9.778765440E-1,3.422098160E-1,1.499705866E0
2.425460157E1,7.543374300E-1,-2.515886307E0,1.497348785E1,1.520210668E1
2.427140984E1,2.427770615E0,-4.412667274E0,6.310500145E0,8.073915699E0
2.428822349E1,6.564329863E-1,-3.701929569E0,3.526201248E0,5.154539945E0
2.430502722E1,-2.428107023E0,-4.140770435E0,3.087174416E0,5.707217307E0
2.432183579E1,4.763500690E-1,-1.134189010E0,2.532639503E0,2.815591759E0
2.433863998E1,-3.408350945E-1,1.898920774E0,-5.078172684E-1,1.994980463E0
2.435545561E1,-1.829237700E0,1.441946149E0,2.356461525E0,3.313341241E0
2.437225916E1,-1.505182505E0,2.772648931E-1,-1.967368603E0,2.492586892E0
2.438906973E1,-1.279484034E0,-1.282745600E-1,7.236022949E-1,1.475511449E0
2.440586573E1,9.562919140E-1,-8.041822910E-1,-3.609304428E-1,1.300566864E0
2.442268494E1,3.993098259E0,-1.886295676E0,-2.868466854E0,5.266027647E0
2.443949156E1,1.429827929E0,-5.043133497E-1,5.186071396E-1,1.602402329E0
2.445630142E1,1.554153800E0,-7.069169283E-1,-1.959700108E0,2.599144107E0
2.447310597E1,-4.979362488E-1,-4.412670612E0,9.647403717E0,1.062035785E1
2.448991631E1,3.403511286E0,-2.900983572E0,-5.369307041E0,6.987778822E0
2.450672310E1,1.049210072E0,-1.973951817E0,-1.675618649E0,2.793747555E0
2.452352959E1,7.552883029E-1,-6.621211171E-1,-3.849047184E0,3.977942812E0
2.454032225E1,-1.912391186E-2,-1.876050532E-1,-3.056562901E0,3.062374593E0
2.455715321E1,-9.370387793E-1,1.167488098E0,-3.175334930E0,3.510530167E0
2.457395194E1,-1.096511245E0,2.197450638E0,-2.936881542E0,3.828367721E0
2.459076311E1,-3.786264658E-1,1.520280361E0,-2.234392643E0,2.728941344E0
2.460757816E1,4.670879841E-1,1.849573255E0,-6.054922104E0,6.348320573E0
2.462437777E1,8.850628734E-1,2.078561544E0,-1.107603741E1,1.130408594E1
2.464117546E1,-1.600373983E-1,3.129142523E-2,-3.837249279E0,3.840712584E0
2.465799301E1,3.717472553E-1,-5.468692183E-1,-4.366779327E-2,6.626981515E-1
2.467481263E1,-2.916187048E-1,4.733355045E-1,-3.520601749E0,3.564228478E0
2.469161051E1,-2.154068649E-1,4.249932170E-1,-2.745574474E0,2.786610584E0
2.470842043E1,-1.815097451E0,2.042143822E0,1.158419800E1,1.190204072E1
2.472522529E1,1.494015217E0,6.880913973E-1,1.041213703E1,1.054125936E1
2.474203868E1,3.493328989E-1,4.238028526E-1,4.123856544E0,4.160268637E0
2.475883828E1,-8.910090327E-1,1.586480141E0,9.079713821E-1,2.033526091E0
2.477565408E1,-1.129658103E0,1.584248781E0,4.365963936E0,4.779917648E0
2.479246005E1,1.750323772E-1,-3.440728188E-1,3.887331009E0,3.906451691E0
2.480926543E1,-1.125436544E0,-6.192939878E-1,2.879052162E0,3.152629666E0
2.482607336E1,-2.467510462E0,7.230800390E-1,-1.764289856E0,3.118360357E0
2.484288333E1,-2.305468082E0,1.960544586E0,-3.634671688E0,4.729667687E0
2.485969097E1,-4.930284023E-1,1.297166109E0,-3.548991680E0,3.810650714E0
2.487649846E1,-1.335663795E-1,4.426341951E-1,-3.747642994E0,3.776055219E0
2.489330635E1,-3.892763376E0,-3.431546926E0,7.109946251E0,8.802298376E0
2.491011287E1,2.340851307E0,-4.984280586E0,2.684106827E-1,5.513137228E0
2.492692259E1,2.735373735E0,-5.530007362E0,1.920975685E0,6.461686969E0
2.494373375E1,2.856809616E0,-3.608707905E0,9.145488739E-1,4.692604135E0
2.496053053E1,2.657010317E0,-1.630733728E0,-1.373748779E-1,3.120555748E0
2.497734299E1,2.016729116E0,-6.054974794E-1,-1.904621601E0,2.839261695E0
2.499415782E1,2.112639427E0,-4.807519913E-2,-2.754531384E0,3.471743037E0
2.501096089E1,1.656860709E0,-3.219546080E-1,-2.495207310E0,3.012457750E0
2.502776622E1,1.391971111E-2,-8.822245598E-1,-2.571434021E0,2.718600165E0
2.504457989E1,-1.801021338E0,-1.717463732E-1,-2.358989716E-1,1.824506234E0
2.506137408E1,1.467408895E0,-1.731135249E0,-6.983060837E-1,2.374394555E0
2.507819332E1,1.853578329E0,-1.121748209E0,-1.007325172E0,2.389304432E0
2.509498763E1,1.335655093E0,-1.059426546E0,-1.074682236E0,2.015266990E0
2.511181001E1,1.431381702E0,-4.270310104E-1,-1.881384850E0,2.402252696E0
2.512860551E1,1.135436296E0,4.405697882E-1,-1.807393074E0,2.179446500E0
2.514542106E1,9.181109071E-1,1.130066991E0,-1.202491760E0,1.888376412E0
2.516223569E1,-5.569988489E-1,6.943143606E-1,-8.549203873E-1,1.234183543E0
2.517904660E1,-1.723952293E-1,2.037479639E0,-2.467805386E0,3.204856754E0
2.519584922E1,-2.560273409E-1,2.074335098E0,-2.451085091E0,3.221216264E0
2.521265465E1,-2.728881836E-1,2.168674707E0,-3.223381042E-1,2.209416167E0
2.522946647E1,2.643815875E-1,1.842269301E0,1.001976013E0,2.113719408E0
2.524627625E1,-3.501115441E-1,7.194558382E-1,2.862433434E0,2.972157458E0
2.526307900E1,1.755890846E-1,-1.879094541E-1,1.023409843E0,1.055229452E0
2.527987348E1,2.705215216E-1,3.532129526E-2,2.412216187E0,2.427594780E0
2.529670045E1,4.752995372E-1,6.866850257E-1,1.452083588E0,1.675109764E0
2.531350744E1,-2.208082080E-1,1.331912041E0,3.717575073E-1,1.400339099E0
2.533031608E1,6.430923939E-2,1.649240017E0,1.718095779E0,2.382431829E0
2.534711917E1,5.938746929E-1,1.378087759E0,3.436848640E0,3.750165543E0
2.536392958E1,-2.761260986E0,-2.013297081E0,1.726508522E1,1.760003111E1
2.538073954E1,1.533911467E0,-9.706017971E-1,6.364026070E0,6.617838019E0
2.539755525E1,1.034737825E-1,-1.162166834E0,2.476052284E0,2.737183495E0
2.541435336E1,-9.300110340E-1,-4.332805872E-1,3.157548904E-1,1.073477406E0
2.543115988E1,-1.107378364E0,4.497429729E-1,-1.606535912E0,2.002376892E0
2.544796930E1,-9.468240738E-1,2.575258017E-1,-2.607511044E0,2.786020317E0
2.546477581E1,6.024507880E-1,-8.766735792E-1,-1.145093918E0,1.562927893E0
2.548159015E1,2.864436865E0,-2.743008852E0,2.519362450E0,4.698540547E0
2.549839153E1,4.354997635E0,-3.970791578E0,5.607047081E0,8.134627658E0
2.551518848E1,2.978862762E0,-3.509123802E0,3.426593781E0,5.738389857E0
2.553200816E1,1.780363560E0,-2.858839512E0,-5.844478607E-1,3.418221330E0
2.554879960E1,8.936924338E-1,-2.083061218E0,-3.527949810E0,4.193359043E0
2.556562456E1,3.972338438E-1,-1.115086079E0,-5.371901989E0,5.500776551E0
2.558242000E1,-1.401820183E-1,-3.269823790E-1,-6.577373505E0,6.586987983E0
2.559923971E1,9.732007980E-2,-3.005324602E-1,-6.654501915E0,6.661995699E0
2.561603604E1,5.655792952E-1,-8.339404464E-1,-6.562032700E0,6.638946434E0
2.563285665E1,4.135608673E-2,-1.800946236E0,-3.655587196E0,4.075344822E0
2.564966290E1,6.067003012E-1,-2.247059345E-1,-3.276225090E0,3.339495299E0
2.566646976E1,-4.220931530E-1,5.366332531E-1,-2.191742897E0,2.295620789E0
2.568328278E1,-1.062549949E0,7.274999619E-1,-1.777402878E0,2.194864364E0
2.570008273E1,-8.140382767E-1,9.105703831E-1,-2.595349312E0,2.868385398E0
2.571689904E1,-9.530836344E-1,1.864469409E0,-3.189352036E0,3.815308768E0
2.573370196E1,-1.098872781E0,2.620065212E0,-3.515737057E0,4.520251117E0
2.575052050E1,-1.404726505E0,5.217131376E-1,1.121791840E0,1.871859526E0
2.576732092E1,2.397489548E-1,2.424958944E-1,2.074779510E0,2.102615951E0
2.578412575E1,7.392053604E-1,1.807838678E-1,1.563321114E0,1.738700744E0
2.580093549E1,-5.938141346E-1,6.061472893E-1,2.749300003E0,2.877269586E0
2.581774508E1,-9.862589836E-1,1.206324339E0,3.092304230E0,3.462697019E0
2.583456068E1,-1.225907326E0,1.696101069E0,2.483942986E0,3.248011756E0
2.585135913E1,-1.691598892E0,-1.148573160E0,5.614953995E0,5.975653561E0
2.586816869E1,-9.478411674E-1,-2.545772791E0,5.190362930E0,5.858261630E0
2.588497541E1,-1.276605606E0,-2.219533443E0,2.299875259E0,3.441725845E0
2.590178587E1,-1.541184187E0,-6.480461359E-1,-5.868339539E-2,1.672918478E0
2.591859046E1,-3.928232193E-2,-4.324066639E-1,4.744386673E-1,6.431257053E-1
2.593540008E1,5.124647617E-1,1.295964718E-1,-2.051350117E0,2.118360847E0
2.595220921E1,1.316053867E-1,2.802996635E-1,-3.147898674E0,3.163092465E0
2.596901440E1,-5.865454674E-2,-4.544240236E-1,-3.855444431E0,3.882575603E0
2.598582196E1,3.825261593E-1,-1.765397310E0,-2.231117249E0,2.870685999E0
2.600263002E1,1.230361581E0,-2.702996731E0,-3.284206390E-1,2.987949307E0
2.601943805E1,1.864655137E0,-3.807984591E0,2.015073776E0,4.694486952E0
2.603625737E1,2.376768351E0,-4.528928757E0,4.787522316E0,7.005754306E0
2.605305692E1,2.368533611E0,-4.563140392E0,4.878078461E0,7.087161010E0
2.606984445E1,1.733648062E0,-3.540547848E0,2.409433365E0,4.620214692E0
2.608667088E1,8.508001566E-1,-2.354096413E0,6.753826141E-1,2.592638136E0
2.610347838E1,-1.941006184E-1,-9.025758505E-1,-9.803485870E-1,1.346625994E0
2.612028290E1,-5.299353600E-1,2.637734413E-1,-2.543423176E0,2.611399886E0
2.613709916E1,-1.031935215E-1,9.460071325E-1,-3.873013496E0,3.988209114E0
2.615389960E1,3.456991911E-1,1.699481726E0,-4.424438477E0,4.752199691E0
2.617071326E1,4.442949295E-1,2.267123938E0,-4.215412617E0,4.806969156E0
2.618752066E1,7.623695135E-1,2.103504181E0,-3.559091091E0,4.203934646E0
2.620432819E1,1.319195747E0,1.011736155E0,-2.082690716E0,2.664861738E0
2.622113477E1,1.778860927E0,4.012846947E-2,-1.029807091E0,2.055835386E0
2.623794173E1,1.885374427E0,-4.140846133E-1,1.111984253E-3,1.930311900E0
2.625475126E1,1.627304435E0,-3.796323538E-1,1.046765327E0,1.971790582E0
2.627155906E1,1.690657020E0,-3.260991275E-1,2.200424194E0,2.794016541E0
2.628836823E1,1.247352362E0,-1.600781977E-1,2.103868484E0,2.451076405E0
2.630517352E1,-7.145810127E-2,8.463110328E-1,8.671216965E-1,1.213774551E0
2.632198356E1,-8.808209896E-1,2.260815859E0,-4.209318161E-1,2.462583513E0
2.633878933E1,-1.225763083E0,1.991612911E0,-1.266031265E-1,2.342017394E0
2.635559683E1,-1.205200911E0,1.216431618E0,8.694009781E-1,1.920435674E0
2.637240585E1,-1.145159721E0,9.769346714E-1,2.091405869E0,2.576775242E0
2.638921563E1,-1.009016752E0,1.048099041E0,2.475292206E0,2.871184061E0
2.640602312E1,-8.123221397E-1,2.058572054E0,1.908989906E0,2.922640693E0
2.642283187E1,-5.919098854E-1,3.068205595E0,1.371283531E0,3.412427495E0
2.643963434E1,-4.765579700E-1,1.712126017E0,1.297432899E0,2.200412490E0
2.645645054E1,3.933316469E-1,-6.232585311E-1,3.396368980E0,3.475411232E0
2.647326220E1,1.419658065E0,-4.279812813E0,7.201391220E0,8.496602982E0
2.649006056E1,1.864613056E0,-7.575112820E0,1.005881500E1,1.272944914E1
2.650687054E1,8.843823075E-1,-7.391416073E0,7.713912964E0,1.072005676E1
2.652367886E1,-4.240138531E-1,-4.918466568E0,2.604412079E0,5.581582518E0
2.654048492E1,-9.854044914E-1,-2.763391256E0,-2.280014992E0,3.715618604E0
2.655729704E1,-7.233285904E-2,-1.408447623E0,-3.898805618E0,4.146039315E0
2.657409957E1,1.128096223E0,1.125402451E-1,-4.293200016E0,4.440364036E0
2.659091196E1,1.476727724E0,1.143738508E0,-4.621975899E0,4.985130265E0
2.660771870E1,1.052057147E0,8.953078985E-1,-5.142298698E0,5.324625468E0
2.662453918E1,8.278669119E-1,8.928508759E-1,-5.858886719E0,5.984070512E0
2.664133207E1,7.397972345E-1,6.113481522E-1,-6.155134201E0,6.229504278E0
2.665814472E1,6.051002741E-1,2.538321018E-1,-6.265046120E0,6.299315833E0
2.667494635E1,6.558626294E-1,-6.400550008E-1,-4.420773983E0,4.514761212E0
2.669175974E1,1.472258568E0,-1.550552607E0,-1.813888073E0,2.803916657E0
2.670856134E1,1.382843018E0,-1.837813377E0,-4.527349472E-1,2.344095082E0
2.672537756E1,5.384553075E-1,-1.400610924E0,-9.378252029E-1,1.769508742E0
2.674218072E1,-6.124353409E-1,-3.006137609E-1,-1.796072006E0,1.921280909E0
2.675898908E1,-1.506548285E0,8.560269475E-1,-2.511887074E0,3.051564605E0
2.677579864E1,-1.539770007E0,1.752206564E0,-2.857489109E0,3.688680459E0
2.679260644E1,-1.689000249E0,2.136772633E0,-3.256534576E0,4.245413593E0
2.680941201E1,-1.735028744E0,2.533393860E0,-2.705884933E0,4.092703564E0
2.682622071E1,-1.078649282E0,2.508692980E0,-7.057571411E-2,2.731667197E0
2.684303534E1,-7.436922789E-1,2.217071056E0,1.693266869E0,2.887149972E0
2.685983545E1,-1.069075823E0,1.342656255E0,2.598006248E0,3.113725325E0
2.687664442E1,-9.827091694E-1,4.387534559E-1,3.635525703E0,3.791473203E0
2.689345380E1,-1.463796139E0,1.597836018E-1,2.642704964E0,3.025247008E0
2.691025854E1,-1.156625867E0,-9.546437263E-1,3.901771545E0,4.180065697E0
2.692707130E1,9.535491467E-2,-3.314018726E0,7.267584801E0,7.988091231E0
2.694388180E1,2.454811931E-1,-4.120286942E0,7.132443428E0,8.240678052E0
2.696068411E1,-5.174863338E-1,-3.613039017E0,4.574672699E0,5.852304960E0
2.697748109E1,-1.012453794E0,-2.671923637E0,1.531750679E0,3.241989937E0
2.699430036E1,-9.421111345E-1,-1.818351507E0,-7.038784027E-2,2.049129093E0
2.701110787E1,-3.678817749E-1,-1.309888601E0,-7.977266312E-1,1.577185127E0
2.702791375E1,3.501772881E-3,-1.036405563E0,-1.713622093E0,2.002660588E0
2.704472000E1,4.433861971E-1,-1.044627428E0,-1.900155067E0,2.213239043E0
2.706152459E1,7.804931998E-1,-1.280450821E0,-1.535936356E0,2.146584363E0
2.707832908E1,1.088490725E0,-1.835298538E0,-4.443054199E-1,2.179573373E0
2.709515018E1,1.387098193E0,-2.045027733E0,5.319595337E-2,2.471641081E0
2.711195939E1,1.543410301E0,-1.789356947E0,2.364196777E-1,2.374827974E0
2.712876724E1,1.855218887E0,-1.231357813E0,9.145832062E-2,2.228551953E0
2.714557275E1,1.688950419E0,-5.848223567E-1,1.433086395E-2,1.787393656E0
2.716237628E1,1.299364567E0,-2.072576880E-1,-4.997787476E-1,1.407509440E0
2.717919271E1,1.396728754E0,-2.335060239E-1,-2.117223740E-1,1.431852869E0
2.719599548E1,1.990627646E0,-6.171671748E-1,1.234207153E-1,2.087756313E0
2.721281006E1,2.121688366E0,-7.104859948E-1,-3.076391220E-1,2.258537956E0
2.722961120E1,1.898847461E0,-2.324081212E-1,-1.268863678E0,2.295571878E0
2.724642044E1,5.456221700E-1,3.574594557E-1,-2.669304848E0,2.747848101E0
2.726322541E1,6.315428615E-1,1.031263471E0,-2.227444649E0,2.534533566E0
2.728003916E1,1.173019171E0,1.340168834E0,-2.026633263E0,2.698012020E0
2.729684387E1,1.092507243E0,1.231704354E0,-2.042494297E0,2.623442518E0
2.731365120E1,6.711374521E-1,1.016190290E0,-1.419045448E0,1.869962077E0
2.733045969E1,4.675909281E-1,9.744941592E-1,-6.087265015E-1,1.240495101E0
2.734726881E1,4.502521753E-1,1.240853786E0,-2.067270279E-1,1.336106734E0
2.736407742E1,-1.377144217E0,4.323428869E-1,-9.503803253E-1,1.728198290E0
2.738088186E1,1.706283808E0,6.185536981E-1,4.470696449E0,4.825053352E0
2.739769306E1,1.325736403E0,3.398345709E-1,1.798652649E0,2.260136257E0
2.741449146E1,4.597536325E-1,1.254471898E0,1.771079063E0,2.218511707E0
2.743131012E1,-2.415454388E-1,1.766494513E0,2.401690483E0,2.991147646E0
2.744811284E1,-7.103126049E-1,1.097428322E0,1.923387527E0,2.325577885E0
2.746491858E1,-9.836864471E-1,4.752714038E-1,7.643108368E-1,1.333301537E0
2.748173741E1,-8.306781054E-1,7.010221481E-3,4.764528275E-1,9.576442736E-1
2.749852814E1,9.559751749E-1,-6.406301260E-1,1.050682068E0,1.558277351E0
2.751534782E1,2.771469116E0,-1.657318592E0,3.486401558E0,4.752130238E0
2.753213530E1,1.925267577E0,-2.461633682E0,5.349884987E0,6.195769928E0
2.754896307E1,1.445849419E0,-3.421422005E0,3.694169998E0,5.238654508E0
2.756575876E1,3.207379282E-1,-3.491305828E0,2.268249512E0,4.175768798E0
2.758257868E1,-9.384490252E-1,-3.478009224E0,-1.786737442E-1,3.606821182E0
2.759938724E1,3.710503578E-1,-2.418553352E0,-1.266269684E-1,2.450125114E0
2.761619821E1,6.275908351E-1,-1.573388696E0,-1.201677322E0,2.076884838E0
2.763299296E1,6.445844173E-1,-4.791246951E-1,-2.166862011E0,2.310917679E0
2.764980759E1,-1.536967754E-1,2.687016726E-1,-2.532364845E0,2.551214416E0
2.766662291E1,-3.077378869E-1,1.514158249E-1,-3.271456242E0,3.289385246E0
2.768342811E1,-4.067210555E-1,2.587685585E-1,-3.184893131E0,3.221168645E0
2.770023451E1,-3.744847775E-1,5.003314018E-1,-4.032540321E0,4.080680311E0
2.771704486E1,-3.529679775E-1,2.838789225E-1,-4.308663368E0,4.332407374E0
2.773383530E1,-5.314530730E-1,-1.943957806E-2,-4.612895966E0,4.643450167E0
2.775065867E1,-4.617322087E-1,-2.020977736E-1,-3.323073864E0,3.361080191E0
2.776746577E1,6.669861078E-2,-7.390357852E-1,-6.781558990E-1,1.005245254E0
2.778427631E1,2.940814495E-1,-1.171276808E0,1.460762024E-1,1.216433934E0
2.780108222E1,-1.545943618E-1,-1.208600163E0,-4.860610962E-1,1.311819028E0
2.781789232E1,-1.264388084E0,-2.005701542E0,1.349267960E0,2.728010251E0
