"Time (s)","Linear Acceleration x (m/s^2)","Linear Acceleration y (m/s^2)","Linear Acceleration z (m/s^2)","Absolute acceleration (m/s^2)"
1.541325100E-2,9.663319588E-1,1.887950897E-1,1.335442543E0,1.659170825E0
3.221384700E-2,5.968523026E-1,3.035583496E-1,7.706673741E-1,1.020935132E0
4.902630500E-2,3.921880722E-1,1.034488678E-1,4.571047425E-1,6.111120174E-1
6.584150100E-2,5.486607552E-1,3.087234497E-2,4.363538623E-1,7.017025146E-1
8.265251300E-2,8.733348846E-1,2.356672287E-1,8.555369377E-1,1.245068799E0
9.945653900E-2,2.871737480E-1,4.630031586E-1,8.447754979E-1,1.005229490E0
1.162682330E-1,7.485513687E-1,-7.913875580E-2,7.303752303E-1,1.048827951E0
1.330721870E-1,5.149827003E-1,4.746608734E-1,-3.182703257E-2,7.010870748E-1
1.498860300E-1,4.224576950E-1,7.874002457E-1,-7.279415131E-1,1.152548696E0
1.666892600E-1,3.156468868E-1,1.148854256E0,-8.433988094E-1,1.459733061E0
1.834980260E-1,7.392635345E-1,1.732378006E-1,-7.957257628E-1,1.099864264E0
2.003064460E-1,3.156065941E-1,-7.655143738E-3,-2.742112279E-1,4.181601619E-1
2.171117520E-1,-2.695083618E-2,-4.086303711E-2,2.477686405E-1,2.525577847E-1
2.339197540E-1,1.564834118E-1,5.936622620E-1,3.336187303E-1,6.987298453E-1
2.507294670E-1,8.059232235E-1,6.776380539E-1,7.178185135E-2,1.055394812E0
2.675350480E-1,8.144276142E-1,1.227245331E-1,1.919622272E-1,8.456968408E-1
2.843306300E-1,6.325397491E-1,-3.073406219E-2,3.357685804E-1,7.167926175E-1
3.011516630E-1,4.437375069E-1,3.797264099E-1,4.180565476E-3,5.840484556E-1
3.179628190E-1,5.431480408E-1,4.679374695E-1,-4.103959501E-1,8.260751209E-1
3.347656740E-1,4.130005836E-1,6.620378494E-1,-5.150687099E-1,9.349649042E-1
3.515746330E-1,3.436803818E-2,6.109180450E-1,6.927084178E-2,6.157925538E-1
3.683831240E-1,-6.352710724E-2,1.578968048E0,4.728898406E-1,1.649484947E0
3.851908210E-1,9.897184372E-2,2.166883945E0,3.097406328E-1,2.191145983E0
4.019963810E-1,-2.429580688E-2,2.211469650E0,4.322456121E-1,2.253447264E0
4.188040900E-1,-7.415785789E-1,2.497768879E0,1.529527307E-1,2.610015843E0
4.356013600E-1,-1.878435135E0,2.639008045E0,7.027701139E-1,3.314629369E0
4.524205420E-1,-2.553258896E0,3.522144318E0,5.598916411E-1,4.386127020E0
4.692160020E-1,-2.898833513E0,4.678589344E0,1.184398293E0,5.629851979E0
4.860347260E-1,-3.030682564E0,5.022690773E0,9.885386229E-1,5.948921584E0
5.028309390E-1,-2.220248699E0,3.904623032E0,-9.304008484E-1,4.587072165E0
5.196539150E-1,-1.428756237E0,1.911185265E0,-1.963044882E0,3.089905938E0
5.364567290E-1,-9.895675182E-1,1.960786343E0,-8.233494759E-1,2.345598285E0
5.532653020E-1,-5.052204132E-1,1.885497093E0,-1.812380552E-2,1.952095138E0
5.700748510E-1,-4.552459717E-2,-5.050954819E-1,6.624073386E-1,8.342526098E-1
5.868772060E-1,6.756985188E-1,-5.121563911E0,3.766075373E-1,5.179654296E0
6.036917200E-1,1.727157354E0,-9.919952393E0,-1.453479409E0,1.017355053E1
6.204985940E-1,3.703653574E0,-1.432024193E1,-2.408975124E0,1.498631175E1
6.373016410E-1,5.570652962E0,-1.763619232E1,-1.327335119E0,1.854263392E1
6.541092580E-1,6.726476669E0,-1.865407562E1,1.959887385E0,1.992639416E1
6.709222760E-1,6.470462799E0,-1.909156036E1,4.988538742E0,2.076632092E1
6.877296260E-1,5.856608391E0,-2.025411224E1,5.614894390E0,2.181870674E1
7.045353610E-1,5.362906456E0,-2.064947510E1,3.761147261E0,2.166351348E1
7.213427530E-1,4.897719383E0,-1.927879524E1,2.567250252E0,2.005618047E1
7.381505210E-1,3.744876385E0,-1.330401134E1,4.066297054E0,1.440678967E1
7.549598060E-1,2.147925138E0,-3.482622147E0,7.047164917E0,8.148912368E0
7.717648880E-1,2.066216469E-1,4.787970543E0,7.034241199E0,8.511633432E0
7.885732060E-1,-1.456128955E0,1.082280922E1,4.472426414E0,1.180068256E1
8.053759090E-1,-2.541018248E0,1.655288887E1,2.254541516E-1,1.674830538E1
8.221963720E-1,-2.020900965E0,2.013944244E1,-3.907298565E0,2.061427090E1
8.389973660E-1,-1.143935680E0,2.029894638E1,-6.454256058E0,2.133103922E1
8.558028370E-1,-2.276375294E-1,1.805377960E1,-6.517985344E0,1.919570029E1
8.726113260E-1,3.509211540E-2,1.424773216E1,-5.444930077E0,1.525274948E1
8.894231840E-1,-4.170298576E-1,1.130015278E1,-4.045157433E0,1.200960721E1
9.062293250E-1,-9.323344231E-1,7.894126892E0,-1.989719868E0,8.194234071E0
9.230238590E-1,-1.329852939E0,5.930826187E0,-1.076198578E0,6.172634080E0
9.398421670E-1,-1.273923516E0,6.626600742E0,-1.187377453E0,6.851611762E0
9.566403010E-1,-9.220311642E-1,7.671279907E0,-1.051010966E0,7.797647141E0
9.734582220E-1,-7.013494968E-1,8.979990959E0,-7.774912715E-1,9.040830793E0
9.902495930E-1,-9.236466885E-1,8.896189690E0,-5.357392430E-1,8.960040778E0
1.007075793E0,-2.258182049E0,1.049420929E1,7.463899851E-1,1.076033981E1
1.023881722E0,-4.853329659E0,1.383904839E1,2.818832874E0,1.493385040E1
1.040674618E0,-6.454668045E0,1.586291313E1,4.095255375E0,1.760868732E1
1.057496903E0,-5.607185364E0,7.836533546E0,2.419953823E0,9.935188082E0
1.074300765E0,-5.921781540E0,-5.377120972E-1,-2.233283520E0,6.351707344E0
1.091115694E0,-5.454729557E0,-5.044888496E0,-2.429205656E0,7.817033619E0
1.107916597E0,-5.340653896E0,-2.138502121E0,-2.621427059E0,6.321997721E0
1.124730846E0,-4.534510612E0,3.254460335E0,-1.368940830E0,5.746938103E0
1.141540505E0,-2.304733276E0,4.130816936E0,-2.171645641E0,5.204948494E0
1.158343036E0,2.327660561E0,-3.907858849E0,-3.480939865E0,5.727679007E0
1.175149044E0,7.660622120E0,-1.278362465E1,-9.199504256E-1,1.493159399E1
1.191958917E0,1.327529907E1,-1.911615753E1,2.219062328E0,2.337916341E1
1.208764978E0,1.819099045E1,-2.583988953E1,4.974253654E0,3.198992378E1
1.225573042E0,1.772463608E1,-3.035541725E1,7.412484169E0,3.592435110E1
1.242379162E0,1.122861671E1,-2.921629333E1,5.556621552E0,3.178914394E1
1.259187785E0,9.806623459E0,-2.571482277E1,2.834603786E0,2.766689271E1
1.276000020E0,8.672306061E0,-1.938094330E1,1.103287578E0,2.126139927E1
1.292815224E0,6.355226040E0,-1.186101818E1,1.350495934E0,1.352392286E1
1.309611813E0,3.076143265E0,-4.686404228E0,2.379756212E0,6.090014910E0
1.326418126E0,-7.001595497E-1,3.115284920E0,3.062270880E0,4.424107420E0
1.343227482E0,-2.235434055E0,1.165516281E1,2.452741623E0,1.211841273E1
1.360035444E0,-2.874542236E0,1.813682175E1,1.924028993E0,1.846372616E1
1.376828899E0,-3.594212770E0,1.894785118E1,1.392975569E0,1.933597194E1
1.393650422E0,-4.260729313E0,1.657565308E1,1.135792613E0,1.715214605E1
1.410457529E0,-4.860150337E0,1.398142242E1,-3.078453541E-1,1.480526944E1
1.427259163E0,-5.299553394E0,1.018224144E1,-1.645693064E0,1.159618957E1
1.444064277E0,-5.049713135E0,7.881704330E0,-2.019086599E0,9.575885160E0
1.460880397E0,-4.475120544E0,6.987710953E0,-1.701030731E0,8.470437639E0
1.477684238E0,-4.181109905E0,7.637357712E0,-8.483734727E-1,8.748179834E0
1.494492425E0,-3.099533081E0,7.602361202E0,-4.692087173E-1,8.223330103E0
1.511305390E0,-2.405955315E0,7.329076767E0,1.092485338E-1,7.714656342E0
1.528111298E0,-2.420781136E0,7.517736912E0,7.677163482E-1,7.935107937E0
1.544906026E0,-2.340392351E0,7.389647484E0,1.163523436E0,7.838246811E0
1.561719561E0,-2.230973721E0,8.531587601E0,1.761465311E0,8.992663164E0
1.578538438E0,-3.087570429E0,1.148694992E1,3.213256121E0,1.232104397E1
1.595336228E0,-4.365284443E0,1.196498108E1,4.026311874E0,1.335768198E1
1.612153823E0,-4.671082020E0,8.596429825E0,3.698765039E0,1.045937263E1
1.628957817E0,-6.187119484E0,5.180547714E0,3.905397177E0,8.964967888E0
1.645762667E0,-7.756401062E0,3.669760466E0,3.156168461E0,9.142773029E0
1.662572937E0,-6.941204071E0,1.220680714E0,9.862714410E-1,7.116397032E0
1.679380808E0,-3.880920649E0,-2.214859009E0,-3.464248657E0,5.654039642E0
1.696186725E0,1.530018806E0,-6.529596329E0,-7.524866581E0,1.007969260E1
1.712998867E0,1.182905960E1,-1.434037018E1,-7.096414089E0,1.989803912E1
1.729803360E0,2.135526848E1,-2.345966721E1,-3.695210695E0,3.193834779E1
1.746609471E0,2.148557854E1,-2.872100830E1,-2.293022871E0,3.594140171E1
1.763416731E0,2.005926323E1,-3.726390076E1,-1.645505309E0,4.235185980E1
1.780221712E0,1.617518425E1,-3.258279037E1,-1.189612508E0,3.639629091E1
1.797036204E0,1.216258812E1,-2.454071045E1,1.193517208E0,2.741531511E1
1.813841145E0,7.890556812E0,-1.572915268E1,1.282425404E0,1.764402861E1
1.830649219E0,4.446104527E0,-4.024527550E0,4.487355351E-1,6.013820004E0
1.847454617E0,1.105644703E0,7.021255970E0,1.354233384E0,7.235636369E0
1.864264339E0,-2.216607809E0,1.486469173E1,-3.165250719E-1,1.503238500E1
1.881070571E0,-3.756717682E0,1.817758751E1,4.644910246E-2,1.856178259E1
1.897878868E0,-4.528187275E0,1.726734161E1,-9.555200338E-1,1.787676103E1
1.914689719E0,-4.289955139E0,1.434490585E1,-2.270230532E0,1.514377713E1
1.931494527E0,-3.347513437E0,1.192814636E1,-2.382797480E0,1.261603130E1
1.948301554E0,-2.941649914E0,1.150110531E1,-1.941269040E0,1.202901713E1
1.965096841E0,-2.936879158E0,1.028788090E1,-2.237845659E0,1.093040282E1
1.981914964E0,-2.984378099E0,6.314328194E0,-1.974710941E0,7.257874102E0
1.998729000E0,-3.143708229E0,5.113243103E0,-7.775456309E-1,6.052498135E0
2.015531804E0,-3.116901636E0,5.664018631E0,4.382299185E-1,6.479832430E0
2.032341291E0,-3.182343721E0,6.503344536E0,1.205144286E0,7.339834771E0
2.049141797E0,-3.451928616E0,7.113653660E0,1.266396403E0,8.007723735E0
2.065960715E0,-4.340339184E0,7.875174522E0,1.033404589E0,9.051234338E0
2.082763264E0,-5.742137909E0,8.608246803E0,1.716526747E0,1.048906692E1
2.097949573E0,-7.861835480E0,1.076137543E1,3.196707010E0,1.370527613E1
2.112093336E0,-9.023902893E0,1.278335190E1,4.385226727E0,1.625038838E1
2.128999069E0,-8.811518669E0,1.269104767E1,4.661505699E0,1.613800445E1
2.145788976E0,-8.134539604E0,1.030280590E1,5.273373127E0,1.414662533E1
2.162604504E0,-5.307240009E0,5.038537025E0,3.137053490E0,7.962082420E0
2.179406796E0,-2.115319252E0,-2.253174305E0,-7.216882706E-1,3.173673573E0
2.196222698E0,-3.052901268E0,-3.971843719E-1,-6.572993994E-1,3.148015895E0
2.213023009E0,-1.814530373E0,-3.842759132E-1,-2.195043802E0,2.873744203E0
2.229819568E0,5.992087841E0,-6.502557755E0,-4.386657715E0,9.870721349E0
2.246644395E0,1.491094494E1,-1.679063988E1,-3.854632854E0,2.278420639E1
2.263447322E0,1.883903694E1,-2.160792542E1,1.259450912E-1,2.866753592E1
2.280253911E0,2.034035873E1,-2.772309113E1,4.576595306E0,3.468782495E1
2.297055758E0,1.927397346E1,-3.195484161E1,5.036599159E0,3.765587984E1
2.313870485E0,1.396563339E1,-3.038269997E1,1.245337725E0,3.346189235E1
2.330656882E0,8.180658340E0,-2.293099213E1,7.239861488E-1,2.435729309E1
2.347480834E0,6.094338894E0,-1.346261787E1,2.000575542E0,1.491259029E1
2.364296954E0,5.883988857E0,-2.964174747E0,1.661529779E0,6.794728693E0
2.381100766E0,5.609613895E0,6.226062298E0,3.527219296E-1,8.387850294E0
2.397901373E0,5.041354656E0,1.433276463E1,-7.165769935E-1,1.521042015E1
2.414718469E0,3.590237141E0,2.108354187E1,-1.704903603E0,2.145488841E1
2.431527671E0,1.221159935E0,2.128916168E1,-1.322660565E0,2.136513673E1
2.448328004E0,-1.562528610E-1,1.624871826E1,-9.950232506E-1,1.627990575E1
2.465144776E0,-1.418128014E0,1.121339989E1,-1.084609032E-1,1.130323794E1
2.481951161E0,-2.656467438E0,8.199674606E0,8.278647065E-1,8.658916957E0
2.498756092E0,-4.023653984E0,7.334805965E0,1.328651786E0,8.470801940E0
2.515560034E0,-4.785270691E0,6.800557137E0,1.190705299E0,8.400248333E0
2.532368282E0,-4.107231140E0,5.608374596E0,-2.173951864E-1,6.954888490E0
2.549179783E0,-3.877386570E0,5.316037178E0,-8.146110773E-1,6.630080625E0
2.565972577E0,-4.571706772E0,7.162612438E0,-1.503864884E0,8.629318011E0
2.582789543E0,-4.645253181E0,8.580972672E0,-2.375407696E0,1.004261076E1
2.599602551E0,-4.517195702E0,1.008812046E1,-2.614013672E0,1.135818202E1
2.616407002E0,-4.529458523E0,1.117222404E1,-2.639303684E0,1.234100922E1
2.633217029E0,-4.576054573E0,1.137533379E1,-2.328821182E0,1.248046082E1
2.650022285E0,-4.709935665E0,1.030039787E1,-1.682103872E0,1.145037832E1
2.666830429E0,-5.229627132E0,8.449089050E0,-8.192123175E-1,9.970316672E0
2.683643630E0,-6.190675259E0,7.179670811E0,2.615032494E-1,9.483697436E0
2.700447034E0,-5.702606678E0,5.045121670E0,4.473118782E-1,7.627126818E0
2.717263053E0,-4.526071548E0,1.123394012E0,8.946673870E-1,4.748448958E0
2.734062897E0,-2.345054626E0,-3.831627846E0,-3.633759618E-1,4.506960754E0
2.750867402E0,7.332947731E0,-1.267788982E1,-1.266874909E0,1.470054369E1
2.767679136E0,1.942388344E1,-2.218203163E1,-3.323825896E-1,2.948627229E1
2.784469337E0,2.302083969E1,-2.543148422E1,3.487789631E-1,3.430511764E1
2.801293666E0,2.099814987E1,-3.297956848E1,1.263267040E0,3.911738845E1
2.818089054E0,1.755793953E1,-3.207376480E1,1.297150850E0,3.658811596E1
2.834906884E0,1.579853821E1,-2.908760834E1,1.770962954E0,3.314844006E1
2.851717348E0,1.193110180E1,-1.941222382E1,3.153028727E0,2.300276535E1
2.868523875E0,6.855170250E0,-7.201754093E0,3.309982777E0,1.047924650E1
2.885329752E0,1.489049911E0,4.731015205E0,1.812102079E0,5.280481840E0
2.902138416E0,-2.966750622E0,1.460162354E1,-1.390027285E0,1.496466488E1
2.918948484E0,-4.449870110E0,1.631688499E1,-4.566981316E0,1.751854441E1
2.935754664E0,-5.106779575E0,1.550927162E1,-3.300127268E0,1.665855768E1
2.952562668E0,-5.109298229E0,1.397711372E1,-7.615820169E-1,1.490116249E1
2.969367974E0,-4.557476044E0,1.134754753E1,2.050529480E0,1.239927796E1
2.986175936E0,-4.568445206E0,8.535789490E0,4.009710312E0,1.047893938E1
3.002971578E0,-4.951611042E0,6.272121906E0,3.715623856E0,8.812708196E0
3.019793395E0,-5.603220940E0,3.866383553E0,1.244892955E0,6.920604391E0
3.036597176E0,-7.017641544E0,3.477864742E0,5.142937303E-1,7.849033957E0
3.053406390E0,-7.873726368E0,5.315279961E0,1.090484858E0,9.562265694E0
3.070216467E0,-9.137270927E0,7.505591869E0,2.370638371E0,1.205999816E1
3.087024592E0,-1.069702625E1,8.499372482E0,2.602329254E0,1.390819258E1
3.103814619E0,-1.022052860E1,6.040742397E0,1.720510960E0,1.199624656E1
3.120632479E0,-8.464923859E0,2.797386646E0,1.069228888E0,8.979062222E0
3.137445160E0,-7.977083206E0,1.487119675E0,1.312890649E0,8.220040344E0
3.154253306E0,-8.903293610E0,2.351727724E0,1.766316533E0,9.376520382E0
3.171059527E0,-8.995929718E0,2.647135973E0,2.492238998E0,9.702851930E0
3.187869554E0,-8.379688263E0,4.608879089E-1,2.088972807E0,8.648433409E0
3.204672267E0,-7.956023693E0,-1.401578903E0,-2.390488088E-1,8.082071564E0
3.221483861E0,-5.079087257E0,-4.249744415E-1,-9.665486813E-1,5.187672599E0
3.238290765E0,6.624894142E-1,3.776998520E-1,-1.511358976E0,1.692854204E0
3.255098646E0,8.263230324E0,-3.015006542E0,-5.729288101E0,1.049742740E1
3.271907095E0,1.786546135E1,-1.438611031E1,-9.953831673E0,2.500427251E1
3.288713653E0,2.098777580E1,-1.659959030E1,-1.001734543E1,2.857237023E1
3.305511758E0,2.272798920E1,-2.004998207E1,-5.863003731E0,3.086969528E1
3.322327359E0,2.251807022E1,-2.425319099E1,-1.227120399E0,3.311776841E1
3.339141344E0,2.308756638E1,-2.766825867E1,8.153909445E-1,3.604487649E1
3.355947596E0,1.966971397E1,-2.335573006E1,1.041030884E-1,3.053520283E1
3.372755099E0,1.326864529E1,-1.414801216E1,-1.809396267E0,1.948068558E1
3.389557395E0,6.500662327E0,-1.842771053E0,-1.137456894E0,6.851877409E0
3.406370199E0,3.867087364E-1,1.046946335E1,1.346065760E0,1.056272216E1
3.423171682E0,-3.789903641E0,1.655508995E1,2.128715754E0,1.711624385E1
3.439967996E0,-5.956440926E0,1.682378769E1,1.386420965E0,1.790087103E1
3.456790035E0,-7.393166542E0,1.518606949E1,5.097069740E-1,1.689779332E1
3.473599525E0,-8.011963844E0,1.238038826E1,5.075231194E-1,1.475544502E1
3.490405237E0,-8.142736435E0,9.955324173E0,6.031982303E-1,1.287542171E1
3.507216333E0,-7.680981636E0,7.318783283E0,6.060144901E-1,1.062682084E1
3.524029319E0,-7.167524338E0,5.728751183E0,3.864252567E-1,9.183753030E0
3.540829235E0,-6.581726551E0,5.216420174E0,-2.819144428E-1,8.402954217E0
3.557636677E0,-5.978851795E0,5.344388485E0,-5.438615084E-1,8.037719976E0
3.574446156E0,-5.054523945E0,5.321442604E0,2.687009275E-1,7.344260609E0
3.591252540E0,-4.719430447E0,5.281534195E0,1.537988305E0,7.247967661E0
3.608061010E0,-4.945770264E0,6.694333553E0,2.091205120E0,8.581834540E0
3.683694815E0,-7.396026611E0,7.810765266E0,-5.043313503E-1,1.076864029E1
3.700504088E0,-7.586811543E0,8.011585236E0,-5.477048159E-1,1.104740639E1
3.717309528E0,-7.096091270E0,5.887878895E0,5.883394554E-2,9.220905087E0
3.734105272E0,-5.769580364E0,4.306866646E0,2.825875878E-1,7.205346184E0
3.750924902E0,-4.203767776E0,1.861167908E0,-7.767806053E-1,4.662509797E0
3.767735651E0,-1.839408875E-1,-3.872516632E0,-1.865257382E0,4.302255736E0
3.784542066E0,1.156274796E1,-1.076835823E1,-2.417999268E0,1.598441115E1
3.801347067E0,2.282642174E1,-1.539621353E1,-5.330704212E0,2.804470231E1
3.818147319E0,2.719401169E1,-2.330770493E1,-8.435420990E0,3.679564795E1
3.834963357E0,2.652398872E1,-3.077723122E1,-1.669239879E0,4.066382054E1
3.851769681E0,2.164777565E1,-2.811148643E1,1.033609390E0,3.549577733E1
3.868580238E0,1.903337288E1,-2.094424820E1,-2.487318277E0,2.840981464E1
3.885386308E0,1.435738564E1,-1.064993572E1,-1.694033504E0,1.795620791E1
3.902193150E0,7.958044052E0,-1.482676506E0,-9.772983789E-1,8.153766423E0
3.919006423E0,8.878555298E-1,4.166925430E0,-1.701501608E-1,4.263860464E0
3.935787864E0,-5.775583267E0,9.247332573E0,1.647642136E0,1.102657002E1
3.952618897E0,-8.863563538E0,1.175794983E1,2.262392521E0,1.489733408E1
3.969426259E0,-1.017003345E1,1.226103401E1,2.325050354E0,1.609870786E1
3.986235868E0,-1.046883678E1,1.073676300E1,2.849382401E0,1.526412799E1
4.003018247E0,-1.070675850E1,8.335133553E0,3.521987915E0,1.401832828E1
4.019849067E0,-1.122869492E1,6.406294823E0,3.670506954E0,1.343863178E1
4.036643518E0,-1.055800533E1,4.666935444E0,2.774406910E0,1.187219848E1
4.053463148E0,-9.104681969E0,3.806173801E0,2.257382154E0,1.012314017E1
4.070258833E0,-6.928650379E0,3.463796139E0,1.201735377E0,7.838893269E0
4.087078227E0,-5.369980812E0,3.858486652E0,6.969848871E-1,6.649090246E0
4.103883962E0,-5.883255959E0,6.099275112E0,1.170639515E0,8.554779626E0
4.120693815E0,-6.966551781E0,8.650544167E0,6.725480556E-1,1.112731230E1
4.137505124E0,-7.335129261E0,9.348507881E0,-4.394415766E-3,1.188270761E1
4.154306778E0,-7.838247776E0,8.677005768E0,2.677772194E-3,1.169309901E1
4.171120385E0,-7.663544655E0,6.737975597E0,2.795824111E-1,1.020825147E1
4.187925215E0,-6.421729088E0,3.749090910E0,6.493211985E-1,7.464308752E0
4.204737734E0,-5.365935326E0,3.310279608E0,4.243694842E-1,6.319121969E0
4.221540193E0,-4.407363415E0,5.170271397E0,-8.520940542E-1,6.847088641E0
4.238348784E0,-3.225825310E0,4.518244743E0,-2.291188240E0,6.005832835E0
4.255155435E0,-2.206740856E0,1.417663574E0,-3.619941235E0,4.470285199E0
4.271965329E0,1.436989307E0,-3.103018284E0,-2.818729162E0,4.431579270E0
4.288768866E0,1.023044395E1,-1.089251518E1,-5.455557108E-1,1.495347791E1
4.305580164E0,1.657438660E1,-1.604115486E1,-7.152706981E-1,2.307684018E1
4.322377700E0,1.804052734E1,-1.667352676E1,-7.129528999E0,2.557923582E1
4.339193310E0,2.355943298E1,-2.666275787E1,-1.214994431E1,3.759748245E1
4.355999391E0,2.618916702E1,-3.268183899E1,-6.121713638E0,4.232552949E1
4.372809641E0,2.004465485E1,-2.704449844E1,3.131504774E0,3.380827423E1
4.389617694E0,1.228762054E1,-1.587395859E1,3.326869965E0,2.034788057E1
4.406424404E0,4.571951866E0,-6.351105213E0,6.027687341E-2,7.825785238E0
4.423219082E0,-1.788253307E0,-2.030200958E-1,-3.257696152E0,3.721780658E0
4.440040452E0,-7.213133335E0,4.573267460E0,-4.832894802E0,9.813304231E0
4.456848157E0,-9.484322548E0,7.863465786E0,-3.782924414E0,1.288786194E1
4.473655225E0,-1.060207844E1,1.232607651E1,-6.143809557E-1,1.627002438E1
4.490457612E0,-1.128259182E1,1.391349602E1,8.577119112E-1,1.793370902E1
4.507269286E0,-1.115962601E1,9.691244125E0,2.334832549E-1,1.478215071E1
4.524066994E0,-1.097849083E1,5.642213821E0,-5.621891618E-1,1.235628967E1
4.540883268E0,-1.088382149E1,4.568899155E0,-1.141439438E0,1.185897524E1
4.557699073E0,-1.004074669E1,4.809298515E0,-1.597114325E0,1.124707608E1
4.574499538E0,-8.631104469E0,4.912756443E0,-2.049043655E0,1.014049901E1
4.591311140E0,-7.151291847E0,5.412496567E0,-2.699918747E0,9.366197489E0
4.608114870E0,-6.295890808E0,5.559924126E0,-2.465758562E0,8.753911277E0
4.624929852E0,-6.258286476E0,5.651836395E0,-1.331838131E0,8.537165634E0
4.641728485E0,-6.692070961E0,5.849874020E0,-2.778007686E-1,8.892806816E0
4.658543761E0,-6.596745014E0,5.369561672E0,4.055376649E-1,8.515497527E0
4.675346454E0,-6.602783680E0,5.217129230E0,8.351933360E-1,8.456520422E0
4.692155483E0,-6.806058884E0,5.746688366E0,4.500027299E-1,8.919045193E0
4.708973597E0,-6.664567947E0,5.294821739E0,-2.006331086E-1,8.514214986E0
4.725767775E0,-6.011876106E0,3.867003202E0,-5.921113491E-1,7.172653898E0
4.742580496E0,-3.926849365E0,1.366345406E0,-1.746653318E-1,4.161436493E0
4.759386212E0,1.144860268E0,-2.347763062E0,-8.335582018E-1,2.741808837E0
4.776192738E0,9.106298447E0,-1.045652771E1,-1.376317263E0,1.393405513E1
4.793006001E0,1.504898739E1,-1.828854752E1,-2.029381394E-1,2.368510451E1
4.809809782E0,1.555099010E1,-1.659050941E1,-5.702710748E-1,2.274650534E1
4.826600215E0,1.974690819E1,-2.544156265E1,-1.428516626E0,3.223746505E1
4.843426314E0,1.958067322E1,-2.927230453E1,-4.886462092E-1,3.522086529E1
4.860235142E0,1.788217926E1,-2.641684723E1,7.039865255E-1,3.190795747E1
4.877039533E0,1.516304016E1,-1.989890862E1,3.676412702E-1,2.502038191E1
4.893844474E0,1.142932892E1,-9.331573486E0,-8.428022265E-1,1.477897624E1
4.910642650E0,8.057188034E0,2.067499161E0,-3.181857109E0,8.906011816E0
4.927462381E0,4.707890034E0,1.210987854E1,-4.957024574E0,1.390631078E1
4.944270749E0,1.528815269E0,1.737358665E1,-4.373376369E0,1.798068993E1
4.961076383E0,-1.092408657E0,2.017721176E1,-3.115870714E0,2.044558342E1
4.977897272E0,-3.244357109E0,1.935711861E1,-1.294218540E0,1.966974569E1
4.994696792E0,-3.980405331E0,1.629897881E1,5.156375766E-1,1.678589345E1
5.011487897E0,-4.722573757E0,1.355675316E1,1.648262858E0,1.445008753E1
5.028304567E0,-5.196860313E0,1.065434265E1,2.159905672E0,1.204938036E1
5.045118713E0,-5.602408886E0,8.079021454E0,2.319400072E0,1.010134593E1
5.061911985E0,-5.714107513E0,5.691300392E0,1.808830500E0,8.265215823E0
5.078732084E0,-5.352515221E0,3.648583412E0,1.403571129E0,6.628091129E0
5.095536271E0,-5.451936722E0,3.415656090E0,1.852632284E0,6.694965789E0
5.112333653E0,-6.006489277E0,4.842237473E0,2.128095627E0,8.003372300E0
5.129156906E0,-6.163873196E0,5.629138947E0,2.301465988E0,8.658942415E0
5.145966200E0,-6.442270279E0,5.980920792E0,2.936060429E0,9.267939938E0
5.162766960E0,-6.976310253E0,5.687910080E0,4.002385616E0,9.850904347E0
5.179578532E0,-7.558227539E0,4.046953201E0,4.733633041E0,9.793462897E0
5.259414078E0,-1.227765083E0,-1.249019623E1,-5.792111874E0,1.382248056E1
5.276219130E0,9.490513802E0,-1.835973740E1,-3.814941883E0,2.101674549E1
5.293030754E0,1.063103294E1,-7.328128815E0,-2.407780647E0,1.313460091E1
5.309824780E0,1.530190849E1,-1.319567013E1,-8.956256866E0,2.210177936E1
5.326645182E0,1.758514977E1,-2.509197617E1,-1.172762203E1,3.280825931E1
5.343444731E0,1.498242378E1,-2.854994965E1,-8.109401703E0,3.324657942E1
5.360259408E0,9.765817642E0,-2.817219734E1,-2.098821878E0,2.989061643E1
5.377054378E0,5.027178288E0,-2.252237892E1,-1.892867088E-1,2.307738944E1
5.393874711E0,1.154799938E0,-1.394357014E1,-8.640854359E-1,1.401796543E1
5.410681421E0,-1.828927517E0,-3.262496471E0,-1.265290022E0,3.948394348E0
5.427489993E0,-4.266769409E0,8.225885391E0,1.209452152E-1,9.267423558E0
5.444296389E0,-5.777823448E0,1.529302788E1,2.209287882E-2,1.634810183E1
5.461102347E0,-6.220111370E0,1.572940540E1,3.619053364E-1,1.691847970E1
5.477914651E0,-6.630285740E0,1.468219090E1,-6.286370158E-1,1.612211534E1
5.494720101E0,-7.581314564E0,1.313069439E1,-2.395939350E0,1.535030915E1
5.511531948E0,-7.492012978E0,1.071151829E1,-2.117532730E0,1.324200994E1
5.528334814E0,-5.880307198E0,8.244240761E0,-5.650160909E-1,1.014222666E1
5.545142735E0,-3.972232103E0,6.118955612E0,1.329236507E0,7.415329754E0
5.561960360E0,-2.625402927E0,5.679678440E0,3.295638084E0,7.071967060E0
5.578760164E0,-2.176699638E0,6.267173767E0,4.707105637E0,8.134637780E0
5.595564759E0,-3.027787685E0,7.507933140E0,4.705345631E0,9.363590967E0
5.612373035E0,-3.786085844E0,8.264253616E0,4.331061840E0,1.006928153E1
5.629183775E0,-4.348885059E0,7.780461311E0,3.166973829E0,9.459286586E0
5.645999356E0,-4.273931503E0,6.688999176E0,1.665397644E0,8.110656557E0
5.662796147E0,-4.618744850E0,5.818965435E0,8.035749197E-1,7.472542765E0
5.679605789E0,-4.368306637E0,5.966659546E0,-1.041970849E-1,7.395538252E0
5.696411431E0,-4.593380451E0,6.857442856E0,-9.067702889E-1,8.303366718E0
5.713222210E0,-5.014680386E0,8.176885605E0,-1.286312819E0,9.677968704E0
5.730026918E0,-3.729691267E0,4.769671440E0,-1.380451560E0,6.210153710E0
5.746834898E0,-3.764233589E-1,-1.711870670E0,-3.209842205E0,3.657223362E0
5.763640206E0,4.466179371E0,-9.387035370E0,-2.255971193E0,1.063732096E1
5.780451739E0,1.412271690E1,-1.903117752E1,-2.155431271E0,2.379669587E1
5.797246048E0,1.679447174E1,-2.571187973E1,-3.677915573E0,3.093027810E1
5.814066920E0,2.093352318E1,-3.758829117E1,-3.583163738E0,4.317326821E1
5.830860904E0,1.540353584E1,-3.650712585E1,-4.439665318E0,3.987166642E1
5.847683860E0,9.806812286E0,-2.745043564E1,-3.895663977E0,2.940877729E1
5.864490754E0,5.797505379E0,-1.606974411E1,1.354299307E0,1.713714886E1
5.881290861E0,2.051828384E0,-2.671438217E0,3.954682350E0,5.194814179E0
5.898109393E0,-6.593351364E-1,9.631152153E0,3.783038616E0,1.036847124E1
5.914910865E0,-1.213903427E0,1.625082016E1,1.972062588E0,1.641498548E1
5.931721949E0,-8.483009338E-1,1.628965187E1,-1.432590783E-1,1.631235408E1
5.948525069E0,-1.722415447E0,1.368689537E1,-1.703159809E0,1.389958896E1
5.965324070E0,-3.359596491E0,1.215385056E1,-1.628032446E0,1.271430146E1
5.982138999E0,-4.197236061E0,1.053785133E1,-3.913398981E-1,1.134972459E1
5.998964245E0,-4.778539658E0,8.513650894E0,7.148361802E-1,9.789161536E0
6.015757772E0,-4.969693184E0,6.417965889E0,1.239809394E0,8.211288804E0
6.032558195E0,-5.175930023E0,4.903581619E0,1.352496862E0,7.257038794E0
6.049372963E0,-5.710695744E0,5.497844219E0,1.831573844E0,8.135908043E0
6.066182511E0,-5.882740974E0,7.584446907E0,2.437809467E0,9.903201061E0
6.082998580E0,-5.990847111E0,9.020873070E0,2.717699289E0,1.116477897E1
6.099797051E0,-6.143729210E0,8.694946289E0,1.758495092E0,1.079072771E1
6.116603782E0,-6.729355335E0,7.709736347E0,6.263451576E-1,1.025263703E1
6.139704570E0,-7.102033615E0,5.322820663E0,6.971023679E-1,8.902654267E0
6.156527072E0,-7.005215645E0,4.044266701E0,3.196424246E-1,8.095141176E0
6.173330498E0,-6.714746952E0,2.505253792E0,-1.075223088E0,7.247084095E0
6.190147086E0,-5.800048828E0,8.836059570E-1,-1.411565542E0,6.034388385E0
6.206946594E0,-5.083551407E0,-1.397078514E0,-1.600190043E0,5.509530965E0
6.223753488E0,-3.316118717E0,-3.383769035E0,-1.112966657E0,4.866747478E0
6.240561475E0,-5.454025269E-1,-6.018805981E0,-3.416727185E-1,6.053117345E0
6.257370795E0,3.209178925E0,-1.223936653E1,-1.628601909E0,1.275747885E1
6.274176371E0,6.323751450E0,-2.330567169E1,-3.140206814E0,2.435169531E1
6.290985392E0,5.977168083E0,-2.767450142E1,-3.879252434E0,2.857714413E1
6.307792015E0,6.046411514E0,-3.421475983E1,-2.753966093E0,3.485388374E1
6.324597098E0,4.975677490E0,-3.793694305E1,-1.654735327E0,3.829761303E1
6.341411464E0,3.830074310E0,-3.630718231E1,9.580733627E-2,3.650876793E1
6.358214558E0,1.832671165E0,-2.488638115E1,2.582075119E0,2.508700385E1
6.375023456E0,8.842444420E-1,-8.755886078E0,3.808026075E0,9.588977622E0
6.391831920E0,1.687280178E0,4.851369858E0,3.409712791E0,6.165131403E0
6.408638112E0,2.909084797E0,1.556151390E1,1.376151800E0,1.589079240E1
6.425454030E0,2.902292252E0,2.031322861E1,-1.542575121E0,2.057741711E1
6.442253441E0,1.953159332E0,1.834074020E1,-3.793887138E0,1.883059113E1
6.459065961E0,2.457509041E-1,1.407633305E1,-4.606073856E0,1.481281411E1
6.475864538E0,-7.744364738E-1,9.991413116E0,-3.636505604E0,1.066078144E1
6.492673110E0,-5.795264244E-1,7.631086826E0,-2.594881296E0,8.081011445E0
6.509467038E0,-5.268192291E-2,7.188477516E0,-1.290955901E0,7.303666992E0
6.526292609E0,1.263971329E-1,8.623590469E0,-1.695736647E-1,8.626183632E0
6.543100510E0,-8.304166794E-2,1.049944496E1,4.095204473E-1,1.050775654E1
6.559890065E0,-2.603793144E-1,1.127081203E1,6.516147256E-1,1.129263490E1
6.576715121E0,-7.323198318E-1,1.107611942E1,6.094329953E-1,1.111701949E1
6.593548362E0,-1.248830318E0,1.058245659E1,3.007028103E-1,1.066013071E1
6.610331554E0,-2.293045998E0,1.005881500E1,1.177258492E-1,1.031754227E1
6.627130146E0,-3.770793915E0,9.364600182E0,-2.176603675E-1,1.009762345E1
6.643945677E0,-4.769346237E0,8.231785774E0,-1.218915820E0,9.591387613E0
6.660754600E0,-5.062546730E0,6.890203476E0,-2.065022945E0,8.795942422E0
6.677560903E0,-6.451237202E0,6.116944313E0,-1.734825134E0,9.057874332E0
6.694369923E0,-8.135986328E0,5.506907463E0,-3.791450858E-1,9.831787952E0
6.711176323E0,-8.348923683E0,1.988525867E0,-5.720828176E-1,8.601513852E0
6.727986930E0,-6.378579617E0,-1.756984711E0,-1.518507957E0,6.788161726E0
6.744791347E0,-2.491350174E0,-6.581018448E0,-2.097326279E0,7.342711149E0
6.761599562E0,2.983343124E0,-1.492978859E1,-2.027485847E0,1.535934967E1
6.778408562E0,7.124532223E0,-2.345554733E1,-1.128987193E0,2.453968769E1
6.795214419E0,1.080789948E1,-2.650354767E1,-1.415679336E0,2.865750998E1
6.812022120E0,1.423742294E1,-3.284487915E1,-6.079798341E-1,3.580307163E1
6.828818562E0,1.325279713E1,-3.446834183E1,1.528279543E0,3.695996291E1
6.845629154E0,1.048852730E1,-2.849531937E1,1.663562775E0,3.040986471E1
6.862446337E0,7.635226250E0,-1.660834694E1,2.784447372E-1,1.828144960E1
6.879252824E0,4.468632698E0,-4.212687969E0,-1.483880758E0,6.318015529E0
6.896064148E0,2.157791138E0,5.656045914E0,-1.985069275E0,6.370825535E0
6.912862272E0,-5.342607498E-1,1.266783428E1,-6.070405841E-1,1.269361880E1
6.929675788E0,-3.219614744E0,1.719005013E1,2.661905289E-1,1.749098624E1
6.946485072E0,-5.528170109E0,1.768482780E1,5.487289429E-1,1.853685256E1
6.963291610E0,-6.937291145E0,1.462923908E1,-1.486931443E-1,1.619144077E1
6.980099862E0,-7.691392899E0,1.058029461E1,-1.259286165E0,1.314100302E1
6.996910539E0,-7.770522118E0,7.293440342E0,-2.593440294E0,1.096819122E1
7.013714478E0,-7.426163673E0,5.949417114E0,-3.200354576E0,1.003921014E1
7.030524581E0,-6.632503986E0,5.555487156E0,-2.948192835E0,9.140316606E0
7.047328448E0,-6.362999439E0,6.478323460E0,-1.986209989E0,9.295238933E0
7.064136741E0,-6.151556492E0,7.839647770E0,-8.108018637E-1,9.997955996E0
7.080933595E0,-6.054478645E0,7.656060219E0,-1.356289387E-1,9.761678388E0
7.097741713E0,-6.304522991E0,7.147228718E0,4.527796805E-1,9.541220987E0
7.114562437E0,-6.917890549E0,6.726160049E0,1.578214407E0,9.776972914E0
7.131366644E0,-7.670233250E0,6.291325569E0,3.038227081E0,1.037516647E1
7.148166383E0,-8.041648865E0,5.368945122E0,5.254946232E0,1.100491472E1
7.164981943E0,-8.218852043E0,4.619440079E0,5.732382774E0,1.103399147E1
7.181794538E0,-7.194911957E0,2.111477852E0,3.214334726E0,8.158250089E0
7.198599123E0,-6.563430309E0,2.139065266E0,1.491134286E0,7.062414537E0
7.215406678E0,-4.716675758E0,2.432872772E0,-1.734990478E0,5.583555506E0
7.232203058E0,-8.030152321E-1,-4.739008427E0,-4.768489838E0,6.770637316E0
7.249023395E0,4.218856335E0,-1.380240917E1,-6.464763165E0,1.581450001E1
7.265830009E0,8.683822632E0,-2.063591957E1,-5.455053329E0,2.304360126E1
7.282639929E0,1.163104439E1,-2.899808884E1,-1.839009404E0,3.129780033E1
7.299445805E0,1.264193916E1,-3.645800781E1,2.556865454E0,3.867224483E1
7.316254311E0,1.070075226E1,-3.629417801E1,4.432686806E0,3.809753494E1
7.333061536E0,9.736852646E0,-3.013180923E1,4.479699135E0,3.198124343E1
7.349851629E0,8.395587921E0,-2.040411949E1,2.427120209E0,2.219695703E1
7.366675679E0,7.190787792E0,-1.153184509E1,2.688407898E-3,1.359010256E1
7.383484597E0,5.809892178E0,-2.482597351E0,-1.278141379E0,6.446067181E0
7.400291262E0,4.482054710E0,5.584154129E0,-6.554874182E-1,7.190358511E0
7.417099564E0,2.419022083E0,1.242680264E1,1.205665469E0,1.271733938E1
7.433910085E0,6.767983437E-1,1.655906487E1,2.455789089E0,1.675385285E1
7.450714085E0,-1.755349636E-1,1.906598282E1,2.141685009E0,1.918669664E1
7.467522346E0,-6.496925354E-1,1.885709381E1,3.667827845E-1,1.887184721E1
7.484330181E0,-1.097083569E0,1.635073853E1,-1.197973490E0,1.643123194E1
7.501127649E0,-1.383975744E0,1.228662682E1,-2.645103216E0,1.264409579E1
7.517945026E0,-1.392135143E0,7.277497292E0,-4.179507256E0,8.506955271E0
7.534752667E0,-2.334391832E0,5.424012184E0,-3.569098473E0,6.899837484E0
7.551561854E0,-3.495070934E0,7.595949650E0,-2.390569925E0,8.696481845E0
7.568359094E0,-3.674974442E0,9.495178223E0,-9.595772028E-1,1.022666295E1
7.585175500E0,-2.931805134E0,9.263984680E0,-7.528353930E-1,9.745955809E0
7.601986539E0,-2.647820473E0,9.076446533E0,-8.733494282E-1,9.495028918E0
7.618791825E0,-2.619481564E0,8.831965446E0,-1.601576567E0,9.350419499E0
7.635591328E0,-3.474858761E0,8.039483070E0,-1.852680206E0,8.952114577E0
7.654511290E0,-5.302239418E0,7.840943813E0,-1.457492590E0,9.576973811E0
7.671316066E0,-6.572187901E0,7.306032181E0,-1.215628862E0,9.901995433E0
7.688121606E0,-8.406723976E0,5.831220627E0,-8.381327391E-1,1.026540835E1
7.704933476E0,-8.544281006E0,1.738112926E0,-2.733167410E-1,8.723558706E0
7.721739383E0,-8.196266174E0,-3.076395988E0,5.876051188E-1,8.774296055E0
7.738547201E0,-8.355984688E0,-3.936567307E0,3.305649757E-1,9.242743936E0
7.755353689E0,-4.302410126E0,-4.818478584E0,-2.750521183E0,7.020956882E0
7.772161263E0,3.248883724E0,-1.258073902E1,-5.925031185E0,1.428062444E1
7.788964811E0,7.491571903E0,-2.260819626E1,-4.799313068E0,2.429583490E1
7.805772651E0,6.959401608E0,-2.576898766E1,-2.015321255E0,2.676818102E1
7.822588435E0,8.480211258E0,-3.235887146E1,7.206625938E-1,3.345937686E1
7.839391992E0,8.162612915E0,-3.414683914E1,4.089701176E0,3.534629441E1
7.856190961E0,6.336044312E0,-2.972687721E1,5.599258900E0,3.090605744E1
7.873010845E0,3.583927631E0,-2.106997299E1,3.807863951E0,2.170917150E1
7.889819010E0,1.399083614E0,-9.321773529E0,1.859697580E0,9.607880712E0
7.906620116E0,-1.061186790E-1,4.611003399E0,1.340383410E0,4.803044993E0
7.923433194E0,-4.788947105E-1,1.519577026E1,1.054889083E0,1.523986762E1
7.940248014E0,-2.311352253E0,2.082731438E1,2.268293858E0,2.107758360E1
7.957057826E0,-4.781747818E0,2.106354332E1,3.085039139E0,2.181869464E1
7.973853510E0,-5.549990654E0,1.579093170E1,1.431218028E0,1.679893762E1
7.990653995E0,-5.480010033E0,9.728987694E0,-1.250723124E0,1.123601441E1
8.007468609E0,-5.061536312E0,5.824209213E0,-2.269807100E0,8.043170213E0
8.024271241E0,-4.135674953E0,3.895310402E0,-3.044451237E0,6.445613530E0
8.041084259E0,-3.038124561E0,3.532983780E0,-3.955629349E0,6.112215538E0
8.057881081E0,-1.858684063E0,4.139456272E0,-3.517214298E0,5.741132388E0
8.074705716E0,-1.619528294E0,6.676945686E0,-2.265405655E0,7.234399655E0
8.091504777E0,-1.853864193E0,9.127512932E0,-4.575071335E-1,9.325106838E0
8.108313868E0,-1.959204435E0,1.023776627E1,-5.828647017E-1,1.043983100E1
8.125112807E0,-2.189338446E0,1.009148121E1,-1.395100713E0,1.042005287E1
8.141931185E0,-2.773959875E0,9.701018333E0,-2.440724850E0,1.038083561E1
8.158740031E0,-3.343990564E0,8.314031601E0,-2.748027325E0,9.373209084E0
8.175542755E0,-4.319281101E0,6.836359501E0,-2.711559772E0,8.529041966E0
8.192357267E0,-5.693717003E0,6.495411396E0,-2.408759117E0,8.967212666E0
8.209164406E0,-5.978948116E0,5.574814796E0,-1.806932926E0,8.372059913E0
8.225962388E0,-5.740018845E0,4.670701027E0,-5.859860182E-1,7.423384944E0
8.242775740E0,-4.560925484E0,4.095371723E0,4.289797544E-1,6.144764800E0
8.259588301E0,-2.205796719E0,1.501016617E0,3.375042677E-1,2.689330619E0
8.276380169E0,1.338526249E0,-5.696143150E0,-2.027826548E0,6.192719904E0
8.293200166E0,6.748845100E0,-1.705148506E1,-4.255502701E0,1.882576310E1
8.310011525E0,1.306720924E1,-3.141769218E1,-3.670710564E0,3.422422323E1
8.326815357E0,1.649663734E1,-4.079151917E1,1.559937000E-1,4.400126604E1
8.343624580E0,1.765832901E1,-3.668478775E1,6.851778984E0,4.128604015E1
8.360432074E0,1.571288872E1,-2.838440704E1,1.177113056E1,3.451273605E1
8.377242995E0,1.061194992E1,-2.151626778E1,1.081063843E1,2.631412479E1
8.394047305E0,4.680728436E0,-1.338107300E1,4.462245464E0,1.486182922E1
8.410853193E0,-1.241541862E0,-5.234328747E0,-3.030342102E0,6.174349916E0
8.427659181E0,-6.080126762E0,3.667801619E0,-7.722101212E0,1.049054609E1
8.444476816E0,-8.349224091E0,9.616402626E0,-8.049434662E0,1.506579373E1
8.461277199E0,-8.594935417E0,1.168542099E1,-4.949635506E0,1.532712857E1
8.478083341E0,-8.153341293E0,1.206114388E1,-2.788684845E0,1.482312143E1
8.494895249E0,-7.594495773E0,1.138133526E1,-2.609381914E0,1.392910738E1
8.511713190E0,-6.816221237E0,1.074925709E1,-3.113768578E0,1.310354741E1
8.528509271E0,-5.955783367E0,1.062793636E1,-2.599134684E0,1.245712198E1
8.545319898E0,-5.481518745E0,1.030981255E1,-1.371199489E0,1.175667770E1
8.562124228E0,-5.165436745E0,9.285359383E0,-1.657941341E-1,1.062671743E1
8.578933064E0,-4.933362007E0,7.350850582E0,6.710925698E-1,8.878256034E0
8.595734525E0,-4.788959503E0,5.515562057E0,1.092080355E0,7.385675151E0
8.612549120E0,-4.745253086E0,4.686169147E0,1.321063399E0,6.798736400E0
8.629352159E0,-4.432808876E0,5.728588104E0,1.163502693E0,7.336228917E0
8.646165817E0,-4.696690559E0,8.223248482E0,1.438823700E0,9.578670651E0
8.662960951E0,-5.259544373E0,1.059327316E1,2.043848753E0,1.200239814E1
8.679782931E0,-6.001121044E0,1.158367920E1,1.760860085E0,1.316418269E1
8.696581361E0,-5.753568649E0,9.408547401E0,1.079974294E0,1.108109475E1
8.713392852E0,-5.947467804E0,7.327689648E0,-2.954266965E-1,9.442175903E0
8.730198017E0,-6.636808872E0,6.891470909E0,-1.549231529E0,9.692250597E0
8.747007789E0,-6.740060806E0,7.013903141E0,-2.302865028E0,9.996321538E0
8.763818294E0,-5.444658279E0,5.296316147E0,-2.263532877E0,7.925834315E0
8.780623053E0,-2.335982800E0,1.436700821E0,-2.382832527E0,3.633017443E0
8.797430738E0,2.853857040E0,-4.156138420E0,-3.170881271E0,5.955877317E0
8.814248334E0,1.078300476E1,-1.435578442E1,-2.790299654E0,1.816996175E1
8.831047060E0,1.300252914E1,-2.583445358E1,-1.154761553E0,2.894508992E1
8.847855326E0,1.569933987E1,-4.343776321E1,-3.186092377E-1,4.618885209E1
8.864662546E0,1.407053375E1,-4.642211914E1,1.558378577E0,4.853268599E1
8.881470314E0,1.283669090E1,-3.539759064E1,2.117333889E0,3.771277183E1
8.898278418E0,1.257283592E1,-2.244206429E1,3.107545853E0,2.591098790E1
8.915084243E0,1.110455608E1,-1.285494614E1,1.918823957E0,1.709510723E1
8.931891646E0,8.585828781E0,-7.269035816E0,-1.710251689E0,1.137894101E1
8.948701500E0,5.906015873E0,-3.034838200E0,-4.518805504E0,8.031865884E0
8.965494081E0,1.677617073E0,3.193261862E0,-2.492057800E0,4.384252780E0
8.982316202E0,-1.024003029E0,1.101930046E1,-6.146515608E-1,1.108383333E1
8.999114948E0,-2.113981724E0,1.550275612E1,-9.069609642E-1,1.567249004E1
9.015931893E0,-2.703456163E0,1.641596794E1,-2.538096905E0,1.682957559E1
9.032727738E0,-3.407531261E0,1.571079826E1,-3.740572453E0,1.650552434E1
9.049545201E0,-4.059174538E0,1.303791046E1,-4.475262165E0,1.436982876E1
9.066342125E0,-4.543130398E0,8.632407188E0,-4.613249779E0,1.079076277E1
9.083159630E0,-6.106791019E0,4.897023201E0,-3.670778751E0,8.645712777E0
9.099970563E0,-7.385597706E0,3.718449354E0,-2.447561741E0,8.623484072E0
9.116771616E0,-7.821198463E0,3.904710054E0,-1.681656241E0,8.902015150E0
9.133593362E0,-7.530269146E0,5.419632912E0,-1.171043754E0,9.351401915E0
9.150377439E0,-7.109652996E0,6.963243008E0,-2.149639726E-1,9.953900161E0
9.167334181E0,-6.281291008E0,7.833090782E0,7.652952075E-1,1.006963776E1
9.184007146E0,-5.972854614E0,8.154369354E0,9.769777656E-1,1.015496023E1
9.200816309E0,-6.562246323E0,7.870681763E0,1.922426581E0,1.042623768E1
9.217623731E0,-7.442489624E0,7.775849342E0,2.327447414E0,1.101233382E1
9.234432902E0,-7.923510075E0,6.940484047E0,2.195251703E0,1.075971472E1
9.251236593E0,-7.624229431E0,5.949244499E0,1.596522927E0,9.801595278E0
9.268047687E0,-7.957533360E0,5.883435249E0,1.150655270E0,9.962989263E0
9.284855822E0,-9.227005959E0,5.071435928E0,1.512980700E0,1.063702082E1
9.301662218E0,-8.416131020E0,2.527155399E0,7.236132026E-1,8.817107906E0
9.318468786E0,-4.788839817E0,2.459378242E-1,-9.412070513E-1,4.886649457E0
9.335276932E0,-1.063561440E0,-6.521977901E0,-3.895977736E-1,6.619603093E0
9.352085402E0,3.044991493E0,-1.931298065E1,-1.159804463E0,1.958592202E1
9.368891938E0,9.179861069E0,-2.696208954E1,-1.142767310E0,2.850491254E1
9.385700013E0,1.811016846E1,-3.119877434E1,-2.554763079E0,3.616446510E1
9.402508381E0,2.125165176E1,-3.549748993E1,-2.223031998E0,4.143243132E1
9.419299925E0,2.020096588E1,-3.930646133E1,-2.242230177E0,4.425047481E1
9.436122310E0,1.664398384E1,-3.093783760E1,-9.894731045E-1,3.514471583E1
9.452930852E0,1.442266560E1,-1.990275955E1,3.504068136E0,2.482763811E1
9.469740971E0,1.181321239E1,-8.284254074E0,4.571361542E0,1.513532950E1
9.486546734E0,9.085996628E0,3.304011345E0,3.908166885E-1,9.675978678E0
9.503353060E0,6.006739616E0,1.311663818E1,-4.833605289E0,1.521482363E1
9.520150564E0,1.779201508E0,1.906843567E1,-7.479444504E0,2.055998266E1
9.536965880E0,-1.773286819E0,1.993989754E1,-6.195619106E0,2.095542307E1
9.553774238E0,-4.506472111E0,1.892827988E1,-4.053867817E0,1.987515822E1
9.570583614E0,-5.462530613E0,1.606856155E1,-2.574619293E0,1.716585493E1
9.587395410E0,-4.660219193E0,1.248537254E1,-1.804452062E0,1.344835372E1
9.604199437E0,-2.990588427E0,1.108844376E1,-2.337555885E0,1.172012677E1
9.621008874E0,-1.660410881E0,1.086792946E1,-2.954233646E0,1.138403933E1
9.637814627E0,-5.803174973E-1,9.606951714E0,-2.788954735E0,1.002040708E1
9.654628032E0,-6.043925285E-1,8.576688766E0,-1.882029533E0,8.801529168E0
9.671432331E0,-1.362366199E0,8.954122543E0,-1.016059160E0,9.113985319E0
9.688237415E0,-1.874583244E0,9.047653198E0,-1.442860007E0,9.351787836E0
9.705045864E0,-2.057526112E0,8.689530373E0,-2.434072495E0,9.255596183E0
9.721854589E0,-2.385915756E0,8.494751930E0,-3.046601057E0,9.334622775E0
9.738662409E0,-3.103442192E0,8.424633980E0,-2.754265070E0,9.391048249E0
9.755468406E0,-3.811711073E0,7.976852417E0,-3.263159513E0,9.423774498E0
9.772276612E0,-4.691147327E0,8.512742996E0,-3.737908125E0,1.041372238E1
9.789086274E0,-5.091167927E0,8.962296486E0,-2.948986053E0,1.072097327E1
9.805892039E0,-5.226631641E0,7.437099934E0,-2.868684530E0,9.531919254E0
9.822696550E0,-5.076951504E0,3.993399620E0,-3.220155239E0,7.217484109E0
9.839512224E0,-4.804638386E0,6.493945122E-1,-3.349641323E0,5.892907622E0
9.856315171E0,-2.540713787E0,-1.647869110E0,-4.060538292E0,5.065438813E0
9.873123021E0,9.339308739E-1,-3.965285301E0,-4.909391880E0,6.379486110E0
9.889931909E0,6.319530487E0,-1.843054199E1,-6.080255985E0,2.041055748E1
9.906740246E0,1.070340157E1,-3.971001434E1,-1.237374902E0,4.114582775E1
9.923545869E0,7.267684937E0,-4.346300507E1,8.905323029E0,4.495727785E1
9.940338438E0,6.348776340E0,-4.127890778E1,1.254735565E1,4.360838591E1
9.957162148E0,6.634140968E0,-3.460403442E1,1.283344936E1,3.749864594E1
9.973960985E0,5.104987144E0,-2.912383652E1,7.542543888E0,3.051472948E1
9.990773658E0,1.538992405E0,-2.112016678E1,-9.340190291E-1,2.119675291E1
1.000758639E1,-1.611097097E0,-7.628653526E0,-6.104829788E0,9.902572152E0
1.002439651E1,-2.698762417E0,7.200973511E0,-6.116534233E0,9.825951817E0
1.004119600E1,-2.145553827E0,1.785710526E1,-4.177929878E0,1.846441733E1
1.005801147E1,-1.469885588E0,2.276831055E1,-2.334409952E0,2.293482066E1
1.007481496E1,-2.324320316E0,2.270184326E1,-1.862463593E0,2.289639542E1
1.009162091E1,-3.061830044E0,1.770760345E1,-3.848538399E0,1.837784729E1
1.010843139E1,-3.874254704E0,1.227213764E1,-5.713438988E0,1.408043312E1
1.012523874E1,-4.278828144E0,8.377316475E0,-6.884577751E0,1.165698127E1
1.014204826E1,-4.627064228E0,7.564436913E0,-6.231192112E0,1.083781271E1
1.015883086E1,-4.330436230E0,8.586713791E0,-5.344199181E0,1.100203602E1
1.017566755E1,-3.308012962E0,9.177787781E0,-4.393260479E0,1.069932128E1
1.019247113E1,-2.255651951E0,9.428425789E0,-2.982599020E0,1.014293229E1
1.020927589E1,-9.713826180E-1,8.113058090E0,-1.997975230E0,8.411729952E0
1.022608482E1,3.099336624E-1,6.213698387E0,-3.341411352E-1,6.230389781E0
1.024289394E1,1.280348301E0,5.532017231E0,1.977093935E0,6.012603999E0
1.025970173E1,1.346519947E0,6.770414352E0,3.278245449E0,7.641892416E0
1.027650724E1,-8.135366440E-2,8.687979698E0,3.409779549E0,9.333499142E0
1.029331668E1,-2.311009645E0,8.665224075E0,2.704898357E0,9.367141986E0
1.031012484E1,-4.047833920E0,7.198720932E0,2.322326183E0,8.579029164E0
1.032692930E1,-6.757444382E0,5.604568481E0,1.767099857E0,8.955271316E0
1.034374162E1,-8.393031120E0,4.063135147E0,-1.175100446E0,9.398558382E0
1.036054686E1,-7.577765465E0,6.008710861E-1,-5.197852135E0,9.208759000E0
1.037735023E1,-4.144370556E0,-5.547773361E0,-6.234626770E0,9.317948676E0
1.039416325E1,-1.585960388E-3,-1.429712963E1,-4.040400505E0,1.485707759E1
1.041096179E1,3.151069164E0,-2.251932526E1,1.675505280E0,2.280036326E1
1.042781004E1,7.535252571E0,-3.429305649E1,6.702566624E0,3.574518365E1
1.044458856E1,1.022706604E1,-4.389477921E1,9.099489212E0,4.597983498E1
1.046139203E1,1.117090321E1,-4.485680389E1,1.043651676E1,4.739032408E1
1.047820148E1,1.076462173E1,-3.150003433E1,1.100089455E1,3.505922025E1
1.049500195E1,8.128105164E0,-1.583321762E1,7.698283195E0,1.939124643E1
1.051181794E1,4.345588207E0,-4.049099922E0,4.360542297E0,7.368424267E0
1.052862189E1,3.336577415E-1,5.035493374E0,-1.007553101E0,5.146132942E0
1.054543605E1,-4.709866524E0,1.227050972E1,-7.801466465E0,1.528434266E1
1.056224324E1,-8.849277496E0,1.756433105E1,-1.067805195E1,2.237937066E1
1.057904524E1,-1.010331154E1,1.775636673E1,-9.557144165E0,2.255447778E1
1.059585635E1,-9.528758049E0,1.624794388E1,-6.376121998E0,1.988587041E1
1.061266030E1,-8.897577286E0,1.275925064E1,-4.205038548E0,1.611358767E1
1.062947518E1,-8.787313461E0,8.804267883E0,-3.639862537E0,1.296073339E1
1.064627801E1,-8.275225639E0,6.098431587E0,-2.984068632E0,1.070396622E1
1.073871017E1,-4.441250324E0,7.174849510E0,1.787464023E0,8.625438978E0
1.075552284E1,-4.213044167E0,7.541523933E0,1.247096896E0,8.728091146E0
1.077232618E1,-4.249681473E0,7.919056416E0,2.927598953E-1,8.992049571E0
1.078913833E1,-4.089698315E0,7.250852585E0,-6.843404770E-1,8.352773037E0
1.080595868E1,-3.982529879E0,6.149906635E0,-9.192230701E-1,7.384230963E0
1.082276511E1,-3.941240549E0,4.825314522E0,-1.274678469E0,6.359390104E0
1.083956269E1,-3.696167231E0,6.425287247E0,-4.500572085E-1,7.426204945E0
1.085637346E1,-2.601769686E0,7.335282803E0,-9.982442856E-2,7.783671641E0
1.087318181E1,-6.048355103E-1,5.224904060E0,-1.072700024E-1,5.260889211E0
1.088999759E1,3.313022614E0,-1.422954559E0,-2.481106997E0,4.376849374E0
1.090679653E1,6.555705547E0,-7.619603157E0,-3.247023582E0,1.056308618E1
1.092360322E1,9.771470070E0,-1.702463150E1,-1.731139421E0,1.970574913E1
1.094041298E1,1.225976944E1,-3.579996872E1,1.302581429E-1,3.784120339E1
1.095722221E1,1.135130692E1,-4.346996689E1,6.807384491E-1,4.493276750E1
1.097402699E1,9.889415741E0,-4.256786346E1,8.528139591E-1,4.370984826E1
1.099083506E1,1.153866959E1,-3.496601105E1,4.643018246E0,3.711226809E1
1.100764515E1,1.247754192E1,-2.087302208E1,7.740991116E0,2.552048288E1
1.102445072E1,1.068735123E1,-9.458852768E0,3.971706867E0,1.481431157E1
1.104125830E1,4.592123985E0,6.279530525E-1,-1.414180398E-1,4.637017015E0
1.105806563E1,-4.142436981E0,1.129916477E1,-1.915450811E0,1.218605188E1
1.107487622E1,-9.040555954E0,1.423203278E1,-5.207968712E0,1.764668091E1
1.109168286E1,-1.002910900E1,1.141627121E1,-8.072601318E0,1.720700926E1
1.110848957E1,-9.795045853E0,1.071830368E1,-8.717823982E0,1.693592076E1
1.112529490E1,-7.117021084E0,1.056403351E1,-6.526053905E0,1.431223856E1
1.114210497E1,-4.658304691E0,1.085433197E1,-3.872131586E0,1.243019421E1
1.115889908E1,-3.253256798E0,9.909393311E0,-2.172115326E0,1.065353653E1
1.117572015E1,-2.894532442E0,8.462450027E0,-4.982165098E-1,8.957655844E0
1.119251396E1,-3.875776291E0,7.209142208E0,-2.215223312E-1,8.187945125E0
1.120933673E1,-4.346835136E0,6.007179737E0,4.737436771E-2,7.415081148E0
1.122613290E1,-4.687900543E0,5.791976929E0,4.042543173E-1,7.462360873E0
1.124295347E1,-5.452605247E0,6.907409191E0,1.095959544E0,8.868164017E0
1.125975921E1,-5.621446609E0,7.635571480E0,1.027128696E0,9.537169767E0
1.127656184E1,-5.871037483E0,8.384438515E0,7.670668364E-1,1.026432082E1
1.129337548E1,-6.215808392E0,8.436043739E0,7.436239719E-2,1.047896167E1
1.131018211E1,-6.339723587E0,8.045954704E0,-8.293538094E-1,1.027702827E1
1.132487694E1,-6.064200401E0,6.821012497E0,-1.721712351E0,9.287897039E0
1.134169654E1,-5.922651291E0,6.266336441E0,-1.873261929E0,8.823484627E0
1.135849820E1,-5.701955795E0,6.026704788E0,-1.760049343E0,8.481228931E0
1.137530971E1,-4.950090885E0,5.040499687E0,-4.102489948E-1,7.076605196E0
1.139213208E1,-4.874773026E0,3.208813190E0,-1.331131458E-1,5.837603382E0
1.140892758E1,-5.499992371E-1,-6.300929546E0,-2.690433502E0,6.873328505E0
1.142573218E1,9.519708633E0,-2.419328308E1,-1.307171583E0,2.603168255E1
1.144254569E1,5.057683468E0,-2.857760811E1,-6.975864410E0,2.984832544E1
1.145935216E1,6.627840042E0,-3.234624481E1,-6.112627029E0,3.357933928E1
1.147615869E1,1.303271103E1,-3.989137268E1,2.080489635E0,4.201787249E1
1.149296496E1,1.450695610E1,-3.690322876E1,4.826345444E0,3.994488301E1
1.150977416E1,1.242930412E1,-2.783144379E1,6.888524532E0,3.124945815E1
1.152658316E1,1.054281235E1,-1.568478203E1,6.327902794E0,1.993001840E1
1.154338986E1,9.140670776E0,-3.059220314E0,3.092977524E0,1.012310235E1
1.156019580E1,7.431229115E0,8.626071930E0,-1.772782087E0,1.152280519E1
1.157700525E1,5.985375881E0,1.707560730E1,-4.631367207E0,1.867754404E1
1.159381104E1,2.342164993E0,2.190010834E1,-4.646952152E0,2.250987886E1
1.161062133E1,-2.168733120E0,2.254883194E1,-3.332308769E0,2.289667021E1
1.162742828E1,-4.869221687E0,1.829541016E1,-3.801343441E0,1.931014150E1
1.164423085E1,-6.488071918E0,1.363922882E1,-4.306538105E0,1.570572859E1
1.166104305E1,-6.838809967E0,9.490582466E0,-3.917177200E0,1.233631852E1
1.167785277E1,-6.861892223E0,7.105789185E0,-2.746566772E0,1.025287442E1
1.169465620E1,-6.670606136E0,6.539669514E0,-1.714154005E0,9.497504279E0
1.171146417E1,-6.273015499E0,6.734669209E0,-1.038181305E0,9.261982143E0
1.172827052E1,-5.813321114E0,6.752163410E0,-2.744495869E-1,8.914131234E0
1.174508032E1,-5.549118996E0,6.647525787E0,-9.665489197E-4,8.659233318E0
1.176190207E1,-5.319785118E0,5.943290710E0,-1.051861644E-1,7.977084825E0
1.177869751E1,-5.673035145E0,5.268795967E0,-5.250796676E-2,7.742499324E0
1.179550248E1,-5.889525890E0,5.319536686E0,1.895481646E-1,7.938508315E0
1.181231242E1,-6.295149326E0,5.304502487E0,2.272825092E-1,8.235187248E0
1.182910719E1,-6.866909027E0,5.740614891E0,1.319137216E-1,8.951340690E0
1.184592976E1,-7.238444805E0,5.289100170E0,-4.237558544E-1,8.974922442E0
1.186273356E1,-6.915872574E0,4.669648170E0,-1.062701941E0,8.412148531E0
1.187954358E1,-5.897041321E0,1.739390850E0,-7.386519313E-1,6.192429535E0
1.189635141E1,-4.752815247E0,3.946714401E-1,1.811316490E0,5.101557188E0
1.191315762E1,-1.492216587E0,-5.425605774E-1,3.316068888E0,3.676601038E0
1.192996495E1,7.278836250E0,-7.162967205E0,-4.593895674E-1,1.022255326E1
1.194677309E1,1.941299438E1,-2.764276505E1,-6.744090080E0,3.444516746E1
1.196358344E1,2.260480118E1,-4.153478241E1,-1.233704329E0,4.730367018E1
1.198038986E1,2.369430542E1,-4.504029465E1,9.762037277E0,5.182032056E1
1.199719572E1,1.858931732E1,-3.397366714E1,1.033468056E1,4.008214565E1
1.201400297E1,1.435900784E1,-2.447478104E1,2.962169647E0,2.853016757E1
1.203081371E1,8.616971970E0,-1.574373436E1,-6.073246479E0,1.894734019E1
1.204762098E1,3.066474915E0,-7.107708931E0,-1.129814625E1,1.369565271E1
1.206442647E1,-1.650158405E0,8.358922005E-1,-8.526394844E0,8.724743410E0
1.208123607E1,-3.689555645E0,7.495098114E0,-2.783976078E0,8.805670866E0
1.209803373E1,-4.455031872E0,1.025423336E1,1.225713253E0,1.124717670E1
1.211485515E1,-5.299827576E0,1.141567421E1,3.306570530E0,1.301303956E1
1.213164492E1,-6.658180237E0,1.286389351E1,2.867329121E0,1.476593026E1
1.214846676E1,-7.851460934E0,1.259996510E1,9.185677171E-1,1.487441850E1
1.216526153E1,-8.817347527E0,1.151217842E1,-2.106966734E0,1.465316274E1
1.218208223E1,-9.020595551E0,9.328004837E0,-4.764020920E0,1.382312243E1
1.219888261E1,-8.744297981E0,7.006981850E0,-5.683286667E0,1.256424646E1
1.221570216E1,-8.252400398E0,5.972286224E0,-4.965829849E0,1.133268641E1
1.223250490E1,-8.187858582E0,6.538230896E0,-3.123727798E0,1.093376270E1
1.224931031E1,-8.191306114E0,7.073018074E0,-1.183811069E0,1.088698715E1
1.226612075E1,-7.829969883E0,6.794461250E0,2.284912467E-1,1.036944262E1
1.228292752E1,-7.756590366E0,6.341150761E0,1.162063837E0,1.008589507E1
1.229973571E1,-7.711853027E0,5.342635632E0,1.955482721E0,9.583336855E0
1.231654272E1,-7.394844532E0,3.910721540E0,2.404042482E0,8.703843339E0
1.233335039E1,-7.579864979E0,3.062110901E0,2.622332811E0,8.585307545E0
1.235015936E1,-7.154016018E0,3.694666386E0,2.227916241E0,8.354287262E0
1.236696724E1,-6.513055801E0,5.058320999E0,1.660890698E0,8.412197401E0
1.238376167E1,-6.271823883E0,5.338747978E0,1.280427217E0,8.335316350E0
1.240058358E1,-5.664447784E0,4.349850655E0,8.892920017E-1,7.197083415E0
1.241739100E1,-4.042512417E0,1.694889545E0,2.162501812E-1,4.388772192E0
1.243418216E1,1.418395996E0,-4.868095875E0,-1.494516373E0,5.286188025E0
1.245100425E1,1.122244263E1,-1.998194313E1,-3.312240124E0,2.315582442E1
1.246781342E1,1.276137543E1,-2.450099182E1,-3.372293949E0,2.783026535E1
1.248461954E1,1.392971516E1,-3.114263535E1,-3.892109871E0,3.433728615E1
1.250142880E1,1.489662552E1,-3.431485748E1,-1.313621163E0,3.743186472E1
1.251823467E1,1.483026314E1,-3.381172562E1,3.584637165E0,3.709473167E1
1.253504242E1,1.214641762E1,-2.718561172E1,6.039059639E0,3.038195496E1
1.255185922E1,8.513757706E0,-1.649249077E1,5.096267223E0,1.924729232E1
1.256865771E1,5.178169250E0,-3.784267426E0,2.078470469E0,6.741969758E0
1.258546610E1,3.264351368E0,7.384069443E0,-1.523885489E0,8.216002579E0
1.260227481E1,1.919663429E0,1.464443779E1,-4.136091709E0,1.533792426E1
1.261909155E1,2.214217186E-1,1.733919907E1,-4.748298645E0,1.797896526E1
1.263589112E1,-2.705728054E0,1.779809570E1,-4.287864685E0,1.850618703E1
1.265269137E1,-4.648263931E0,1.564692497E1,-4.586375237E0,1.695486527E1
1.266950519E1,-5.309089661E0,1.213619232E1,-4.759164810E0,1.407562598E1
1.268630095E1,-5.486892700E0,9.128619194E0,-4.557726860E0,1.158492788E1
1.270311802E1,-5.477748394E0,7.032730103E0,-4.388225079E0,9.935871351E0
1.271993096E1,-5.524768353E0,6.857115269E0,-4.127746105E0,9.725296040E0
1.273673468E1,-4.447358131E0,6.565154552E0,-3.624954939E0,8.718976256E0
1.275354510E1,-3.382332802E0,6.277779579E0,-2.449631214E0,7.539985724E0
1.277034855E1,-3.853230238E0,7.632213116E0,-1.047469497E0,8.613666621E0
1.278716180E1,-4.663467407E0,8.247404099E0,-6.043076515E-3,9.474578573E0
1.280396467E1,-5.525170803E0,7.894106388E0,7.361923456E-1,9.663664276E0
1.282077794E1,-6.378269196E0,7.008475780E0,8.377122879E-1,9.513296620E0
1.290690476E1,-6.972978592E0,2.735700607E0,-9.047502279E-1,7.544869862E0
1.292372171E1,-5.075128078E0,1.397895813E-2,-3.955853879E-1,5.090541054E0
1.294052901E1,1.281566620E-1,-6.769282341E0,-1.455054402E0,6.925084177E0
1.295733480E1,1.119206905E1,-2.202548409E1,-2.327819109E0,2.481538033E1
1.297414308E1,1.470064449E1,-2.634297752E1,-2.829410791E0,3.029962011E1
1.299095839E1,1.374387360E1,-3.037146759E1,-1.609926224E0,3.337531974E1
1.300776035E1,1.721086121E1,-3.568338776E1,2.168065310E0,3.967642137E1
1.302456591E1,1.486235142E1,-3.139424133E1,2.341961622E0,3.481339775E1
1.304137582E1,1.205190468E1,-2.491352272E1,2.855727196E0,2.782242259E1
1.305818319E1,8.694179535E0,-1.726174927E1,5.437133908E-1,1.933526234E1
1.307499049E1,5.360507965E0,-8.495198250E0,-3.997540712E0,1.081127979E1
1.309178575E1,3.084745407E0,2.010364532E-1,-7.573286533E0,8.179898459E0
1.310859313E1,1.726083755E-1,9.937731743E0,-7.091520786E0,1.220974909E1
1.312541320E1,-3.192123890E0,1.749131775E1,-3.429368734E0,1.810791047E1
1.314219945E1,-5.723211288E0,2.000730705E1,-1.310883462E-1,2.081020584E1
1.315901442E1,-7.177242279E0,1.768961525E1,1.212765574E-1,1.909057365E1
1.317583448E1,-8.629102707E0,1.313431740E1,-3.581798077E-1,1.571941474E1
1.319264724E1,-9.586409569E0,7.774021626E0,-5.300828815E-1,1.235377062E1
1.320945012E1,-1.026192760E1,3.354936361E0,-9.689123631E-1,1.083981307E1
1.322625915E1,-1.060181904E1,2.213162899E0,-1.169385672E0,1.089330619E1
1.324306703E1,-1.075768661E1,2.228097916E0,-1.207657218E0,1.105217977E1
1.325987369E1,-1.065519714E1,3.347021580E0,-9.918382168E-1,1.121247175E1
1.327668357E1,-9.647392273E0,3.479919910E0,-1.912201643E-1,1.025761110E1
1.329349200E1,-8.491003036E0,2.328146219E0,9.366294146E-1,8.854076578E0
1.331029807E1,-7.742888451E0,5.712728500E-1,2.161314964E0,8.059153591E0
1.332710545E1,-7.587064266E0,6.756305695E-1,4.183515549E0,8.690329291E0
1.334391164E1,-7.873166561E0,3.161664009E0,5.127894878E0,9.913535035E0
1.336072311E1,-6.732176781E0,5.674402714E0,4.323672295E0,9.808934319E0
1.337752715E1,-5.882203102E0,5.874046803E0,4.970130920E-1,8.327770481E0
1.339433771E1,-5.597889900E0,4.554450512E0,-3.878328323E0,8.192729788E0
1.341112976E1,-3.675126076E0,2.202054977E0,-5.587026596E0,7.040629516E0
1.342795998E1,4.156422615E-1,2.296185493E-1,-5.801229000E0,5.820630643E0
1.344476070E1,6.344660759E0,-9.215404510E0,-5.309617043E0,1.238428171E1
1.346156805E1,1.205597115E1,-2.009540176E1,-6.623628616E0,2.435249614E1
1.347837378E1,1.415500069E1,-2.167443085E1,-7.039225578E0,2.682714472E1
1.349518267E1,1.713348579E1,-2.178267860E1,-6.566223621E0,2.848081311E1
1.351199720E1,2.055801392E1,-2.399341011E1,-2.806651592E0,3.172054473E1
1.352879806E1,2.086376762E1,-2.940473747E1,3.461071014E0,3.622035889E1
1.354560500E1,1.437767220E1,-2.480484772E1,8.805623055E0,2.999228110E1
1.356240233E1,7.417200089E0,-1.447100639E1,1.088267612E1,1.956674533E1
1.357922396E1,1.555352211E0,-3.218127728E0,8.768296242E0,9.468816481E0
1.359602405E1,-2.536193848E0,5.336657524E0,4.979044914E0,7.726776884E0
1.361283709E1,-4.482838154E0,9.577750206E0,1.626219273E0,1.069923951E1
1.362963282E1,-5.793686867E0,1.133718491E1,-1.187501311E0,1.278705316E1
1.364645105E1,-7.096705914E0,1.089203072E1,-1.901911378E0,1.313837261E1
1.366324366E1,-7.949854374E0,1.030452728E1,-1.302232027E0,1.307972765E1
1.368006898E1,-8.594197273E0,9.374992371E0,-8.813136816E-1,1.274862434E1
1.369687431E1,-9.169137001E0,8.520461082E0,-1.198148012E0,1.257405619E1
1.371368559E1,-9.463611603E0,7.119824886E0,-2.294248581E0,1.206297756E1
1.373048992E1,-8.979253769E0,5.324631691E0,-3.389825344E0,1.097586519E1
1.374729422E1,-8.006124496E0,3.477077007E0,-3.897166252E0,9.559079389E0
1.376411042E1,-7.589289188E0,2.296980381E0,-2.705999851E0,8.378297229E0
1.378091395E1,-7.416579247E0,3.525556803E0,-1.387839317E0,8.328342960E0
1.379772389E1,-6.958492279E0,4.671664238E0,-6.445275545E-1,8.405978665E0
1.381452980E1,-6.167556763E0,5.273567677E0,9.369111061E-1,8.168664204E0
1.383132454E1,-5.653999329E0,5.180946350E0,2.990751266E0,8.231312570E0
1.384814527E1,-5.364165783E0,4.621754169E0,3.422355890E0,7.864312175E0
1.386495560E1,-4.694668770E0,4.117240906E0,3.015506744E0,6.934325379E0
1.388176033E1,-5.296080112E0,4.848186493E0,1.775205135E0,7.396264605E0
1.389856874E1,-6.553834438E0,5.938264370E0,-7.051746845E-1,8.872034767E0
1.391537441E1,-9.305281639E0,4.880226612E0,-1.163963699E1,1.568075341E1
1.393218316E1,-6.720761776E0,6.655163765E-1,-1.628627968E1,1.763106510E1
1.394899720E1,-4.042410851E-1,-6.423468113E0,-9.553010941E0,1.151887023E1
1.396579925E1,6.193474770E0,-2.183831978E1,-3.525157690E0,2.297167990E1
1.398260466E1,1.217296791E1,-2.995581436E1,-3.397018909E0,3.251263907E1
1.399941616E1,1.771463013E1,-3.697478485E1,-3.858635426E0,4.118047963E1
1.401620142E1,1.847662926E1,-3.665251160E1,3.747498989E0,4.121694049E1
1.403303087E1,1.721493149E1,-3.497740173E1,1.136423683E1,4.060687598E1
1.404982457E1,1.498147583E1,-2.482181931E1,1.318487072E1,3.184977469E1
1.406664824E1,1.322923470E1,-1.019008827E1,5.000739574E0,1.743152162E1
1.408343786E1,8.906465530E0,-3.197352886E0,-5.616168976E0,1.100406960E1
1.410026418E1,3.705795288E0,1.609057426E0,-9.866814613E0,1.066189548E1
1.411706753E1,-1.243471622E0,9.802863121E0,-5.791568756E0,1.145358528E1
1.413388072E1,-5.235984325E0,1.503145218E1,-2.185168743E0,1.606658174E1
1.415068277E1,-7.740652084E0,1.684969330E1,-3.136940002E-1,1.854530299E1
1.416747099E1,-8.825872421E0,1.714419746E1,3.435547352E-1,1.928568279E1
1.418429857E1,-8.251854897E0,1.489385414E1,-9.967935085E-2,1.702732910E1
1.420110436E1,-7.462078571E0,1.169152069E1,-1.055918217E0,1.391004083E1
1.421791835E1,-6.087531090E0,8.342562675E0,-2.348453999E0,1.059111056E1
1.423471068E1,-5.679646015E0,5.202805519E0,-2.382132292E0,8.062389124E0
1.425152883E1,-5.303505898E0,4.267914772E0,-2.141894817E0,7.136524694E0
1.426833928E1,-4.962408066E0,5.102372169E0,-1.634836674E0,7.302902609E0
1.428514409E1,-4.103199482E0,5.821874142E0,-1.198869586E0,7.222724749E0
1.430195478E1,-3.586041689E0,7.106197357E0,-5.194342136E-1,7.976687770E0
1.431876161E1,-2.937176943E0,8.207369804E0,-1.099173427E-1,8.717798422E0
1.433556843E1,-2.738501310E0,8.741595268E0,5.125054717E-1,9.174831831E0
1.435237599E1,-3.072960615E0,9.981065750E0,1.088076591E0,1.049993672E1
1.436918346E1,-3.738531113E0,1.043568325E1,3.931779861E-1,1.109210028E1
1.438599926E1,-4.122288227E0,1.017908478E1,-7.248554230E-1,1.100601847E1
1.440280111E1,-4.051900864E0,8.515554428E0,-5.770014524E-1,9.448042046E0
1.441960706E1,-5.080471516E0,5.939167976E0,-1.485228062E0,7.955552116E0
1.443640089E1,-5.280806541E0,3.921793461E0,-5.839265585E-1,6.603662007E0
1.445322477E1,-1.576647282E0,1.056002617E0,-7.248397470E-1,2.031342127E0
1.447001884E1,2.338916779E0,-7.962258816E0,-1.158953428E0,8.379216562E0
1.448683627E1,5.039124012E0,-2.361815834E1,-1.144816399E0,2.417686454E1
1.450364375E1,7.729182720E0,-3.285229492E1,-1.090564966E0,3.376689028E1
1.452045339E1,1.096157360E1,-3.299895096E1,-1.892628431E0,3.482339591E1
1.453726986E1,1.212273121E1,-3.076944733E1,3.067884922E0,3.321342227E1
1.455406732E1,1.203595352E1,-2.896512032E1,6.127140999E0,3.195910244E1
1.457085584E1,9.709303856E0,-2.461193275E1,5.356252193E0,2.699457821E1
1.458768675E1,4.688528538E0,-1.607590866E1,5.323117256E0,1.757136069E1
1.460449353E1,-1.021121979E0,-5.464960098E0,4.650563240E0,7.248187182E0
1.462129547E1,-6.128045559E0,3.894801855E0,2.560842514E0,7.699372588E0
1.463810726E1,-9.113935471E0,1.197933006E1,2.734513283E-1,1.505466520E1
1.465491313E1,-1.023110008E1,1.521851349E1,-1.073847294E0,1.836931435E1
1.467172831E1,-9.928326607E0,1.537837029E1,-2.616742134E0,1.849089725E1
1.468852637E1,-8.961869240E0,1.381949902E1,-3.331395388E0,1.680451869E1
1.470534117E1,-8.253335953E0,1.113970375E1,-2.990464449E0,1.418285696E1
1.472214605E1,-7.166531086E0,7.472864151E0,-2.595563650E0,1.067425956E1
1.473895989E1,-6.233005524E0,4.764285088E0,-1.718953252E0,8.031411491E0
1.475575919E1,-6.275126457E0,4.624641418E0,-5.445554256E-1,7.814157723E0
1.477257087E1,-5.776905060E0,4.470767021E0,-3.323769569E-2,7.304895247E0
1.478937778E1,-5.053529739E0,4.669363022E0,8.737062812E-1,6.935739075E0
1.480618678E1,-5.029900551E0,5.494621277E0,1.642085791E0,7.628054029E0
1.482299179E1,-6.282179832E0,7.186943054E0,1.554339767E0,9.671292883E0
1.483980172E1,-7.221488476E0,9.257246971E0,1.272414207E0,1.180955356E1
1.485660646E1,-6.785555840E0,9.649061203E0,1.070078731E0,1.184454383E1
1.487341495E1,-7.218365192E0,1.022707462E1,2.154222965E0,1.270191041E1
1.489022232E1,-6.771968842E0,8.693777084E0,2.186135530E0,1.123479019E1
1.490703086E1,-5.180633545E0,1.291666031E0,-1.718492210E-1,5.341993749E0
1.492383887E1,-2.817423820E0,-4.996053219E0,-3.316634893E0,6.625593692E0
1.494064678E1,1.371464729E-1,-5.635468006E0,-3.837795258E0,6.819529400E0
1.495745490E1,2.777024746E0,-7.605651379E0,-2.714427710E0,8.539667272E0
1.497426293E1,6.003988266E0,-1.291481018E1,-2.052106619E0,1.438927860E1
1.499106317E1,8.372037888E0,-2.626189041E1,-4.234246016E-1,2.756732114E1
1.500787712E1,1.196157837E1,-3.608049011E1,4.435488224E0,3.826950064E1
1.502468829E1,1.022123909E1,-3.597441864E1,7.871212482E0,3.821764659E1
1.504149335E1,8.971582413E0,-3.359763336E1,9.006754875E0,3.592230354E1
1.505830534E1,6.745564938E0,-2.639243889E1,7.851715088E0,2.834983080E1
1.507510759E1,3.324188232E0,-1.787400246E1,8.002206802E0,1.986367300E1
1.509191625E1,1.303586960E-1,-1.226172066E1,4.857884407E0,1.318961060E1
1.510872681E1,-3.066766262E0,-7.127598286E0,2.729543209E0,8.225455535E0
1.512553244E1,-4.640791416E0,3.657175303E0,1.423476219E0,6.077677246E0
1.514233731E1,-3.861232281E0,1.344943428E1,1.139987826E0,1.403908720E1
1.515914890E1,-2.733844280E0,1.966037178E1,6.793720126E-1,1.986115982E1
1.517595962E1,-3.262429714E0,2.043109131E1,2.772049010E-1,2.069178055E1
1.519276041E1,-4.004792213E0,1.586972046E1,-3.685931861E-1,1.637138507E1
1.520957065E1,-4.548836708E0,9.374497414E0,-2.353132486E0,1.068224460E1
1.522637650E1,-5.755570889E0,4.816258430E0,-3.550767660E0,8.302463038E0
1.524318674E1,-5.882604599E0,4.230002403E0,-3.618269444E0,8.098754902E0
1.525999113E1,-5.277554512E0,6.724742889E0,-3.447170258E0,9.217251832E0
1.527680117E1,-5.289046764E0,1.124273968E1,-3.032907009E0,1.278951665E1
1.529360833E1,-5.104698181E0,1.310988617E1,-2.382393599E0,1.426894734E1
1.531041740E1,-4.376638889E0,1.170556068E1,-2.192183018E0,1.268782035E1
1.532722251E1,-3.440453053E0,7.676690578E0,-1.529213428E0,8.550250824E0
1.534403334E1,-3.993462563E0,4.948213577E0,-7.849822044E-1,6.406930459E0
1.536083912E1,-5.266628742E0,5.810269356E0,-2.578788400E-1,7.846216272E0
1.537764911E1,-5.104606628E0,7.082810879E0,-7.242619991E-1,8.760580701E0
1.539445386E1,-4.517889977E0,7.455626965E0,-1.655264735E0,8.873421247E0
1.541126372E1,-3.478656769E0,5.719517231E0,-3.837634087E0,7.716305181E0
1.542807094E1,-2.956414700E0,1.127918243E0,-4.952480316E0,5.877044216E0
1.544487861E1,-5.052269936E0,2.741723061E-1,-2.584030628E0,5.681356902E0
1.546168470E1,-4.771311760E0,-4.142251015E-1,-4.292157888E-1,4.808453446E0
1.547849386E1,6.974916458E-1,-7.286140442E0,-1.273858547E0,7.429471901E0
1.549528524E1,9.193453789E0,-2.303458023E1,-6.633821011E0,2.567331416E1
1.551210233E1,1.011559486E1,-3.027685547E1,-1.064828110E1,3.365113857E1
1.552891600E1,1.507156181E1,-3.543066406E1,-8.287069321E0,3.938476164E1
1.554573797E1,1.940270233E1,-3.095697021E1,2.664643288E0,3.663194216E1
1.556253000E1,1.726687622E1,-2.361697006E1,1.062267113E1,3.112470773E1
1.557934114E1,1.277052307E1,-1.803309059E1,1.395479298E1,2.613455304E1
1.559614337E1,7.890372276E0,-1.322314453E1,1.208642960E1,1.957527283E1
1.561296379E1,2.593293667E0,-7.513073921E0,6.809406757E0,1.046611065E1
1.562975975E1,-2.822464228E0,7.571067810E-1,2.133451223E0,3.618166541E0
1.564657356E1,-5.278276443E0,1.003326511E1,-6.076539755E-1,1.135323101E1
1.566337604E1,-6.064385891E0,1.443478584E1,-4.955137372E-1,1.566478064E1
1.568018924E1,-6.467221737E0,1.423540688E1,-1.327028990E0,1.569180588E1
1.569700052E1,-7.218827248E0,1.357410526E1,-2.130610943E0,1.552118886E1
1.571380099E1,-7.439004898E0,1.183013344E1,-2.665179253E0,1.422652563E1
1.573060999E1,-7.599633694E0,1.009536934E1,-3.119674206E0,1.301550159E1
1.574741746E1,-7.738343239E0,8.028884888E0,-3.218649387E0,1.160623335E1
1.576422500E1,-7.707017899E0,6.326513290E0,-3.204493999E0,1.047337945E1
1.578103198E1,-7.693591595E0,5.450468540E0,-2.845719576E0,9.848709501E0
1.579784112E1,-7.929474354E0,6.315336227E0,-2.276711464E0,1.038958374E1
1.581463384E1,-8.012923241E0,7.314255238E0,-1.520809174E0,1.095527859E1
1.583145426E1,-7.511369705E0,6.668944836E0,-7.209492922E-1,1.007051478E1
1.584617496E1,-6.293376923E0,5.555672646E0,-4.475560784E-2,8.394885032E0
1.586296532E1,-6.183831215E0,4.263646603E0,9.612715840E-1,7.572482678E0
1.587977610E1,-6.227396011E0,4.090243816E0,1.528612018E0,7.605735353E0
1.589659011E1,-5.647640228E0,4.101950645E0,1.570924282E0,7.154693728E0
1.591339383E1,-4.122444630E0,3.457489729E0,1.745678186E0,5.656516356E0
1.593020502E1,-2.302522182E0,1.900913715E0,2.244050741E0,3.735083009E0
1.594701232E1,-1.021622181E0,-1.182246208E0,2.808596849E0,3.213974835E0
1.596381666E1,1.256973743E0,-6.970494747E0,2.917742014E0,7.660352373E0
1.598062608E1,5.178949356E0,-1.337889671E1,3.103965282E0,1.467824902E1
1.599741682E1,7.874936581E0,-1.842755699E1,1.880863786E0,2.012777015E1
1.601423849E1,7.115065098E0,-3.012401962E1,-2.046238661E0,3.102044168E1
1.603104991E1,5.446155071E0,-3.597111511E1,-2.669977188E0,3.647890494E1
1.604786022E1,6.568112850E0,-3.360684586E1,-1.523517251E0,3.427654153E1
1.606466269E1,7.043276310E0,-2.657173157E1,4.074563503E0,2.778968743E1
1.608147768E1,6.475619793E0,-1.974790955E1,8.130572319E0,2.231635699E1
1.609827357E1,4.899693489E0,-1.373599243E1,5.139327049E0,1.546276712E1
1.611508619E1,3.491450787E0,-7.278800488E0,-1.177742004E0,8.158323441E0
1.613189685E1,3.445277691E0,2.514271736E-1,-6.272623539E0,7.160932904E0
1.614870341E1,5.125892162E0,6.796306610E0,-6.577256680E0,1.075754895E1
1.616550929E1,7.070963860E0,1.209364796E1,-3.210885525E0,1.437235668E1
1.618231694E1,7.666068077E0,2.005108643E1,-1.419729233E0,2.151349106E1
1.619912985E1,4.046549797E0,2.507600021E1,-1.743201971E0,2.546014739E1
1.621593304E1,2.563353300E0,2.092565346E1,-3.686563015E0,2.140197420E1
1.623274403E1,8.849155903E-1,1.589154243E1,-6.300739288E0,1.711792955E1
1.624955068E1,2.482104301E-2,1.251497650E1,-8.861137390E0,1.533443865E1
1.626635737E1,-5.353500843E-1,1.033122826E1,-1.007454872E1,1.444013189E1
1.628316361E1,-1.763942242E-1,1.056468964E1,-9.823534966E0,1.442725273E1
1.629997126E1,3.616125584E-1,1.185997391E1,-8.119460106E0,1.437759984E1
1.631678076E1,8.464648724E-1,1.111532974E1,-5.369032860E0,1.237309872E1
1.633359007E1,3.154177666E-1,9.750632286E0,-2.327118635E0,1.002944662E1
1.635039437E1,6.445138454E-1,8.341041565E0,-1.311307192E0,8.468051667E0
1.636720377E1,1.977690220E0,7.684080124E0,-2.126881123E0,8.214619240E0
1.638400429E1,2.797127724E0,8.667098045E0,-2.728618622E0,9.507253632E0
1.640081892E1,2.320931435E0,8.121475220E0,-1.961598039E0,8.671386817E0
1.641762562E1,4.560127258E-1,5.774725437E0,-6.376839876E-1,5.827696144E0
1.643443444E1,-8.257207870E-1,2.526471138E0,-2.960732281E-1,2.674421542E0
1.645124167E1,5.839266777E-1,-1.615468979E0,-7.727127075E-1,1.883559215E0
1.646805112E1,3.271697044E0,-1.192696857E1,2.526277304E-2,1.236758744E1
1.648485150E1,2.801569939E0,-2.269914627E1,2.388591766E0,2.299576931E1
1.650165194E1,2.455687046E0,-3.472211456E1,4.397530556E0,3.508552285E1
1.651847433E1,4.815402508E0,-4.324577713E1,8.068787575E0,4.425483786E1
1.653527944E1,2.954478741E0,-4.353162003E1,1.104084778E1,4.500701286E1
1.655208785E1,-1.360497475E-1,-3.928076172E1,9.943951607E0,4.052010519E1
1.656889547E1,-1.339171410E0,-3.104074669E1,5.459834576E0,3.154569905E1
1.658570594E1,-1.787266731E-1,-1.871135139E1,1.004568338E0,1.873915078E1
1.660250850E1,2.037364960E0,-4.334004402E0,-3.119071245E0,5.715160153E0
1.661932137E1,4.900840282E0,9.807292938E0,-3.682195187E0,1.156545683E1
1.663612950E1,5.145720005E0,2.045840836E1,-2.555552006E0,2.124984124E1
1.665293360E1,4.622169018E0,2.607184029E1,-1.890508413E0,2.654579674E1
1.666974101E1,3.448121071E0,2.620234299E1,-3.062953949E0,2.660514995E1
1.668655184E1,1.746881485E0,2.139657974E1,-4.781809330E0,2.199388370E1
1.670335652E1,-4.003815651E-1,1.492883682E1,-5.814641953E0,1.602624520E1
1.672016579E1,-2.075416088E0,8.844897270E0,-5.434602737E0,1.058652287E1
1.673697217E1,-3.399006844E0,4.366610050E0,-4.389328480E0,7.063054251E0
1.675378032E1,-4.010444164E0,1.907479286E0,-3.265369415E0,5.512238841E0
1.677059804E1,-4.734974861E0,2.270141602E0,-1.711790323E0,5.523020545E0
1.678739684E1,-4.358830452E0,4.211255074E0,-8.884204030E-1,6.125631642E0
1.680420307E1,-3.900740147E0,6.244200706E0,-8.643379211E-1,7.413022069E0
1.682101246E1,-4.162940025E0,7.706506729E0,-1.672561765E0,8.917274162E0
1.683782019E1,-4.243752956E0,7.899453640E0,-2.891034365E0,9.421724187E0
1.685462616E1,-5.545037270E0,7.813383102E0,-3.083421707E0,1.006498302E1
1.687142242E1,-7.055233002E0,8.272438049E0,-2.323940754E0,1.111801442E1
1.688824360E1,-8.071264267E0,8.594330788E0,-5.772663355E-1,1.180428164E1
1.690503785E1,-8.357459068E0,6.451920986E0,-2.932341099E-1,1.056221533E1
1.692185998E1,-7.224609852E0,-4.151616096E-1,-4.310667515E-2,7.236657022E0
1.693864990E1,-3.715447187E0,-9.446183205E0,-1.917037964E-1,1.015242214E1
1.695547439E1,3.016815186E0,-2.005281830E1,-2.125091076E0,2.038952446E1
1.697226802E1,9.360555649E0,-2.588535118E1,-2.101663828E0,2.760594861E1
1.698908790E1,8.976427078E0,-3.275877380E1,4.276916504E0,3.423456614E1
1.700589663E1,5.151039124E0,-3.780685806E1,9.206224442E0,3.925106736E1
1.702270567E1,1.808072090E0,-3.467218018E1,6.441346169E0,3.531175645E1
1.703951267E1,9.498963356E-1,-2.766779327E1,6.352464199E0,2.840357177E1
1.705631874E1,5.606632233E-1,-1.768142319E1,6.819667339E0,1.895929671E1
1.707311532E1,-1.022893906E0,-7.773463249E0,5.920300961E0,9.824612272E0
1.708993711E1,-3.612548351E0,4.028577805E-1,3.883204222E0,5.319029518E0
1.710674258E1,-5.046546936E0,5.762423992E0,4.561303258E-1,7.673410006E0
1.712355229E1,-5.183988571E0,8.770739555E0,-3.588938713E0,1.080185590E1
1.714035926E1,-4.814408302E0,1.092270279E1,-5.809235573E0,1.327520928E1
1.715716707E1,-4.627650261E0,1.317722797E1,-5.240563869E0,1.491703703E1
1.717397286E1,-4.556362629E0,1.510846519E1,-3.244593620E0,1.611066568E1
1.719078090E1,-4.042188644E0,1.483028412E1,-2.020385742E0,1.550350201E1
1.720759748E1,-3.324295521E0,1.282259083E1,-1.554517269E0,1.333740230E1
1.722439643E1,-3.296104670E0,1.070610046E1,-2.334257126E0,1.144262424E1
1.724120382E1,-3.976611614E0,9.657054901E0,-2.910068989E0,1.084161661E1
1.725801198E1,-4.720592976E0,9.542236328E0,-2.672770023E0,1.097642801E1
1.727481955E1,-5.206846237E0,9.512494087E0,-1.749012113E0,1.098443603E1
1.729162902E1,-5.791278839E0,1.026332283E1,-2.505184412E-1,1.178717377E1
1.730843496E1,-6.073139668E0,1.109869385E1,8.173785210E-1,1.267801791E1
1.732523380E1,-5.726433754E0,1.042643929E1,8.994600773E-1,1.192944710E1
1.741138254E1,-3.243725300E0,1.154851437E0,-5.472613573E-1,3.486392212E0
1.742817809E1,-2.322801828E0,-6.848870277E0,-9.325394034E-1,7.291917591E0
1.744499505E1,2.797443867E0,-1.881958199E1,-1.819343090E0,1.911314646E1
1.746180991E1,5.066689968E0,-2.303557968E1,2.097728491E0,2.367931045E1
1.747861325E1,5.676154613E0,-2.832740021E1,5.456953049E0,2.940133790E1
1.749542016E1,5.924697876E0,-4.025194168E1,6.173301697E0,4.115131235E1
1.751222399E1,-7.474751472E-1,-3.913957596E1,1.671948433E0,3.918240086E1
1.752904219E1,-2.207873821E0,-3.049878693E1,-3.805338621E0,3.081446597E1
1.754583833E1,7.513237000E-1,-2.082945633E1,-2.394445658E0,2.098008838E1
1.756265467E1,2.489392757E0,-1.074887180E1,2.275645733E-1,1.103571959E1
1.757945890E1,1.413086891E0,-1.287245750E0,2.048701286E0,2.801962374E0
1.759626631E1,2.233011723E-1,6.776959419E0,1.061538339E0,6.863228543E0
1.761307529E1,-1.173377275E0,1.214217377E1,-1.195294857E0,1.225715823E1
1.762988224E1,-2.393983364E0,1.466475201E1,-3.195862770E0,1.519867253E1
1.764669397E1,-2.703288555E0,1.596277046E1,-3.617084026E0,1.658918644E1
1.766349848E1,-2.499246120E0,1.597263241E1,-2.827936888E0,1.641244784E1
1.768030695E1,-2.638284206E0,1.529328632E1,-1.665799379E0,1.560833232E1
1.769711582E1,-2.919825554E0,1.344400024E1,-4.600987434E-1,1.376510860E1
1.771391895E1,-2.982857704E0,1.033342934E1,-9.450546503E-1,1.079677407E1
1.773072816E1,-2.826826096E0,8.071763992E0,-2.214498997E0,8.834496337E0
1.774546498E1,-2.242404938E0,6.809382915E0,-3.602247000E0,8.023232456E0
1.776224506E1,-2.232818842E0,7.272814274E0,-3.673697472E0,8.448393963E0
1.777905347E1,-2.143552542E0,8.009355545E0,-3.473288536E0,8.989345193E0
1.779586307E1,-1.872667789E0,7.911352634E0,-3.005033016E0,8.667560706E0
1.781265469E1,-2.168451071E0,8.069265366E0,-1.658684611E0,8.518594850E0
1.782947480E1,-2.535444260E0,8.818202972E0,-6.409586668E-1,9.197826334E0
1.784628516E1,-3.112576008E0,9.257761955E0,1.927161217E-2,9.767018850E0
1.786309122E1,-3.495174646E0,8.939659119E0,1.529074907E-1,9.599850606E0
1.787988650E1,-3.326232195E0,7.101760387E0,1.958292723E-1,7.844563106E0
1.789670596E1,-3.875559092E0,4.721923828E0,-5.125799179E-1,6.130192581E0
1.791350170E1,-3.320684671E0,2.741785049E0,-1.405271292E0,4.529803456E0
1.793032089E1,-8.111886978E-1,-2.111348152E0,-2.469464779E0,3.348742214E0
1.794713051E1,6.489772320E0,-2.022259140E1,-4.982444763E0,2.181502014E1
1.796393700E1,6.354712009E0,-3.536876678E1,-2.375422955E0,3.601353444E1
1.798073580E1,4.300188065E0,-3.930808258E1,2.082062244E0,3.959737310E1
1.799755237E1,3.674248219E0,-3.566764832E1,6.188156128E0,3.638646057E1
1.801436081E1,3.761941433E0,-2.845371437E1,9.415820122E0,3.020635253E1
1.803116749E1,2.731254101E0,-2.341662216E1,1.125029182E1,2.612215551E1
1.804798684E1,1.606125832E-1,-1.711861038E1,8.846422195E0,1.926997155E1
1.806478301E1,-1.982583523E0,-7.587279320E0,4.232338428E0,8.911236361E0
1.808159059E1,-1.903351784E0,1.715604305E0,1.368326664E0,2.904886229E0
1.809840050E1,8.191919327E-2,1.108939743E1,-1.270663738E0,1.116225929E1
1.811520589E1,1.836128235E0,1.869046593E1,-4.026844025E0,1.920729956E1
1.813201541E1,1.788018227E0,2.307979965E1,-5.567782879E0,2.380912362E1
1.814882189E1,9.344863892E-1,2.122296143E1,-6.062718391E0,2.209171589E1
1.816563328E1,-3.797593117E-1,1.477985573E1,-6.378334999E0,1.610191013E1
1.818243837E1,-1.970196486E0,9.163140297E0,-6.014074802E0,1.113615329E1
1.819924468E1,-3.621693850E0,6.538898468E0,-5.278637886E0,9.150840259E0
1.821605184E1,-4.935046196E0,6.095603466E0,-3.275360107E0,8.499355646E0
1.823286264E1,-5.766278744E0,5.897123337E0,-1.497650504E0,8.382660153E0
1.824966785E1,-5.946824074E0,5.312365055E0,-8.986645341E-1,8.024558367E0
1.826647668E1,-5.747657299E0,5.589908600E0,-1.025799394E0,8.083001112E0
1.828328373E1,-5.299292564E0,6.645123482E0,8.441650867E-2,8.499840817E0
1.830008023E1,-6.526466370E0,6.154785156E0,2.007648945E0,9.192757904E0
1.831690384E1,-9.623031616E0,5.879260063E0,2.985093594E0,1.166529983E1
1.833368947E1,-8.810193062E0,1.305469036E0,2.078998089E0,9.145817855E0
1.835051722E1,-6.817140579E0,-1.660442352E-1,2.560220957E-1,6.823966858E0
1.836732829E1,-4.605820656E0,1.515749931E0,8.652039766E-1,4.925409596E0
1.838413269E1,-3.251169682E0,2.649230480E0,1.404779196E0,4.422887182E0
1.840092661E1,-1.609979153E0,7.216091156E-1,-6.134450436E-1,1.867904550E0
1.841774716E1,-4.142823219E-1,-3.949740410E0,-1.801942587E0,4.361086589E0
1.843454555E1,-2.699944973E-1,-8.916412354E0,-1.257409453E0,9.008683856E0
1.845136142E1,-1.424837112E-2,-1.615392303E1,1.845658541E0,1.625902481E1
1.846816934E1,1.028996706E0,-2.661429214E1,3.918390274E0,2.692086854E1
1.848497832E1,1.840957642E0,-3.610961914E1,6.603407860E0,3.675457407E1
1.850178395E1,9.109282494E-1,-3.801205826E1,7.325323582E0,3.872217361E1
1.851859019E1,-1.616030693E0,-3.144387627E1,7.577651024E0,3.238440527E1
1.853540116E1,-3.248153925E0,-1.852983856E1,7.149655819E0,2.012518321E1
1.855220882E1,-2.386202335E0,-2.622807503E0,7.031773090E0,7.875208796E0
1.856901656E1,4.469084740E-1,1.126790905E1,4.943000793E0,1.231254476E1
1.858582278E1,2.562407494E0,1.873182678E1,1.007797003E0,1.893311706E1
1.860263363E1,2.612788200E0,2.048940468E1,-3.414160013E0,2.093558824E1
1.861943946E1,4.613962173E-1,1.893009567E1,-6.857966423E0,2.013934239E1
1.863624793E1,-1.549901962E0,1.556602573E1,-7.811015606E0,1.748471670E1
1.865305360E1,-2.905072212E0,1.244430065E1,-5.348769665E0,1.385313684E1
1.866986289E1,-3.244063616E0,9.215967178E0,-2.640354156E0,1.012074453E1
1.868666943E1,-3.590260506E0,6.478060722E0,-9.161168337E-2,7.406998982E0
1.870347914E1,-3.554704189E0,5.041300774E0,9.463322163E-1,6.240687464E0
1.872028450E1,-3.576435089E0,5.411921501E0,9.609570503E-1,6.557684098E0
1.873709270E1,-3.915417194E0,6.980684757E0,5.052649975E-1,8.019709733E0
1.875390464E1,-3.989091158E0,7.185488701E0,-6.953247786E-1,8.247882921E0
1.877070943E1,-3.567481518E0,6.615775108E0,-2.219915390E0,7.837310062E0
1.878751645E1,-2.722206593E0,5.423355579E0,-3.509270430E0,7.009862582E0
1.880432376E1,-3.656760931E0,6.285783768E0,-2.563567162E0,7.710697418E0
1.882111138E1,-4.254064560E0,6.020715237E0,-1.764694929E0,7.580252333E0
1.883793223E1,-3.605540991E0,3.903423309E0,-2.640850067E0,5.933862860E0
1.885472778E1,-3.281219482E0,5.327129364E-1,-2.896667719E0,4.409179996E0
1.887155527E1,-4.386388779E0,-3.520164490E0,-2.564466298E-1,5.630073661E0
1.888835526E1,-4.053688049E0,-1.315060234E1,1.136650085E0,1.380806656E1
1.890517062E1,-2.965733528E0,-2.695481491E1,4.097097397E0,2.742524073E1
1.892197693E1,-3.045861483E0,-3.491299438E1,8.535087585E0,3.606996215E1
1.893878661E1,-2.780894518E0,-3.478485107E1,9.526153564E0,3.617273615E1
1.895558220E1,-1.091437817E0,-2.881151199E1,9.413267136E0,3.032992018E1
1.897239950E1,-1.065049171E-1,-2.150619698E1,9.312389374E0,2.343605017E1
1.898921132E1,-1.467361450E-1,-1.636798286E1,6.644438744E0,1.766581333E1
1.900601637E1,-9.707176685E-1,-1.020982647E1,3.042323828E0,1.069759709E1
1.902282766E1,-1.240213633E0,-1.766693115E0,9.956176281E-1,2.377096733E0
1.903963222E1,1.601076126E-2,6.438230515E0,4.521985054E-1,6.454111247E0
1.905644091E1,1.761800289E0,1.355134010E1,-4.131892920E-1,1.367163064E1
1.907324717E1,2.727682114E0,1.925228119E1,-7.316487432E-1,1.945831161E1
1.909005308E1,2.355170965E0,2.009219933E1,-7.798253298E-1,2.024478776E1
1.910686077E1,1.197393179E0,1.626440620E1,-1.398347497E0,1.636826305E1
1.912366902E1,-4.033005238E-1,1.165486526E1,-2.491435051E0,1.192500668E1
1.914048083E1,-2.417882681E0,8.815125465E0,-2.725590229E0,9.538418932E0
1.915728746E1,-3.915124416E0,7.666122913E0,-2.104602337E0,8.861545617E0
1.917409509E1,-3.749880075E0,7.434945107E0,-1.691897631E0,8.497207006E0
1.919090425E1,-3.636438608E0,7.321171284E0,-1.066893458E0,8.243876295E0
1.920771106E1,-3.284352303E0,6.492866516E0,-1.424669266E0,7.414443213E0
1.922451580E1,-3.186230898E0,6.137604713E0,-1.747180223E0,7.132664137E0
1.924132299E1,-3.143894434E0,6.967302322E0,-1.521633506E0,7.793763044E0
1.932746411E1,-4.577284336E0,4.946319580E0,-1.404662848E0,6.884089409E0
1.934425709E1,-4.628659248E0,5.048954964E0,-5.725168586E-1,6.873442239E0
1.936107939E1,-3.082465887E0,1.474189758E-2,-8.681431413E-1,3.202418739E0
1.937787580E1,1.570367813E0,-1.896932030E1,-9.849139452E-1,1.905967531E1
1.939469557E1,8.455047607E-1,-3.121246910E1,6.654891968E0,3.192523599E1
1.941150641E1,-1.724462509E-1,-3.596172714E1,1.449582672E1,3.877376109E1
1.942831065E1,4.850344658E-1,-3.786030960E1,1.458596039E1,4.057571370E1
1.944511802E1,-8.659491539E-1,-3.782213211E1,7.527303696E0,3.857361593E1
1.946192438E1,-1.843374252E0,-3.445407486E1,1.700046778E0,3.454520896E1
1.947873777E1,-4.604325294E-1,-2.396839905E1,-7.537382245E-1,2.398466744E1
1.949553859E1,3.018949032E0,-1.252074528E1,-1.012320995E0,1.291928440E1
1.951235317E1,6.163605213E0,1.853002548E0,-8.621435165E-1,6.493607557E0
1.952915965E1,7.295207500E0,1.448146629E1,-9.083040953E-1,1.624062606E1
1.954596204E1,6.620453835E0,2.040823746E1,-1.779702783E0,2.152890864E1
1.956276961E1,5.212736130E0,1.965418625E1,-2.968717575E0,2.054928074E1
1.957958418E1,3.195111036E0,1.584039497E1,-3.242519855E0,1.648152852E1
1.959638828E1,1.374963522E0,1.124475574E1,-3.549547195E0,1.187157705E1
1.961318531E1,-3.295683861E-2,9.020077705E0,-2.296808720E0,9.307965313E0
1.963000632E1,-9.596436024E-1,8.339632988E0,-8.554974794E-1,8.438143762E0
1.964681109E1,-1.766459465E0,7.353866577E0,-1.420368433E0,7.695269921E0
1.966362075E1,-1.954287767E0,6.270380974E0,-2.460270882E0,7.013547679E0
1.968042568E1,-1.775988340E0,5.781311035E0,-2.927263498E0,6.719119247E0
1.969723679E1,-2.187460184E0,5.950484276E0,-2.435276985E0,6.791451919E0
1.971404294E1,-2.844006538E0,7.263149738E0,-2.012068748E0,8.055441512E0
1.973085087E1,-3.458461523E0,8.816729546E0,-2.063868999E0,9.693050667E0
1.975184921E1,-4.088395119E0,1.041366100E1,-2.692217112E0,1.150683897E1
1.976867466E1,-4.632537842E0,1.026278877E1,-2.904811859E0,1.162854987E1
1.978547880E1,-5.897591114E0,9.125667572E0,-4.100352764E0,1.161345265E1
1.980228218E1,-6.797880173E0,8.051571846E0,-4.925332069E0,1.163176169E1
1.981909100E1,-5.710454941E0,8.015866280E0,-3.114195347E0,1.032286881E1
1.983590006E1,-3.636601448E0,9.085098267E0,-7.391020060E-1,9.813773606E0
1.985270663E1,-2.588500023E0,7.708901882E0,1.926720142E-1,8.134163946E0
1.986951388E1,-2.532788277E0,3.097306252E0,1.427161932E0,4.247954055E0
1.988631015E1,-3.379058838E-2,-2.656466484E0,2.325227499E0,3.530529551E0
1.990313046E1,6.007716656E0,-1.478813267E1,1.355857611E0,1.601935945E1
1.991993486E1,9.608409882E0,-3.306713867E1,3.851293802E0,3.464952618E1
1.993674525E1,1.287528419E1,-4.374020386E1,7.143367290E0,4.615198883E1
1.995353386E1,1.032136726E1,-3.924534988E1,1.063708973E1,4.195087350E1
1.997035891E1,8.993569374E0,-4.111185074E1,1.189931297E1,4.373399376E1
1.998718200E1,6.430375576E0,-3.321328735E1,2.836953640E0,3.394879221E1
2.000396533E1,3.196306705E0,-1.683668900E1,-2.408085346E0,1.730576054E1
2.002078680E1,-1.746769905E0,-4.904800415E0,-1.646542192E0,5.460711804E0
2.003759011E1,-5.112093449E0,-7.465705872E-1,-5.068846703E0,7.237684296E0
2.005440111E1,-5.784133434E0,6.770609856E0,-3.658866405E0,9.627287301E0
2.007120691E1,-5.147740364E0,1.564959526E1,5.934098363E-1,1.648518116E1
2.008800539E1,-5.793796062E0,2.011441422E1,3.121876478E0,2.116373891E1
2.010481885E1,-6.534142017E0,2.008835220E1,3.524585009E0,2.141633969E1
2.012163507E1,-7.384338379E0,1.478316498E1,1.702305317E0,1.661229254E1
2.013843854E1,-8.446828842E0,8.105791092E0,-1.480947733E0,1.180025309E1
2.015524518E1,-9.358325958E0,4.577064514E0,-3.278998375E0,1.092152071E1
2.017205428E1,-8.669517517E0,4.174480438E0,-3.622550964E0,1.028152209E1
2.018886205E1,-6.937975407E0,4.924241066E0,-2.964822769E0,9.009651873E0
2.020566923E1,-4.758533955E0,6.962020874E0,-1.605677366E0,8.584379992E0
2.022247807E1,-3.493628740E0,8.147264481E0,-3.848997355E-1,8.873077713E0
2.023927228E1,-2.903265715E0,7.557843208E0,-1.740689278E-1,8.098163110E0
2.025609264E1,-3.232067347E0,7.231893539E0,6.066948175E-2,7.921503916E0
2.027290122E1,-3.998570919E0,8.390976906E0,2.729308009E-1,9.299008229E0
2.028970928E1,-4.470521927E0,9.219427109E0,1.045870185E-1,1.024667463E1
2.030651513E1,-4.341046333E0,9.590720177E0,-6.041761041E-1,1.054474398E1
2.032332354E1,-3.664427280E0,6.719137669E0,-1.382426977E0,7.777270900E0
2.034013249E1,-3.570979595E0,5.192382812E0,-1.635266304E0,6.510516909E0
2.035694548E1,-3.240606308E0,5.308081627E0,-8.671814799E-1,6.279272531E0
2.037373978E1,-2.016318560E0,5.004739761E0,-1.047102690E0,5.496306456E0
2.039055421E1,7.551341057E-1,7.813944817E-1,-3.391251087E0,3.561093763E0
2.040737224E1,4.747974396E0,-7.153354645E0,-5.485679150E0,1.018854353E1
2.042417533E1,1.176386642E1,-1.824209213E1,-3.676448107E0,2.201542072E1
2.044096555E1,1.617469406E1,-2.834565353E1,2.348276377E0,3.272019566E1
2.045779677E1,1.385101700E1,-3.618745422E1,4.639678478E0,3.902446837E1
2.047458212E1,1.042116261E1,-3.901743317E1,1.761061668E0,4.042353348E1
2.049140302E1,1.092344475E1,-3.874854660E1,4.194934368E0,4.047677091E1
2.050819482E1,6.471995354E0,-3.198444366E1,9.574153900E0,3.400817230E1
2.052501397E1,4.928493500E-2,-2.139784622E1,8.193330765E0,2.291289857E1
2.054182801E1,-5.373687267E0,-9.414369583E0,3.827386856E0,1.149590186E1
2.055863412E1,-5.980222702E0,4.036800385E0,5.587735176E-1,7.236784421E0
2.057544189E1,-4.210543633E0,1.556362534E1,-2.305486679E0,1.628712314E1
2.059224477E1,-4.078433037E0,2.252308655E1,-4.820248604E0,2.339140527E1
2.060905923E1,-5.107153893E0,2.235867691E1,-4.920142174E0,2.345636914E1
2.062585980E1,-5.221276760E0,1.466580677E1,-1.764230967E0,1.566716727E1
2.064267197E1,-5.767813206E0,5.272670746E0,1.411535025E0,7.941105534E0
2.065948098E1,-6.021725655E0,1.797636509E0,4.505165577E0,7.732347234E0
2.067628510E1,-6.045877934E0,3.735035181E0,5.399420738E0,8.925069865E0
2.069309497E1,-4.572760582E0,4.718335152E0,4.515881062E0,7.972829341E0
2.070990026E1,-3.610088110E0,6.660045624E0,3.917015076E0,8.528302936E0
2.072671013E1,-3.973732948E0,8.504706383E0,2.194302559E0,9.640308497E0
2.074351804E1,-4.705720901E0,7.398043633E0,7.480571270E-1,8.799684554E0
2.076032379E1,-5.684759140E0,5.928391457E0,1.092491388E0,8.285882522E0
2.077713237E1,-6.339861870E0,4.761249542E0,6.083124280E-1,7.951942514E0
2.079394724E1,-7.295254230E0,4.958269119E0,-1.249211431E0,8.908742680E0
2.081073597E1,-7.856518745E0,6.388578892E0,-1.486371994E0,1.023465333E1
2.082755453E1,-7.157582760E0,6.477276325E0,-5.837115049E-1,9.670926464E0
2.084436483E1,-6.710728645E0,4.858453751E0,-7.147209644E-1,8.315604479E0
2.086117947E1,-6.808304787E0,4.005669594E0,-3.318060637E-1,7.906231607E0
2.087796864E1,-7.171536922E0,5.850448132E0,6.108530164E-1,9.275334311E0
2.089477672E1,-6.115032196E0,7.856466770E0,4.013684988E-1,9.963874023E0
2.091159537E1,-4.113857746E0,7.441575050E0,-1.960010529E-1,8.505250214E0
2.092840377E1,-5.922441483E-1,3.364032745E0,1.103676558E-1,3.417550360E0
2.094520938E1,3.771480560E0,-1.747056961E0,2.916561127E0,5.077657181E0
2.096203125E1,1.081882858E1,-1.014378738E1,1.167001247E0,1.487633578E1
2.097882671E1,1.907713318E1,-2.998066711E1,-4.958168030E0,3.587981105E1
2.099562218E1,1.955685425E1,-4.255484390E1,-3.826814175E0,4.698967753E1
2.101242698E1,1.428645420E1,-4.150802231E1,4.331638336E0,4.411101654E1
2.102925047E1,9.290097237E0,-3.728515244E1,2.560048580E0,3.851028885E1
2.104605622E1,9.236625671E0,-2.860620880E1,-2.342966557E0,3.015161568E1
2.106286564E1,1.001066875E1,-1.919651985E1,-6.046072006E0,2.247831956E1
2.107967391E1,9.269236565E0,-9.766075134E0,-6.939632893E0,1.514772177E1
2.109648025E1,6.188081741E0,-1.987164497E0,-3.873733997E0,7.566174295E0
2.111328515E1,3.559522629E-1,4.283984184E0,1.894465089E-1,4.302919065E0
2.113010005E1,-5.163535118E0,1.182509804E1,2.819419622E0,1.320773128E1
2.114690201E1,-7.175775528E0,1.583166313E1,4.777616978E0,1.802661743E1
2.116371193E1,-9.670072556E0,1.632021332E1,3.796820164E0,1.934620142E1
2.118052009E1,-1.054426575E1,1.163664722E1,-7.519825697E-1,1.572127783E1
2.119732566E1,-8.915305138E0,5.053122044E0,-4.783627510E0,1.130927939E1
2.121412134E1,-6.411118507E0,2.744728088E0,-4.455823898E0,8.275889040E0
2.123093012E1,-4.026432991E0,3.782422066E0,-1.320441723E0,5.680004019E0
2.124775299E1,-2.919613361E0,5.216284752E0,2.366060019E0,6.428997496E0
2.132757483E1,-4.468103409E0,4.455829620E0,1.298258066E0,6.442347374E0
2.134439447E1,-5.844665527E0,4.715823174E0,2.310049534E-2,7.509969172E0
2.136118548E1,-7.933243752E0,5.293369770E0,-1.658166170E0,9.680167095E0
2.137801120E1,-8.614126205E0,4.901530266E0,-1.613434553E0,1.004148098E1
2.139481730E1,-8.941340446E0,6.212346077E0,1.232665062E0,1.095720201E1
2.141161944E1,-8.099056244E0,7.734079361E0,1.548453569E0,1.130523790E1
2.142843623E1,-6.873870373E0,9.002875328E0,-1.014236927E0,1.137235836E1
2.144523683E1,-5.464817047E0,8.350084305E0,-2.127150059E0,1.020357293E1
2.146204851E1,-5.256350994E0,4.843394279E0,-2.476559162E0,7.564458950E0
2.147885130E1,-2.101440430E0,1.888748169E0,-5.674093962E-1,2.881904743E0
2.149566683E1,6.809435368E0,-2.622460842E0,6.300107479E0,9.640387188E0
2.151247171E1,1.422594452E1,-1.155781364E1,1.328511906E1,2.263746766E1
2.152927660E1,1.694206619E1,-2.810910606E1,6.900483608E0,3.353762252E1
2.154607410E1,1.685838509E1,-3.674085617E1,-1.443769813E0,4.044972350E1
2.156289375E1,1.236764812E1,-3.310513306E1,-4.331162453E0,3.560431888E1
2.157970276E1,1.202754021E1,-3.263738632E1,-3.334084749E-1,3.478464993E1
2.159650800E1,1.201608753E1,-3.059384918E1,2.396594524E0,3.295623815E1
2.161331341E1,7.753026009E0,-2.277727318E1,2.477171898E0,2.418780615E1
2.163012988E1,3.865849495E0,-7.932520866E0,-4.621762037E-1,8.836474775E0
2.164693255E1,1.373968601E0,6.574944496E0,-4.734152794E0,8.217657058E0
2.166374000E1,-9.079895020E-1,1.600466156E1,-9.234399796E0,1.849993990E1
2.168054817E1,-2.563399792E0,1.681059265E1,-6.020956516E0,1.803937253E1
2.169735437E1,-5.013503075E0,1.288074684E1,-6.001698971E-2,1.382217256E1
2.171416658E1,-7.126081944E0,8.113207817E0,2.879817963E0,1.117580138E1
2.173095846E1,-9.392688751E0,7.583986282E0,5.927054405E0,1.344877035E1
2.174780903E1,-8.966615677E0,7.151231289E0,4.936609745E0,1.248640947E1
2.176458373E1,-7.911848068E0,7.068661690E0,3.207000494E0,1.108368937E1
2.178138182E1,-7.164951801E0,6.362571716E0,-1.011040211E-1,9.582748832E0
2.179820267E1,-6.768386841E0,5.544884205E0,-2.952430964E0,9.234373280E0
2.181499217E1,-5.520546913E0,3.098234892E0,-2.373579979E0,6.760871215E0
2.183181974E1,-6.080101490E0,2.178843975E0,8.087711930E-1,6.509155555E0
2.184861142E1,-7.565695286E0,5.299177647E0,2.875918627E0,9.674292575E0
2.186543073E1,-7.944382191E0,6.501815319E0,2.480214596E0,1.056116827E1
2.188223007E1,-7.466131687E0,5.330438614E0,1.887220383E0,9.365804768E0
2.189905465E1,-8.037979126E0,5.544732094E0,2.894494057E0,1.018485436E1
2.191585805E1,-9.577927589E0,4.038472652E0,4.408536434E0,1.129075515E1
2.193266456E1,-1.067120266E1,6.334395409E-1,4.709432125E0,1.168137675E1
2.194947654E1,-1.067135811E1,1.142534733E0,4.458785057E0,1.162170528E1
2.196627734E1,-1.040303326E1,3.657964230E0,3.475898981E0,1.156225224E1
2.198309148E1,-9.856249809E0,2.599025249E0,2.356609583E0,1.046203619E1
2.199989859E1,-6.970845222E0,-6.514440536E0,2.445532322E0,9.849428763E0
2.201670393E1,-1.752026081E0,-1.229259682E1,8.186004639E0,1.487239738E1
2.203351362E1,7.797227859E0,-1.651016235E1,1.166298103E1,2.166581062E1
2.205031880E1,1.567250729E1,-2.123575783E1,3.891451836E0,2.667823631E1
2.206711766E1,1.881200600E1,-2.689851379E1,-5.772090435E0,3.332774583E1
2.208393983E1,1.683364677E1,-3.369051743E1,-9.030364990E0,3.872944771E1
2.210074467E1,1.217306137E1,-3.503140640E1,-7.690068722E0,3.787505795E1
2.211754689E1,1.017895126E1,-2.794837952E1,-1.846161604E0,2.980153149E1
2.213436332E1,8.361860275E0,-1.943913460E1,1.648134470E0,2.122538594E1
2.215117178E1,5.580269814E0,-8.943345070E0,2.850420952E0,1.092006098E1
2.216796333E1,3.488934517E0,8.946685791E-1,3.240744591E0,4.845154428E0
2.218478376E1,3.123657703E0,1.147036076E1,2.107954979E0,1.207352010E1
2.220158882E1,2.403598785E0,2.066020203E1,2.878987789E-1,2.080154130E1
2.221839872E1,5.335106850E-1,2.320339394E1,-7.624258399E-1,2.322204593E1
2.223520601E1,-2.867179155E0,1.921869659E1,-1.007511616E0,1.945749456E1
2.225201294E1,-6.206832409E0,1.359160137E1,-3.065148354E0,1.525291876E1
2.226880972E1,-7.801265717E0,8.123295784E0,-3.720146656E0,1.186116235E1
2.228562879E1,-7.626235008E0,4.256381512E0,-2.158426285E0,8.996390832E0
2.230243676E1,-6.591516972E0,3.086245537E0,-1.690151215E0,7.471922017E0
2.231924661E1,-6.232110977E0,4.530551910E0,-1.714589357E0,7.893346851E0
2.233603995E1,-5.821553230E0,5.848778725E0,-2.282740593E0,8.562102499E0
2.235285990E1,-5.194831371E0,6.123937607E0,-2.903784752E0,8.539370625E0
2.236966663E1,-5.464697838E0,6.092831135E0,-3.938056946E0,9.082610099E0
2.238647423E1,-6.508472919E0,6.618390083E0,-4.515529156E0,1.032246630E1
2.240328480E1,-7.333786011E0,6.727744102E0,-3.791099072E0,1.064985400E1
2.242008910E1,-7.336547852E0,6.687129974E0,-3.098914385E0,1.039932267E1
2.243690015E1,-6.635958195E0,6.828636169E0,-2.891158104E0,9.951131005E0
2.245370741E1,-5.299518108E0,7.916772366E0,-2.359436274E0,9.814637864E0
2.247051625E1,-3.791444302E0,8.024724960E0,-1.198408604E0,8.955860861E0
2.248731900E1,-3.028871775E0,6.410552025E0,-1.263238192E-1,7.091205765E0
2.250412911E1,-2.334811687E0,3.454834938E0,1.104809761E0,4.313679946E0
2.252093861E1,-6.100592613E-1,1.348677158E0,1.882958651E0,2.395127483E0
2.253775075E1,3.620743752E0,-5.615715027E0,1.496347904E0,6.847269356E0
2.255454967E1,9.373606682E0,-2.516242218E1,-1.045828819E0,2.687202542E1
2.257136033E1,8.422370911E0,-4.079058456E1,-7.616696954E-1,4.165799157E1
2.258817395E1,7.847448826E0,-4.448854828E1,2.442233562E0,4.524132940E1
2.260496632E1,8.412694931E0,-3.779296494E1,6.321231365E0,3.923059521E1
2.262177911E1,8.609304428E0,-3.281661224E1,6.778223515E0,3.459760795E1
2.263859559E1,6.660591602E0,-2.483809090E1,3.730087519E0,2.598476078E1
2.265539785E1,4.844752312E0,-1.376809502E1,2.381927520E-1,1.459756148E1
2.267220700E1,1.912079334E0,-3.350180626E0,-1.161891341E0,4.028616276E0
2.268900974E1,-1.536946774E0,7.150102615E0,-6.867898107E-1,7.345600931E0
2.270582288E1,-3.535266399E0,1.373427963E1,-1.049895525E0,1.422078852E1
2.272260842E1,-4.546530247E0,1.642101669E1,-2.063606739E0,1.716330968E1
2.273944042E1,-5.108850002E0,1.748454666E1,-3.131654024E0,1.848288336E1
2.275623226E1,-5.663225651E0,1.668605804E1,-4.783638000E0,1.825869246E1
2.277305413E1,-5.812653542E0,1.363188553E1,-6.552144051E0,1.620326621E1
2.278985254E1,-5.567428112E0,8.876585007E0,-7.428817272E0,1.284435063E1
2.280667079E1,-6.247749329E0,6.447078228E0,-6.902311802E0,1.132435859E1
2.282345925E1,-6.776974678E0,6.821157455E0,-4.543561935E0,1.063482627E1
2.284028270E1,-6.664402008E0,7.723242283E0,-2.433025360E0,1.048724644E1
2.285709431E1,-5.556562901E0,8.280644417E0,-4.607178569E-1,9.982821453E0
2.287389881E1,-4.222105980E0,8.183885574E0,1.261379123E0,9.294796356E0
2.289069315E1,-3.353920937E0,8.271121979E0,2.581118822E0,9.290985890E0
2.290750254E1,-3.071847439E0,8.342588425E0,3.379248619E0,9.510749158E0
2.292432791E1,-3.411459923E0,8.006859779E0,4.311586380E0,9.712756532E0
2.294113020E1,-4.210450649E0,7.131640911E0,4.743681908E0,9.544145577E0
2.295794299E1,-4.548878193E0,6.024679661E0,4.387434959E0,8.731474294E0
2.297475010E1,-4.900046349E0,6.014772892E0,3.417306900E0,8.477377755E0
2.299155274E1,-5.368762493E0,6.079827309E0,2.361240625E0,8.447684186E0
2.300835853E1,-4.802082062E0,2.801590919E0,1.098328114E0,5.667029950E0
2.302517272E1,-3.482490301E0,-4.996256828E0,-6.278902888E-1,6.122464145E0
2.304196902E1,-1.440553665E0,-1.431158257E1,-2.141065359E0,1.454237777E1
2.305878858E1,1.585900784E0,-1.933270264E1,-2.226619482E0,1.952501746E1
2.307558950E1,5.191154480E0,-2.882305527E1,4.269598961E0,2.959638618E1
2.309240097E1,4.070159912E0,-3.958288193E1,9.346969604E0,4.087464476E1
2.310920881E1,2.019601822E0,-3.728158569E1,1.130758190E1,3.901098348E1
2.312601473E1,3.427774906E0,-2.464280319E1,9.886584282E0,2.677241003E1
2.314282633E1,4.315364361E0,-1.277735615E1,5.847021103E0,1.469934881E1
2.315963673E1,3.669337273E0,-9.955505371E0,2.214572430E0,1.083884008E1
2.317643932E1,1.467326164E0,-4.587949276E0,-5.645423532E-1,4.849848730E0
2.319324557E1,4.362869263E-1,3.097998142E0,-9.611618519E-1,3.272884183E0
2.321004493E1,1.167951584E0,9.302252769E0,-5.260745287E-1,9.390035777E0
2.322685825E1,1.206727982E0,1.564075184E1,-1.070151806E0,1.572369344E1
2.324367269E1,-3.421521187E-1,1.920254898E1,-2.781265259E0,1.940593703E1
2.326047747E1,-2.627892017E0,1.812255859E1,-4.170060158E0,1.878090382E1
2.327729135E1,-4.199895382E0,1.477604675E1,-5.137541771E0,1.619768546E1
2.329409578E1,-5.104321957E0,1.293308926E1,-4.753787994E0,1.469412810E1
2.331089665E1,-5.884543896E0,1.126383400E1,-3.553656101E0,1.319584347E1
2.332771402E1,-6.232547283E0,8.619716644E0,-2.896101952E0,1.102413567E1
2.334451527E1,-5.800703049E0,7.136878014E0,-2.575285912E0,9.550669148E0
2.336132482E1,-5.074550629E0,6.652442455E0,-2.131693602E0,8.634244166E0
2.337813315E1,-4.493947983E0,7.253206253E0,-1.206082463E0,8.617378043E0
2.346216967E1,-5.112556458E0,7.574297905E0,2.768512726E0,9.548449350E0
2.347896911E1,-5.398496628E0,4.746469975E0,2.124673128E0,7.495797420E0
2.349578626E1,-5.892706871E0,-1.419957638E0,5.540324003E-2,6.061628781E0
2.351258829E1,-4.543839455E0,-6.628376007E0,-1.218471169E0,8.128131241E0
2.352939933E1,-5.695080757E-1,-1.243016434E1,-1.809175253E0,1.257403833E1
2.354620860E1,3.857471466E0,-2.287810516E1,-2.050410748E0,2.329145694E1
2.356301722E1,5.568693638E0,-3.962907791E1,-6.041073203E-1,4.002298228E1
2.357982179E1,4.692345619E0,-4.090881348E1,4.292993546E0,4.140022851E1
2.359663410E1,7.210904598E0,-3.145150948E1,1.122989082E1,3.416584612E1
2.361344030E1,8.836210251E0,-2.346251678E1,1.554195213E1,2.949780639E1
2.363024333E1,7.934292793E0,-1.778054237E1,7.535809517E0,2.087795762E1
2.364705648E1,4.369449615E0,-1.504209137E1,-4.984491348E0,1.643781484E1
2.366386933E1,1.543762207E0,-1.080353546E1,-6.865960121E0,1.289344751E1
2.368067188E1,6.195850372E-1,-2.738823414E0,-4.799311638E0,5.560434471E0
2.369748766E1,-7.152318954E-2,6.007380962E0,-1.123128414E0,6.111886700E0
2.371428379E1,-1.204946995E0,1.272136497E1,1.877112627E0,1.291543944E1
2.373108103E1,-3.304189205E0,1.592317581E1,3.410359383E0,1.661612907E1
2.374790208E1,-5.544302464E0,1.545453930E1,1.933063269E0,1.653235641E1
2.376468799E1,-6.012870789E0,9.999505997E0,-7.627243996E-1,1.169301004E1
2.378151704E1,-6.484108448E0,3.374385595E0,-3.650415897E0,8.170414722E0
2.379832396E1,-7.010224342E0,3.433058739E0,-3.860798597E0,8.708323802E0
2.381513434E1,-6.560204506E0,5.999457359E0,-3.309392929E0,9.485876519E0
2.383194070E1,-4.778846741E0,7.892094612E0,-2.243775606E0,9.495107293E0
2.384874921E1,-4.178430557E0,1.021007729E1,-3.375549018E-1,1.103716012E1
2.386555546E1,-3.693698168E0,1.056111336E1,8.648707271E-1,1.122178786E1
2.388235824E1,-3.713157654E0,1.020024872E1,1.527345181E0,1.096199786E1
2.389917543E1,-4.405762672E0,7.803938866E0,2.592307568E0,9.329108482E0
2.391596658E1,-5.825263977E0,6.348870754E0,2.777284384E0,9.052909411E0
2.393278921E1,-7.324700356E0,6.592855930E0,2.680025339E0,1.021271367E1
2.394959286E1,-8.035390854E0,6.706583500E0,1.630332351E0,1.059262725E1
2.396640016E1,-8.159106255E0,4.523314476E0,-6.245167255E-1,9.349941704E0
2.398321029E1,-8.259920120E0,2.798676491E0,-1.853571415E0,8.915974287E0
2.400001927E1,-8.681979179E0,1.719482422E0,-1.037782907E0,8.911249948E0
2.401682376E1,-8.463021278E0,2.025194645E0,-7.175586224E-1,8.731496601E0
2.403363319E1,-6.634491920E0,3.702875614E0,-1.546300888E0,7.753632522E0
2.405044172E1,-3.470269442E0,4.969370842E0,-4.814017773E0,7.740296098E0
2.406724710E1,-1.380724907E0,-8.926410675E-1,-3.438641787E0,3.811491398E0
2.408405649E1,2.374738216E0,-1.411181450E1,-2.680032253E-1,1.431273963E1
2.410086251E1,6.557288647E0,-3.304259491E1,2.559562922E-1,3.368792998E1
2.411767396E1,8.736503601E0,-4.327037430E1,-2.553324699E-1,4.414427462E1
2.413448013E1,1.036902618E1,-4.685798264E1,1.221290112E0,4.800707021E1
2.415129310E1,1.069869232E1,-3.713806915E1,2.357283592E0,3.872021415E1
2.416809391E1,9.554261208E0,-2.324710274E1,1.321678877E0,2.516860203E1
2.418489197E1,6.890202522E0,-1.224592781E1,1.967725873E0,1.418836086E1
2.420171044E1,3.516043663E0,-1.992990494E0,2.342956066E0,4.671618272E0
2.421851744E1,-1.679587364E-1,6.484733582E0,-4.436345100E-1,6.502060546E0
2.423532333E1,-2.018795013E0,1.384153175E1,-3.241339207E0,1.435861464E1
2.425212630E1,-1.638414860E0,1.771557808E1,-3.703778744E0,1.817261915E1
2.426894693E1,-2.831777573E0,1.962742615E1,-1.222190857E0,1.986828055E1
2.428574892E1,-4.250435352E0,1.807267761E1,1.706191778E0,1.864400620E1
2.430255396E1,-5.456102371E0,1.277473736E1,4.239133835E0,1.452354032E1
2.431936788E1,-5.872884750E0,7.870484352E0,4.885132313E0,1.096812732E1
2.433617376E1,-7.287867069E0,4.437315941E0,5.155011177E0,9.968797290E0
2.435299582E1,-7.010675430E0,3.979963064E0,4.656015396E0,9.309573317E0
2.436978333E1,-6.151439190E0,5.280788422E0,3.719781399E0,8.919848884E0
2.438659974E1,-5.036303997E0,7.298523903E0,2.671465635E0,9.261184468E0
2.440340056E1,-4.104054451E0,9.395953178E0,2.187448978E0,1.048389871E1
2.442021330E1,-3.434199572E0,1.042298222E1,2.049932480E0,1.116398263E1
2.443702475E1,-3.167978287E0,9.192086220E0,1.755129099E0,9.879828625E0
2.445382640E1,-3.415970564E0,6.318982124E0,1.646385312E0,7.369462299E0
2.447064041E1,-5.201990128E0,6.037132740E0,1.222851515E0,8.062446207E0
2.448744082E1,-6.201144695E0,7.095860958E0,1.006210566E0,9.477230501E0
2.450845245E1,-5.784339428E0,6.148553848E0,4.139077067E-1,8.451900179E0
2.452526091E1,-4.556427956E0,4.000452995E0,-9.649634361E-3,6.063394511E0
2.454206780E1,-3.899452686E0,-2.148299217E-1,-2.531233788E0,4.653926045E0
2.455887908E1,-1.726944923E0,-6.083105087E0,-3.380956411E0,7.170590807E0
2.457568440E1,4.738340378E0,-1.762000656E1,-4.460350990E0,1.878327000E1
2.459249294E1,1.273447227E1,-2.894813728E1,-7.416574955E0,3.248333450E1
2.460929897E1,1.510680962E1,-3.928871536E1,-4.575488091E0,4.234092515E1
2.462610849E1,1.306394768E1,-3.447145081E1,5.116397142E-1,3.686745753E1
2.464291589E1,9.996168137E0,-2.959382057E1,6.721021652E0,3.195136500E1
2.465972453E1,6.772152424E0,-2.533345032E1,9.656065941E0,2.794432613E1
2.467652989E1,3.018880367E0,-1.981389618E1,8.274116516E0,2.168329137E1
2.469334058E1,-3.047761917E-1,-9.261222839E0,5.429127693E0,1.073957935E1
2.471014785E1,-4.099795341E0,1.036677361E0,3.381833553E0,5.414777925E0
2.472695768E1,-7.433449268E0,1.129653549E1,2.463113308E0,1.374535592E1
2.474376246E1,-8.840784073E0,1.724416161E1,1.175353885E0,1.941396480E1
2.476057152E1,-8.577528000E0,1.546581364E1,-1.322682977E0,1.773456705E1
2.477737703E1,-8.126086235E0,1.138836002E1,1.019901037E-1,1.399065486E1
2.479416944E1,-7.803966999E0,9.086142540E0,4.735002041E0,1.287944609E1
2.481099204E1,-8.556238174E0,6.469269753E0,8.466986656E0,1.366566961E1
2.482780702E1,-8.543606758E0,3.202942610E0,7.550600529E0,1.184329456E1
2.484460872E1,-8.405749321E0,2.779703379E0,4.525336266E0,9.942939245E0
2.486139718E1,-7.850764751E0,3.831120014E0,2.722713470E0,9.150145157E0
2.487823093E1,-6.716404438E0,4.715858459E0,2.236877680E0,8.506058508E0
2.489502110E1,-5.707199097E0,5.066743851E0,2.037075996E0,7.898967869E0
2.491183948E1,-5.880262375E0,6.548923492E0,1.966063738E0,9.018386282E0
2.492864729E1,-6.115335464E0,8.567140579E0,1.096255302E0,1.058276907E1
2.494545749E1,-6.246375084E0,1.015979767E1,-1.904726028E-3,1.192638646E1
2.496226137E1,-5.626545906E0,1.047754097E1,-7.336069345E-1,1.191532890E1
2.497906833E1,-5.481988430E0,8.550364494E0,-9.110441208E-1,1.019759440E1
2.499588069E1,-5.147120476E0,6.861124992E0,-9.989758730E-1,8.635151310E0
2.501267483E1,-3.769092560E0,6.108565331E0,-7.080109715E-1,7.212621483E0
2.502949627E1,-8.448119164E-1,6.099027634E0,-1.028867245E0,6.242628698E0
2.504630030E1,3.613979816E0,7.906641960E-1,-3.168857574E0,4.871104424E0
2.506310846E1,8.044324875E0,-1.246893501E1,-6.274898529E0,1.611086139E1
2.507990514E1,1.135132790E1,-2.280894661E1,-8.117623329E0,2.673941845E1
2.509672520E1,1.274971867E1,-2.191701889E1,-1.019550514E1,2.732872789E1
2.511353181E1,1.622388077E1,-2.833648682E1,-8.119045258E0,3.364654051E1
2.513033951E1,1.595271683E1,-3.321778870E1,-1.364847898E0,3.687510637E1
2.514714401E1,1.334431839E1,-3.439841461E1,6.071042538E0,3.739223607E1
2.516396392E1,8.024404526E0,-2.940584183E1,1.149660683E1,3.257708658E1
2.518076158E1,2.144389629E0,-2.022808075E1,1.392717743E1,2.465238181E1
2.519757156E1,-2.613791466E0,-1.024681473E1,1.326213646E1,1.696211606E1
2.521437984E1,-4.886558533E0,-1.611604691E-1,8.346302986E0,9.672910654E0
2.523118031E1,-5.565963268E0,8.424611092E0,9.659969807E-1,1.014333127E1
2.524799058E1,-5.897030354E0,1.406846046E1,-3.571975231E0,1.566702122E1
2.526480222E1,-6.362635136E0,1.660778046E1,-3.487009048E0,1.812348558E1
2.528161003E1,-7.027138233E0,1.563171482E1,-8.434407115E-1,1.715932901E1
2.529842015E1,-7.314388275E0,1.252857780E1,1.016488910E0,1.454299788E1
2.531521789E1,-7.780604362E0,1.004653072E1,2.494360447E0,1.294961072E1
2.533203475E1,-7.799672604E0,7.491391659E0,2.936118364E0,1.120609802E1
2.534883404E1,-7.417485237E0,5.274221420E0,2.718322515E0,9.498724974E0
2.536565134E1,-7.168220520E0,4.563098907E0,2.112244129E0,8.755959817E0
2.538244311E1,-6.852961540E0,4.398009300E0,1.235677481E0,8.236046777E0
2.539926837E1,-6.210228443E0,4.751346111E0,5.861681104E-1,7.841289450E0
2.541607138E1,-5.793424606E0,6.186617374E0,5.540979505E-1,8.493822917E0
2.543287980E1,-5.703097343E0,8.922348976E0,8.232452273E-1,1.062126938E1
2.544968757E1,-6.210341454E0,9.914449692E0,1.214163065E0,1.176175351E1
2.546649313E1,-6.552151680E0,8.924806595E0,1.041269302E0,1.112057131E1
2.548330478E1,-6.910435677E0,5.332993507E0,8.490076661E-1,8.770162770E0
2.550010832E1,-7.643308163E0,2.635253906E0,2.537234128E-2,8.084885069E0
2.551690655E1,-7.570293903E0,2.525790453E0,-7.301079035E-1,8.013864533E0
2.553371443E1,-6.505679131E0,3.249100685E0,-1.022851825E0,7.343482966E0
2.555053779E1,-4.128235340E0,-2.536487579E-1,-1.874421120E0,4.540938146E0
2.556734179E1,-1.355595112E0,-7.342112064E0,-3.216619015E0,8.129630100E0
2.558415176E1,5.359420300E0,-1.732405472E1,-3.808222055E0,1.852967385E1
2.560096049E1,1.104583549E1,-2.434141541E1,-2.705481052E0,2.686697998E1
2.561776715E1,1.205426788E1,-2.501451874E1,-3.916955709E0,2.804236195E1
2.563457379E1,1.615553856E1,-2.852309608E1,-1.758609176E0,3.282774958E1
2.565137844E1,1.676042557E1,-2.675050926E1,-1.470576048E0,3.160164877E1
2.566819167E1,1.524573994E1,-2.259865952E1,-2.241078615E0,2.735241180E1
2.568499130E1,1.247696114E1,-1.822223854E1,-6.030271649E-1,2.209271777E1
2.570180411E1,8.389042854E0,-1.247254372E1,1.096183062E0,1.507123101E1
2.571861288E1,4.928306103E0,-5.894158840E0,2.863295555E0,8.199254290E0
2.573541890E1,9.962964058E-1,1.142785072E0,3.860633373E0,4.147656482E0
2.575222589E1,-2.647586346E0,7.534521103E0,3.202219486E0,8.604239150E0
2.576903587E1,-5.047237396E0,1.089307404E1,2.113164425E0,1.219012433E1
2.578584179E1,-7.096157551E0,1.243118668E1,1.150065184E0,1.436010112E1
2.580264354E1,-8.332631111E0,1.211213112E1,1.000165462E0,1.473556217E1
2.581945748E1,-9.075417519E0,1.083659744E1,1.291030049E0,1.419372417E1
2.583627261E1,-9.377884865E0,9.055157661E0,1.447813869E0,1.311627881E1
2.585307395E1,-9.379344940E0,6.695838451E0,9.622178674E-1,1.156426510E1
2.586987703E1,-9.187906265E0,4.388492107E0,3.498358130E-1,1.018817303E1
2.588668706E1,-9.320878983E0,3.056646109E0,-3.155159354E-1,9.814347698E0
2.590351038E1,-9.577963829E0,2.858537674E0,-8.338673115E-1,1.003015271E1
2.592030423E1,-9.869961739E0,4.193247795E0,-3.453345299E-1,1.072933958E1
2.593711700E1,-9.494821548E0,6.311835766E0,2.935113013E-1,1.140513287E1
2.595391673E1,-8.659679413E0,7.758572578E0,4.969839156E-1,1.163754652E1
2.597073260E1,-7.231824875E0,7.983720779E0,3.511279821E-2,1.077220133E1
2.598753227E1,-6.129586697E0,8.010378838E0,2.355788648E-1,1.008927647E1
2.600434456E1,-5.329803467E0,9.033860207E0,7.907704711E-1,1.051868590E1
2.608417355E1,2.985000610E-4,-2.974164963E0,4.356310666E-1,3.005899490E0
2.610099876E1,3.357300282E0,-6.922731400E0,-2.036186695E0,7.958751879E0
2.611779947E1,1.171820831E1,-2.660126114E1,-6.286355019E0,2.973990181E1
2.613459949E1,1.242616081E1,-3.665531921E1,-6.158992767E0,3.919126294E1
2.615140859E1,1.266209221E1,-4.123781204E1,-6.271033764E0,4.359141642E1
2.616821885E1,1.296296883E1,-3.639728165E1,-3.199789762E0,3.876905114E1
2.618502407E1,1.233702946E1,-3.136585617E1,1.943722486E0,3.376088397E1
2.620183102E1,8.000204086E0,-2.360634422E1,3.076026201E0,2.511423282E1
2.621863976E1,3.569650173E0,-1.501597404E1,2.984796047E0,1.572039714E1
2.623543971E1,1.742906570E-1,-4.427038670E0,2.130260944E0,4.916000438E0
2.625225542E1,-1.683808327E0,5.957881451E0,-3.504351377E-1,6.201158492E0
2.626905124E1,-3.598149776E0,1.444861984E1,-2.480885506E0,1.509516777E1
2.628586525E1,-5.491256237E0,1.870820045E1,-2.544793129E0,1.966282359E1
2.630268123E1,-7.142032623E0,1.920805168E1,-7.697153091E-2,2.049301842E1
2.631948786E1,-8.970757484E0,1.688810158E1,2.981133699E0,1.935380125E1
2.633629300E1,-9.327995300E0,1.295103836E1,3.923921585E0,1.643587696E1
2.635310082E1,-8.730524063E0,9.966016769E0,3.926027298E0,1.381872755E1
2.636991332E1,-7.128077984E0,9.374117851E0,3.539993763E0,1.229695642E1
2.638671673E1,-5.464397907E0,9.737200737E0,2.691793203E0,1.148557675E1
2.640352497E1,-4.266117573E0,9.313641548E0,1.478129387E0,1.035029200E1
2.642033352E1,-3.705651283E0,8.735874176E0,4.604581892E-1,9.500493187E0
2.643714046E1,-2.844280005E0,7.381903172E0,-3.712562919E-1,7.919612011E0
2.645395511E1,-2.964795589E0,4.553092003E0,2.403653711E-1,5.438605997E0
2.647075600E1,-3.698842049E0,4.661061287E0,8.101279736E-1,6.005267034E0
2.648756335E1,-4.316224098E0,6.592606068E0,9.563944340E-1,7.937690819E0
2.650437290E1,-4.742118359E0,8.499254227E0,7.460702062E-1,9.761230952E0
2.652117832E1,-4.666890144E0,9.387790680E0,-2.900308967E-1,1.048783082E1
2.653797508E1,-4.009930134E0,7.658771992E0,-1.490562916E0,8.772576925E0
2.655479425E1,-4.784572601E0,4.074294090E0,-1.606136560E0,6.486268724E0
2.657160398E1,-6.108757973E0,2.634257793E0,7.442868948E-1,6.694042207E0
2.658840964E1,-5.147194862E0,6.347975731E-1,-4.073216319E-1,5.202162418E0
2.660521822E1,-2.400982857E0,-2.368441105E0,-1.533630371E0,3.704895958E0
2.662203315E1,1.924059868E0,-1.813771439E1,-2.665312290E0,1.843319232E1
2.663883164E1,1.471526146E0,-2.807203102E1,1.136898994E0,2.813355388E1
2.665563299E1,4.681587219E-2,-2.394431686E1,5.606369972E0,2.459194759E1
2.667243871E1,7.098570347E0,-2.964485168E1,1.062878418E1,3.228278156E1
2.668924688E1,7.909335613E0,-3.354503632E1,6.568742275E0,3.508525939E1
2.670606127E1,5.788712502E0,-3.515028381E1,-8.630579710E-1,3.563420427E1
2.672288924E1,1.092766762E0,-3.218781662E1,-2.763324738E0,3.232469090E1
2.673968349E1,9.367794991E-1,-2.044409561E1,-1.841799736E0,2.054825607E1
2.675648918E1,4.126075268E0,-5.188698292E0,2.996460915E0,7.275016501E0
2.677329418E1,7.576668739E0,8.219157219E0,3.082400322E0,1.159575984E1
2.679009327E1,8.441436768E0,1.631837082E1,-2.662515163E0,1.856437631E1
2.680690614E1,6.667699814E0,1.979728699E1,-7.300541878E0,2.212891106E1
2.682372485E1,3.637760162E0,2.171890259E1,-5.666497707E0,2.273880439E1
2.684052327E1,7.660140991E-1,2.167882156E1,-2.980516911E0,2.189615407E1
2.685733672E1,-2.730240345E0,1.729885864E1,-4.937756658E-1,1.751994683E1
2.687414487E1,-5.973052025E0,8.213833809E0,9.335663915E-1,1.019882163E1
2.689095558E1,-7.854014874E0,3.517326355E0,2.050165415E0,8.846485887E0
2.690775879E1,-7.799430847E0,1.124884605E0,2.743102551E0,8.343925846E0
2.692456428E1,-8.682973862E0,2.056253910E0,2.712344408E0,9.326254737E0
2.694137469E1,-7.817697525E0,3.206214905E0,7.643763423E-1,8.484131058E0
2.695818268E1,-5.635437012E0,5.079222202E0,-9.578988552E-1,7.646843709E0
2.697499029E1,-4.517035961E0,9.010602951E0,-1.946123123E0,1.026557230E1
2.699179690E1,-4.832397938E0,1.068700886E1,-1.703274846E0,1.185180886E1
2.700860595E1,-7.340709686E0,8.193102837E0,-3.430634260E0,1.152311608E1
2.702541199E1,-8.425033569E0,4.247240543E0,-8.555556297E0,1.273647465E1
2.704221895E1,-7.233535767E0,2.602858543E0,-7.329313278E0,1.062156982E1
2.705902900E1,-6.311565876E0,3.738946915E0,-5.085249901E0,8.926105220E0
2.707583448E1,-5.030902386E0,2.600532055E0,-3.346405506E0,6.578082973E0
2.709264465E1,-3.312264442E0,5.639548302E-1,-1.777224541E0,3.801008794E0
2.710945096E1,2.249068737E0,-6.158113003E0,5.829602480E-1,6.581831705E0
2.712625795E1,7.548099518E0,-1.944961739E1,1.393262029E0,2.090939028E1
2.714306697E1,6.448156357E0,-2.915304565E1,5.106367111E0,3.029115013E1
2.715987510E1,8.571564674E0,-3.230620956E1,7.608980179E0,3.427914055E1
2.717667388E1,9.588363647E0,-2.825811768E1,8.103006363E0,3.092113588E1
2.719349019E1,1.024760437E1,-2.577626801E1,9.118412018E0,2.919888397E1
2.721028232E1,8.407484055E0,-2.259812164E1,8.542558670E0,2.557999606E1
2.722710434E1,4.457314491E0,-1.761620140E1,5.709143639E0,1.904711331E1
2.724390342E1,-2.805757523E-1,-9.268463135E0,1.722667694E0,9.431368703E0
2.726072156E1,-3.414482832E0,3.399353027E-1,-1.847364068E0,3.897050554E0
2.727752791E1,-5.783063889E0,9.537866592E0,-3.549853563E0,1.170539138E1
2.729433001E1,-6.828956604E0,1.481688404E1,-3.106120586E0,1.660791035E1
2.731115021E1,-6.833810329E0,1.676944733E1,-1.465231419E0,1.816761488E1
2.732796086E1,-6.538388252E0,1.700896835E1,-9.462869167E-2,1.822263647E1
2.734475870E1,-6.593318462E0,1.559845448E1,7.704956532E-1,1.695220617E1
2.736156346E1,-6.366655350E0,1.289376068E1,1.107915998E0,1.442258100E1
2.737837947E1,-6.137455940E0,9.974252701E0,7.493001819E-1,1.173522616E1
2.739518252E1,-6.393045425E0,7.856854916E0,6.677051187E-1,1.015120826E1
2.741821667E1,-6.965342999E0,5.853115559E0,-4.996317625E-2,9.098211975E0
2.743510385E1,-6.935385227E0,5.466126442E0,1.445820332E-1,8.831704846E0
2.745193258E1,-6.160790443E0,5.307458401E0,1.035479069E0,8.197357529E0
2.746871837E1,-5.650778294E0,5.654617310E0,1.566816688E0,8.146220398E0
2.748552643E1,-4.958308697E0,6.371919155E0,2.090062141E0,8.339936367E0
2.750233460E1,-4.429698944E0,6.618547916E0,2.999685764E0,8.510318675E0
2.751914456E1,-4.432711124E0,6.570818424E0,3.823696136E0,8.800297428E0
2.753595029E1,-4.525384426E0,7.115879059E0,4.503443718E0,9.560117379E0
2.755275622E1,-3.321583033E0,6.199931145E0,6.145190716E0,9.339990844E0
2.756956434E1,-1.178552151E0,6.532756805E0,8.975036621E0,1.116320648E1
2.758637468E1,2.562114239E0,4.537404060E0,1.047624588E1,1.170060651E1
2.760317744E1,7.736073494E0,-8.590644836E0,5.049911499E0,1.261537229E1
2.761998826E1,1.110305405E1,-2.613491058E1,-4.594980240E0,2.876499963E1
2.763679641E1,7.504371166E0,-3.681241989E1,-1.005608463E1,3.889209024E1
2.765360251E1,6.636057854E0,-4.640866852E1,-7.516231060E0,4.747942193E1
2.767040874E1,4.169626236E0,-4.342494965E1,-2.254174471E0,4.368287236E1
2.768721935E1,3.976856232E0,-3.218537903E1,7.052035332E0,3.318802813E1
2.770402567E1,4.236620903E0,-1.781842804E1,8.983083725E0,2.039953744E1
2.772083815E1,4.100415707E0,-6.532844067E0,6.007678032E0,9.776689414E0
2.773764159E1,3.920974255E0,2.477578163E0,-6.782933474E-1,4.687484883E0
2.775444869E1,3.010882854E0,9.831863403E0,-4.898832321E0,1.138988638E1
2.777125800E1,9.831795692E-1,1.651156616E1,-5.699540615E0,1.749523428E1
2.778807094E1,-7.314200401E-1,1.956887817E1,-3.840373516E0,1.995556156E1
2.780486365E1,-2.141959667E0,1.942129135E1,-1.772142172E0,1.961925169E1
2.782168319E1,-2.834508419E0,1.594430923E1,-5.084406137E-1,1.620228215E1
2.783848790E1,-3.243705273E0,1.138290596E1,5.653872490E-1,1.184954998E1
2.785529526E1,-3.836045265E0,7.099621296E0,1.426741958E0,8.194843405E0
2.787210445E1,-4.615480423E0,4.888950348E0,1.473101377E0,6.882915277E0
2.788891390E1,-5.097876549E0,4.333526611E0,1.362775087E0,6.828246783E0
2.790571836E1,-5.309125900E0,4.745720863E0,9.867781401E-1,7.189048298E0
2.792252954E1,-5.465149879E0,5.828760624E0,3.547769785E-1,7.998011023E0
2.793932642E1,-5.267150879E0,6.702559948E0,-3.144496083E-1,8.530302855E0
2.795614467E1,-5.655947208E0,7.210241318E0,-6.165255308E-1,9.184629683E0
2.797293815E1,-6.606836796E0,7.506186008E0,-1.380254388E0,1.009446497E1
2.798975866E1,-7.893604279E0,7.398474693E0,-2.744809628E0,1.116155886E1
2.800656548E1,-8.717476845E0,7.132223606E0,-3.828692436E0,1.189629782E1
2.802337209E1,-1.056750202E1,7.153364182E0,-4.240774155E0,1.344718868E1
2.804018310E1,-1.298710823E1,7.646334171E0,-5.132448196E0,1.592084894E1
2.805698801E1,-1.290823936E1,1.235734463E0,-9.678964615E0,1.618122490E1
2.807379713E1,-8.262841225E0,-8.107807159E0,-1.015884972E1,1.540173073E1
2.809060451E1,-1.716384888E-1,-1.594006729E1,-4.360291004E0,1.652656476E1
2.810741437E1,6.240530968E0,-2.591231728E1,7.245457172E0,2.762044647E1
2.812421946E1,9.618373871E0,-3.202511597E1,9.142068863E0,3.466552454E1
2.814102895E1,1.576529789E1,-3.003952408E1,5.416409492E0,3.435484123E1
2.815784021E1,1.816110229E1,-2.914285088E1,-2.745523214E0,3.444806659E1
2.817464373E1,1.936227036E1,-3.543814468E1,-4.534169197E0,4.063641596E1
2.819145010E1,1.565493870E1,-3.298558044E1,-7.192453742E-1,3.651907634E1
2.820826610E1,1.026557827E1,-2.630274391E1,1.077219009E0,2.825556291E1
2.822507089E1,7.397903442E0,-1.499264145E1,2.000876188E0,1.683780801E1
2.824186371E1,6.252821922E0,-1.168895245E0,-8.419629931E-1,6.416619029E0
2.825868054E1,3.155173779E0,7.852279663E0,-5.305842876E0,9.988262417E0
2.827548879E1,4.384269714E-1,1.174474335E1,-5.821394920E0,1.311563393E1
2.829229857E1,-1.863339424E0,1.418534660E1,-1.723128796E0,1.441059558E1
2.830910363E1,-4.000537872E0,1.444171715E1,3.508045197E0,1.539070754E1
2.832591418E1,-4.785081863E0,1.326179409E1,4.958857059E0,1.494531546E1
2.834272073E1,-5.014127731E0,1.183332825E1,2.119779110E0,1.302545960E1
2.835951725E1,-4.955188274E0,9.338895798E0,-2.231562376E0,1.080503291E1
2.837633589E1,-4.738522530E0,7.505626678E0,-5.455152512E0,1.041857555E1
2.839314388E1,-4.666905880E0,7.159208298E0,-6.445196152E0,1.070396316E1
2.840995277E1,-4.544419289E0,8.333023071E0,-4.246302128E0,1.039817782E1
2.842675491E1,-4.351284027E0,9.153085709E0,-1.246250391E0,1.021106217E1
2.844356862E1,-4.267994881E0,9.987699509E0,6.293523312E-1,1.087961425E1
2.846036338E1,-3.972828388E0,9.923326492E0,1.329168081E0,1.077137233E1
2.847718227E1,-3.290371418E0,9.611235619E0,1.448847771E0,1.026165455E1
2.849399193E1,-2.888226986E0,8.972955704E0,1.109051704E0,9.491353163E0
2.851079787E1,-2.712458134E0,8.283015251E0,5.592799187E-2,8.716013924E0
2.852760747E1,-2.962231159E0,7.857245922E0,-9.010182619E-1,8.445292229E0
2.854441236E1,-2.970708370E0,7.718006134E0,-1.461505771E0,8.398138247E0
2.856122359E1,-3.315074444E0,7.852694035E0,-1.312363386E0,8.624199663E0
2.857802754E1,-3.469468594E0,6.239298820E0,-9.529756904E-1,7.202376327E0
2.859484213E1,-3.609766960E0,2.574072838E0,-8.540523648E-1,4.515049714E0
