"Time (s)","Linear Acceleration x (m/s^2)","Linear Acceleration y (m/s^2)","Linear Acceleration z (m/s^2)","Absolute acceleration (m/s^2)"
2.410665600E-2,4.714800045E-2,-1.574300043E-2,2.050700039E-2,5.377093149E-2
2.902842500E-2,4.714800045E-2,-1.574300043E-2,2.050700039E-2,5.377093149E-2
3.395003600E-2,4.714800045E-2,-1.574300043E-2,2.050700039E-2,5.377093149E-2
3.887188000E-2,4.714800045E-2,-1.574300043E-2,2.050700039E-2,5.377093149E-2
4.379395700E-2,4.714800045E-2,-1.574300043E-2,2.050700039E-2,5.377093149E-2
4.871583900E-2,4.714800045E-2,-1.574300043E-2,2.050700039E-2,5.377093149E-2
5.363768500E-2,4.714800045E-2,-1.574300043E-2,2.050700039E-2,5.377093149E-2
5.855953100E-2,4.714800045E-2,-1.574300043E-2,2.050700039E-2,5.377093149E-2
6.348118500E-2,4.714800045E-2,-1.574300043E-2,2.050700039E-2,5.377093149E-2
6.840295200E-2,4.714800045E-2,-1.574300043E-2,2.050700039E-2,5.377093149E-2
7.332482200E-2,4.714800045E-2,-1.574300043E-2,2.050700039E-2,5.377093149E-2
7.824666800E-2,4.714800045E-2,-1.574300043E-2,2.050700039E-2,5.377093149E-2
8.316851400E-2,4.714800045E-2,-1.574300043E-2,2.050700039E-2,5.377093149E-2
8.809014600E-2,4.714800045E-2,-1.574300043E-2,2.050700039E-2,5.377093149E-2
9.301199000E-2,4.714800045E-2,-1.574300043E-2,2.050700039E-2,5.377093149E-2
9.793383600E-2,4.714800045E-2,-1.574300043E-2,2.050700039E-2,5.377093149E-2
1.028557120E-1,5.038999952E-3,-3.789500147E-2,-8.464899659E-2,9.288097373E-2
1.077775580E-1,-2.559999994E-4,-4.647399858E-2,-6.130899861E-2,7.693303186E-2
1.126994040E-1,1.485299971E-2,-2.906199917E-2,-3.784999996E-2,4.997833424E-2
1.176212700E-1,3.808899969E-2,-4.467000067E-2,-2.914099954E-2,6.553913878E-2
1.225431160E-1,4.639299959E-2,-6.208499894E-2,-2.080300078E-2,8.024725755E-2
1.274649620E-1,4.296699911E-2,-6.729800254E-2,-1.257499959E-2,8.082892288E-2
1.323867940E-1,6.248600036E-2,-5.324300006E-2,2.903899923E-2,8.707801544E-2
1.373085650E-1,3.559799865E-2,-5.088000000E-2,4.425999895E-2,7.625575004E-2
1.422301610E-1,2.360600047E-2,-3.850800171E-2,8.321499825E-2,9.468286744E-2
1.471522360E-1,7.325999904E-3,2.351999981E-3,1.295250058E-1,1.297533403E-1
1.520740840E-1,-1.760699973E-2,1.523599960E-2,1.658959985E-1,1.675220118E-1
1.569956990E-1,-4.953000229E-3,2.022800036E-2,1.858589947E-1,1.870221113E-1
1.619177740E-1,7.249000017E-3,1.834799908E-2,1.744929999E-1,1.756046813E-1
1.668393920E-1,6.342200190E-2,3.511400148E-2,1.513479948E-1,1.678140607E-1
1.717612360E-1,5.761799961E-2,2.840499952E-2,1.590840071E-1,1.715645628E-1
1.766830820E-1,3.123199940E-2,5.471900105E-2,1.527969986E-1,1.652771298E-1
1.816049430E-1,2.199600078E-2,6.870499998E-2,1.443489939E-1,1.613717234E-1
1.865267890E-1,-1.479199994E-2,5.429600179E-2,1.381759942E-1,1.491960604E-1
1.914486110E-1,-2.720900066E-2,5.894799903E-2,1.416630000E-1,1.558319668E-1
1.963701520E-1,-2.990300022E-2,4.938500002E-2,1.474699974E-1,1.583681401E-1
2.012922220E-1,-3.928299993E-2,5.624900013E-2,1.487070024E-1,1.637708053E-1
2.062140700E-1,-3.779999912E-3,3.931299970E-2,1.474319994E-1,1.526302552E-1
2.111359300E-1,5.406000186E-3,2.992999926E-2,1.291899979E-1,1.327218341E-1
2.160575460E-1,1.696000062E-2,1.299200021E-2,9.918799996E-2,1.014627667E-1
2.209793130E-1,-1.203999971E-3,-1.725300029E-2,1.117770001E-1,1.131070882E-1
2.259012220E-1,-1.619499922E-2,-2.494700067E-2,1.132239997E-1,1.170653875E-1
2.308229930E-1,1.365000010E-2,-6.298699975E-2,1.285610050E-1,1.438110449E-1
2.357448370E-1,6.154699996E-2,-5.830699950E-2,1.272809952E-1,1.529319821E-1
2.406667500E-1,6.406100094E-2,-6.830299646E-2,1.022370011E-1,1.386416804E-1
2.455885220E-1,8.073800057E-2,-7.222100347E-2,2.273200080E-2,1.106853285E-1
2.505103660E-1,3.172000125E-2,-2.400399931E-2,7.051199675E-2,8.095858291E-2
2.554321980E-1,9.565000422E-3,4.575999919E-3,9.226000309E-2,9.286730953E-2
2.603538150E-1,-3.764399886E-2,3.738100082E-2,1.048280001E-1,1.174875290E-1
2.652758700E-1,-6.744000316E-2,5.570600182E-2,1.103229970E-1,1.407923163E-1
2.701974880E-1,-9.643000364E-2,9.004399925E-2,9.474100173E-2,1.624269830E-1
2.751192600E-1,-1.087170020E-1,1.472750008E-1,9.650699794E-2,2.069369784E-1
2.800411060E-1,-1.139310002E-1,1.389899999E-1,9.173399955E-2,2.017761620E-1
2.849630290E-1,-8.717100322E-2,1.129380018E-1,9.805600345E-2,1.731148632E-1
2.898847950E-1,-5.942200124E-2,1.121720001E-1,3.304899856E-2,1.311707595E-1
2.948066400E-1,-3.305200115E-2,1.019750014E-1,1.336400025E-2,1.080274604E-1
2.997284860E-1,-1.699800044E-2,7.112400234E-2,-9.269000031E-3,7.371207560E-2
3.046503180E-1,-2.033899911E-2,4.724200070E-2,2.766000107E-3,5.150856503E-2
3.095721640E-1,-1.208600029E-2,4.738400131E-2,-2.029000083E-3,4.894314891E-2
3.144940100E-1,-8.867999539E-3,1.115999999E-3,1.387500018E-2,1.650462062E-2
3.194155360E-1,-5.977999885E-3,3.506499901E-2,-2.464099973E-2,4.327204070E-2
3.243374570E-1,1.978999935E-2,2.856400050E-2,-1.788000017E-2,3.907992586E-2
3.292593030E-1,3.316299990E-2,5.710100010E-2,-2.502099983E-2,7.061415727E-2
3.341811830E-1,2.026199922E-2,4.600900039E-2,-4.338600114E-2,6.640573638E-2
3.391030290E-1,2.386800013E-2,4.844899848E-2,-6.369400024E-2,8.350995480E-2
3.440248990E-1,-2.090000053E-4,4.747699946E-2,-1.001119986E-1,1.107994649E-1
3.489466710E-1,-5.272999872E-3,4.350899905E-2,-1.194429994E-1,1.272299793E-1
3.538685150E-1,-5.942000076E-3,6.708899885E-2,-1.141820028E-1,1.325661001E-1
3.587901320E-1,-1.153299958E-2,5.443700030E-2,-1.101019979E-1,1.233646911E-1
3.637122070E-1,-1.695599966E-2,3.047499992E-2,-7.526099682E-2,8.294847308E-2
3.686340550E-1,1.514399983E-2,-1.844000071E-2,-2.688699961E-2,3.594836721E-2
3.735559020E-1,3.720299900E-2,4.870399833E-2,1.977200061E-2,6.439778409E-2
3.784775170E-1,5.190899968E-2,4.387899861E-2,2.101299912E-2,7.114391681E-2
3.833993610E-1,8.500800282E-2,1.380000031E-3,2.902499959E-2,8.983716127E-2
3.883211220E-1,1.201269999E-1,-5.980800092E-2,-1.557999989E-3,1.342010449E-1
3.932429670E-1,1.734890044E-1,-1.657869965E-1,-7.330299914E-2,2.509125197E-1
3.981648280E-1,2.304230034E-1,-2.901119888E-1,-2.278629988E-1,4.349497359E-1
4.030867510E-1,2.440440059E-1,-3.426179886E-1,-4.074110091E-1,5.856007968E-1
4.080085310E-1,1.563349962E-1,-4.134300053E-1,-5.117440224E-1,6.762003732E-1
4.129301460E-1,-1.068599969E-1,-6.335369945E-1,-5.638530254E-1,8.548206926E-1
4.178519910E-1,-2.650910020E-1,-5.692909956E-1,-6.259379983E-1,8.866588153E-1
4.227738230E-1,-3.675490022E-1,-2.691780031E-1,-6.701760292E-1,8.103610161E-1
4.276956690E-1,-3.590590060E-1,8.445999771E-2,-7.445200086E-1,8.308832073E-1
4.326175150E-1,-3.179939985E-1,4.015649855E-1,-8.352100253E-1,9.797705890E-1
4.375393750E-1,-3.293240070E-1,6.123560071E-1,-9.073849916E-1,1.143145531E0
4.424612210E-1,-3.503530025E-1,6.793230176E-1,-8.920950294E-1,1.174759775E0
4.473829930E-1,-3.550490141E-1,6.384779811E-1,-7.250599861E-1,1.029284178E0
4.523048320E-1,-2.951549888E-1,5.371950269E-1,-3.762480021E-1,7.192061758E-1
4.572266780E-1,-9.893000126E-2,4.048520029E-1,-2.324499935E-2,4.174118103E-1
4.621485240E-1,1.222070009E-1,2.466740012E-1,2.499649972E-1,3.718401723E-1
4.670703700E-1,2.550550103E-1,1.315670013E-1,4.222419858E-1,5.105401343E-1
4.719922160E-1,4.559729993E-1,-1.204000041E-2,5.988339782E-1,7.527672091E-1
4.769138340E-1,5.948280096E-1,-1.222139969E-1,6.962199807E-1,9.238392087E-1
4.818359190E-1,7.437610030E-1,-2.182260007E-1,7.408289909E-1,1.072208287E0
4.867577670E-1,8.666759729E-1,-3.280839920E-1,8.591539860E-1,1.263689804E0
4.916796130E-1,9.800549746E-1,-4.249329865E-1,9.790949821E-1,1.449035120E0
4.966012140E-1,1.036051989E0,-5.304570198E-1,8.996750116E-1,1.471123210E0
5.015230580E-1,9.727460146E-1,-6.091589928E-1,6.906700134E-1,1.339527736E0
5.064449040E-1,9.687219858E-1,-7.003049850E-1,3.263179958E-1,1.239085466E0
5.113666660E-1,9.472389817E-1,-7.956719995E-1,-1.494490057E-1,1.246070072E0
5.162885100E-1,9.435369968E-1,-8.633000255E-1,-5.944929719E-1,1.410308793E0
5.212103400E-1,9.679129720E-1,-9.688190222E-1,-1.075366974E0,1.741229436E0
5.261321870E-1,1.004371047E0,-1.093878031E0,-1.486364961E0,2.101097604E0
5.310538040E-1,1.151134968E0,-1.253376007E0,-1.834501982E0,2.502291080E0
5.359756480E-1,1.604480028E0,-1.588927031E0,-1.967829943E0,2.995229533E0
5.408974940E-1,1.543954968E0,-1.598181009E0,-2.343061924E0,3.229228803E0
5.458192660E-1,1.539942980E0,-1.514351010E0,-2.874716043E0,3.595646770E0
5.507411870E-1,1.340286016E0,-1.379680037E0,-3.334517956E0,3.849531609E0
5.556630350E-1,8.752830029E-1,-1.112836003E0,-3.783433914E0,4.039665393E0
5.605848330E-1,4.296610057E-1,-8.167229891E-1,-4.161752224E0,4.262842549E0
5.655066790E-1,5.052100122E-2,-6.341469884E-1,-4.490230083E0,4.535070118E0
5.704285250E-1,-2.293069959E-1,-6.291189790E-1,-4.782204151E0,4.828855862E0
5.753500740E-1,-2.242539972E-1,-8.858960271E-1,-4.941999912E0,5.025780015E0
5.802721490E-1,-1.948900074E-1,-1.126489997E0,-4.954966068E0,5.085140172E0
5.851937660E-1,-1.424649954E-1,-1.231170058E0,-5.056356907E0,5.206036992E0
5.901155910E-1,1.538100000E-2,-1.330147028E0,-5.040978909E0,5.213539685E0
5.950374370E-1,1.813679934E-1,-1.398226023E0,-4.923718929E0,5.121614829E0
5.999592090E-1,3.470880091E-1,-1.429795980E0,-4.716842175E0,4.940990461E0
6.048810720E-1,5.303149819E-1,-1.531723022E0,-4.314192772E0,4.608651502E0
6.098029180E-1,6.758890152E-1,-1.646605968E0,-3.680955887E0,4.088712929E0
6.147247640E-1,7.911130190E-1,-1.712087989E0,-2.915271997E0,3.472163002E0
6.196467160E-1,8.446769714E-1,-1.650236011E0,-2.095541954E0,2.797866001E0
6.245684880E-1,8.365470171E-1,-1.523784041E0,-1.336449981E0,2.192675824E0
6.294903320E-1,8.851389885E-1,-1.343708992E0,-8.384180069E-1,1.814378582E0
6.344121580E-1,8.735179901E-1,-1.120756984E0,-5.051959753E-1,1.508095776E0
6.393337750E-1,7.635459900E-1,-8.965330124E-1,-2.981950045E-1,1.214781537E0
6.442556050E-1,5.406240225E-1,-6.126400232E-1,-1.953209937E-1,8.400907227E-1
6.491774520E-1,1.208499968E-1,-2.351319939E-1,-2.413129956E-1,3.579437639E-1
6.540992980E-1,-2.304749936E-1,6.395999808E-3,-2.974779904E-1,3.763678868E-1
6.590211390E-1,-3.831610084E-1,7.753299922E-2,-2.158890069E-1,4.465778628E-1
6.639429850E-1,-2.752850056E-1,-1.363999955E-2,-1.570589989E-1,3.172308513E-1
6.688647560E-1,-8.230800182E-2,-1.524779946E-1,-1.110680029E-1,2.058160520E-1
6.737866340E-1,5.311900005E-2,-1.927510053E-1,-1.032420024E-1,2.250188643E-1
6.787084810E-1,3.130710125E-1,-1.837269962E-1,-2.522099949E-2,3.638752077E-1
6.836304040E-1,5.055090189E-1,-1.697999984E-2,2.696909904E-1,5.732023368E-1
6.885521790E-1,6.885769963E-1,2.000900060E-1,8.986279964E-1,1.149654977E0
6.934740230E-1,5.474389791E-1,5.888100266E-1,1.574542046E0,1.767927978E0
6.983958690E-1,3.182899952E-1,1.129433036E0,2.194757938E0,2.488752682E0
7.033174590E-1,-1.058300026E-2,1.800184965E0,2.883936882E0,3.399686728E0
7.082393030E-1,-3.485339880E-1,2.414968014E0,3.565234900E0,4.320236838E0
7.131611530E-1,-8.786879778E-1,3.011693954E0,4.111894131E0,5.172046634E0
7.180829990E-1,-1.352506995E0,3.543613911E0,4.519578934E0,5.900260033E0
7.230048450E-1,-1.858751059E0,3.842978954E0,5.037285805E0,6.602854763E0
7.279266320E-1,-2.368082047E0,3.971283913E0,5.468939781E0,7.161578794E0
7.328485530E-1,-2.735745907E0,4.036065102E0,5.863773823E0,7.626137333E0
7.377704010E-1,-3.245201111E0,4.116507053E0,6.247698784E0,8.155409289E0
7.426919590E-1,-3.691294909E0,4.273808002E0,6.939527988E0,8.946962705E0
7.476140340E-1,-4.106954098E0,4.351786137E0,8.132773399E0,1.009688654E1
7.525358820E-1,-4.771940231E0,4.443918228E0,9.487996101E0,1.151268400E1
7.574577430E-1,-4.644897938E0,4.391386032E0,1.118900013E1,1.288615816E1
7.623795890E-1,-4.088461876E0,4.190206051E0,1.310005283E1,1.434868396E1
7.673011130E-1,-3.138056993E0,3.861378908E0,1.479217052E1,1.560659981E1
7.722229570E-1,-2.225699902E0,3.329725027E0,1.611647034E1,1.660666809E1
7.771448040E-1,-1.484483957E0,2.778783083E0,1.717293167E1,1.745952205E1
7.820666880E-1,-8.781679869E-1,2.202966928E0,1.791781616E1,1.807408029E1
7.869886110E-1,-4.309340119E-1,1.666059971E0,1.831455612E1,1.839522835E1
7.919103820E-1,-4.080700129E-2,1.174311996E0,1.836489868E1,1.840245031E1
7.968322310E-1,2.399830073E-1,7.889350057E-1,1.801556969E1,1.803443266E1
8.017538490E-1,3.524779975E-1,6.023799777E-1,1.734974289E1,1.736377496E1
8.066756930E-1,4.569109976E-1,5.967820287E-1,1.636442375E1,1.638167516E1
8.115975440E-1,6.586899757E-1,7.177039981E-1,1.502818108E1,1.505972105E1
8.165196210E-1,8.788599968E-1,8.258439898E-1,1.339387417E1,1.344805854E1
8.214414690E-1,9.651259780E-1,9.060930014E-1,1.157671547E1,1.165215919E1
8.263630640E-1,1.069499969E0,1.024165034E0,9.613147736E0,9.726528342E0
8.312849090E-1,1.148090959E0,1.166427970E0,7.664282799E0,7.837084782E0
8.362067410E-1,1.062644958E0,1.438842058E0,5.857822895E0,6.124832230E0
8.411285120E-1,8.718280196E-1,1.758628011E0,4.371597767E0,4.792047956E0
8.460501220E-1,5.965170264E-1,1.969501972E0,3.167633057E0,3.777389279E0
8.509721970E-1,4.152199924E-1,2.159667969E0,2.234282017E0,3.135058135E0
8.558938150E-1,3.296509981E-1,2.068433046E0,1.837321043E0,2.786186222E0
8.608156690E-1,1.700460017E-1,1.891185999E0,1.506742001E0,2.423999089E0
8.657375150E-1,4.343700036E-2,1.787168980E0,1.167755008E0,2.135301265E0
8.706593610E-1,1.810600050E-2,1.584993005E0,1.018677950E0,1.884206841E0
8.755814470E-1,7.288999856E-2,1.190489054E0,1.140028954E0,1.649922166E0
8.805030650E-1,4.508899897E-2,7.014830112E-1,1.061174989E0,1.272872260E0
8.854249090E-1,-9.920100123E-2,3.755539954E-1,6.182640195E-1,7.301589141E-1
8.903467260E-1,-1.949889958E-1,1.805700064E-1,1.540100016E-2,2.662018529E-1
8.952684970E-1,-3.516519964E-1,-4.086500034E-2,-5.587800145E-1,6.614863411E-1
9.001903220E-1,-5.587769747E-1,-2.935140133E-1,-1.157071948E0,1.318027950E0
9.051121690E-1,-8.105890155E-1,-6.129320264E-1,-1.760648966E0,2.032885880E0
9.100339910E-1,-8.562049866E-1,-9.964759946E-1,-2.357827902E0,2.699148718E0
9.149556080E-1,-4.783540070E-1,-1.650573015E0,-2.659760952E0,3.166629463E0
9.198774520E-1,-2.437710017E-1,-2.255184889E0,-3.332156897E0,4.030949363E0
9.247993070E-1,-1.664160043E-1,-2.717295885E0,-4.418522835E0,5.189868520E0
9.297210790E-1,-1.173259988E-1,-3.155277014E0,-5.423742771E0,6.275868392E0
9.346430000E-1,-1.539999992E-2,-3.619525909E0,-6.223824024E0,7.199804890E0
9.395648440E-1,1.671539992E-1,-4.168305874E0,-6.951849937E0,8.107461494E0
9.444866900E-1,4.480270147E-1,-4.764525890E0,-7.398717880E0,8.811495982E0
9.494085360E-1,4.818870127E-1,-5.397696018E0,-7.674291134E0,9.394790142E0
9.543303470E-1,3.029350042E-1,-5.983867168E0,-7.905746937E0,9.919640645E0
9.592521170E-1,1.770309955E-1,-6.452058792E0,-8.261953354E0,1.048428709E1
9.641739230E-1,1.576550007E-1,-6.837940216E0,-8.649692535E0,1.102721463E1
9.690955400E-1,2.270189971E-1,-7.193449974E0,-9.109120369E0,1.160919179E1
9.740173930E-1,4.036009908E-1,-7.464852810E0,-9.559577942E0,1.213558617E1
9.789392400E-1,5.933550000E-1,-7.709589005E0,-1.003074646E1,1.266513748E1
9.838610860E-1,7.060220242E-1,-8.009579659E0,-1.042104912E1,1.316245031E1
9.887829470E-1,6.730909944E-1,-8.291482925E0,-1.082304096E1,1.365063941E1
9.937047930E-1,6.326429844E-1,-8.493734360E0,-1.118573666E1,1.405931951E1
9.986265640E-1,7.570549846E-1,-8.621902466E0,-1.161124611E1,1.448210518E1
1.003548499E0,3.899750113E-1,-8.579076767E0,-1.204078293E1,1.478962786E1
1.008470348E0,4.327800125E-2,-8.555431366E0,-1.247520256E1,1.512706045E1
1.013392117E0,-8.254399896E-2,-8.715953827E0,-1.243257713E1,1.518366355E1
1.018313961E0,-7.775499672E-2,-8.989967346E0,-1.221378613E1,1.516582112E1
1.023235807E0,-3.127000062E-3,-9.409371376E0,-1.203333378E1,1.527538547E1
1.028157424E0,-1.178229973E-1,-1.008533955E1,-1.198823738E1,1.566670966E1
1.033079269E0,-4.842579961E-1,-1.043575954E1,-1.205251884E1,1.595000920E1
1.038001110E0,-8.632670045E-1,-1.037009430E1,-1.230729866E1,1.611687581E1
1.042922956E0,-3.634760082E-1,-1.021397400E1,-1.194578075E1,1.572129312E1
1.047844802E0,2.923110127E-1,-1.009549522E1,-1.128274727E1,1.514281531E1
1.052766667E0,7.170810103E-1,-9.836750031E0,-1.120959759E1,1.493087186E1
1.057688439E0,1.083495021E0,-9.660256386E0,-1.083588409E1,1.455715972E1
1.062610283E0,1.266301036E0,-9.630092621E0,-1.033705807E1,1.418439183E1
1.067532129E0,1.563155055E0,-1.023748493E1,-9.418236732E0,1.399831185E1
1.072454052E0,1.395828009E0,-1.083687210E1,-9.443147659E0,1.444157784E1
1.077375900E0,1.128958941E0,-1.121027374E1,-9.846731186E0,1.496338534E1
1.082297650E0,9.237459898E-1,-1.131985378E1,-9.835877419E0,1.502454262E1
1.087219495E0,9.987990260E-1,-1.121383953E1,-9.706918716E0,1.486512925E1
1.092141341E0,1.181679964E0,-1.097628403E1,-9.590985298E0,1.462402741E1
1.097063197E0,1.136999965E0,-1.065319061E1,-9.618876457E0,1.439812569E1
1.101985043E0,8.203970194E-1,-1.033169174E1,-9.815669060E0,1.427460208E1
1.106906660E0,4.920459986E-1,-1.016388988E1,-1.012720680E1,1.435643007E1
1.111828442E0,1.981080025E-1,-9.875926971E0,-1.058770561E1,1.448007909E1
1.116750288E0,-1.355800033E-2,-9.462722778E0,-1.125953102E1,1.470783278E1
1.121672211E0,-6.156099960E-2,-9.099103928E0,-1.229578590E1,1.529653010E1
1.126594021E0,-1.335189939E-1,-8.994989395E0,-1.312958336E1,1.591582925E1
1.131515942E0,-4.155339897E-1,-9.048086166E0,-1.347244835E1,1.623414292E1
1.136437790E0,-5.042099953E-1,-9.054281235E0,-1.351585770E1,1.627613731E1
1.141359526E0,-2.379519939E-1,-9.110619545E0,-1.349490166E1,1.628411436E1
1.146281370E0,1.846349984E-1,-9.176322937E0,-1.332280254E1,1.617825888E1
1.151203221E0,3.653930128E-1,-9.176489830E0,-1.323624420E1,1.611023396E1
1.156124838E0,2.414570004E-1,-9.069658279E0,-1.328267860E1,1.608560082E1
1.161046712E0,2.887850106E-1,-9.061239243E0,-1.337266827E1,1.615604252E1
1.165968483E0,4.444940090E-1,-9.157932281E0,-1.339976120E1,1.623634500E1
1.170890404E0,6.870700121E-1,-9.184303284E0,-1.329594898E1,1.617423109E1
1.175812214E0,9.642260075E-1,-9.191941261E0,-1.291217899E1,1.587910206E1
1.180734058E0,1.065958977E0,-9.181752205E0,-1.234398365E1,1.542124426E1
1.185655904E0,1.215332985E0,-9.216640472E0,-1.160311699E1,1.486794605E1
1.190577741E0,1.836629033E0,-9.404537201E0,-1.048620987E1,1.420489787E1
1.195499587E0,2.643830061E0,-9.606389046E0,-8.702093124E0,1.322871772E1
1.200421433E0,3.616997004E0,-9.639528275E0,-6.211105824E0,1.202418431E1
1.205343265E0,4.980340004E0,-9.739222527E0,-3.296401024E0,1.142464449E1
1.210265111E0,6.486649036E0,-9.840963364E0,-7.031149864E-1,1.180743606E1
1.215186705E0,7.894359112E0,-9.760822296E0,1.238962054E0,1.261465753E1
1.220108549E0,9.487777710E0,-9.663052559E0,2.858089924E0,1.384056316E1
1.225030395E0,1.088879871E1,-9.483677864E0,4.455264091E0,1.511143479E1
1.229952166E0,1.236199665E1,-9.301803589E0,5.559529781E0,1.643930907E1
1.234874010E0,1.398536110E1,-9.160300255E0,6.099657059E0,1.779627045E1
1.239795857E0,1.599198246E1,-8.988813400E0,6.543342113E0,1.947710439E1
1.244717703E0,1.844973564E1,-8.787226677E0,7.567458153E0,2.179161584E1
1.249639553E0,2.145104408E1,-8.614582062E0,9.349143028E0,2.493521188E1
1.254561399E0,2.431361008E1,-8.308359146E0,1.120025253E1,2.802902288E1
1.259483245E0,2.654775810E1,-7.830520153E0,1.284891701E1,3.051549073E1
1.264405096E0,2.815773010E1,-7.246192932E0,1.450420570E1,3.249210765E1
1.269326943E0,2.947557449E1,-6.694718838E0,1.642348289E1,3.439999335E1
1.274248790E0,3.063092804E1,-6.326360226E0,1.854484367E1,3.636190057E1
1.279170401E0,3.172081375E1,-6.093702793E0,2.042581940E1,3.821723874E1
1.284092245E0,3.282917404E1,-5.831211090E0,2.191694641E1,3.990125601E1
1.289014092E0,3.357453156E1,-5.391861916E0,2.311456108E1,4.111695852E1
1.293935863E0,3.353427887E1,-4.737059116E0,2.370079041E1,4.133660671E1
1.298857712E0,3.238585663E1,-3.851457119E0,2.341614151E1,4.014963405E1
1.303779329E0,3.051049423E1,-3.184577942E0,2.197029686E1,3.773229040E1
1.308701404E0,2.859280396E1,-2.921339035E0,1.982229233E1,3.491426546E1
1.313623247E0,2.684506607E1,-2.906364918E0,1.740611839E1,3.212596282E1
1.318545094E0,2.544132996E1,-3.126246929E0,1.489351082E1,2.964542721E1
1.323466940E0,2.443863106E1,-3.553112030E0,1.240208817E1,2.763481652E1
1.328388796E0,2.376491737E1,-3.943428040E0,1.010447311E1,2.612321380E1
1.333310642E0,2.322683907E1,-3.932389975E0,7.959130764E0,2.486558880E1
1.338232257E0,2.287657738E1,-3.272005081E0,5.933906078E0,2.385906643E1
1.343154054E0,2.225761986E1,-2.090181112E0,4.371700764E0,2.277898739E1
1.348075900E0,2.095468140E1,-4.897620082E-1,3.633222103E0,2.127296035E1
1.352997712E0,1.885881042E1,1.366492033E0,3.969024897E0,1.932033099E1
1.357919558E0,1.640439796E1,3.158289909E0,4.840838909E0,1.739289479E1
1.362841418E0,1.402046967E1,4.858878136E0,5.880537033E0,1.596129638E1
1.367763265E0,1.188892555E1,6.415589809E0,6.967017174E0,1.520018657E1
1.372684882E0,9.966215134E0,7.690327168E0,8.102004051E0,1.497027206E1
1.377606957E0,8.098410606E0,8.818810463E0,9.302487373E0,1.516218796E1
1.382528574E0,6.406956196E0,9.690752029E0,1.035245800E1,1.556062818E1
1.387450649E0,5.013246059E0,1.032561684E1,1.091110802E1,1.583676979E1
1.392372497E0,3.689096928E0,1.086792469E1,1.111945724E1,1.598009864E1
1.397294344E0,2.407440901E0,1.134965897E1,1.067278004E1,1.576447792E1
1.402216190E0,1.322587967E0,1.154833698E1,9.872668266E0,1.525066899E1
1.407137834E0,4.749369919E-1,1.161592579E1,8.573013306E0,1.444478640E1
1.412059678E0,-4.977369905E-1,1.172989082E1,6.764592171E0,1.354982613E1
1.416981524E0,-1.646325946E0,1.186842155E1,4.860547066E0,1.293038039E1
1.421903371E0,-2.727178097E0,1.186315346E1,3.196943998E0,1.258540271E1
1.426825142E0,-3.566384077E0,1.154716682E1,1.951555014E0,1.224192485E1
1.431746786E0,-4.233146191E0,1.108342361E1,1.125059009E0,1.191753177E1
1.436668861E0,-4.808325768E0,1.052849483E1,6.213539839E-1,1.159117254E1
1.441590723E0,-5.298591137E0,9.888609886E0,2.973079979E-1,1.122265858E1
1.446512569E0,-5.684335232E0,9.344585419E0,3.043000028E-2,1.093772690E1
1.451434416E0,-5.979482174E0,8.912054062E0,-2.152660042E-1,1.073430268E1
1.456356248E0,-6.293878078E0,8.579623222E0,-4.309259951E-1,1.064934426E1
1.461277863E0,-6.711146832E0,8.222684860E0,-5.705999732E-1,1.062909321E1
1.466199707E0,-7.106614113E0,7.742805004E0,-6.205409765E-1,1.052806082E1
1.471121544E0,-7.345996857E0,7.240521908E0,-5.259829760E-1,1.032789840E1
1.476043315E0,-7.338034153E0,6.711857796E0,-2.998999953E-1,9.949156764E0
1.480965164E0,-7.245317936E0,6.258259773E0,9.240999818E-3,9.573950740E0
1.485887010E0,-7.199425220E0,5.889713764E0,3.517830074E-1,9.308286793E0
1.490808628E0,-7.329647064E0,5.698699951E0,6.417329907E-1,9.306488513E0
1.495730716E0,-7.554482937E0,5.566775799E0,8.212689757E-1,9.419856048E0
1.500652334E0,-7.660605907E0,5.362909794E0,1.019337058E0,9.406632360E0
1.505574178E0,-7.604712963E0,5.012316227E0,1.331246972E0,9.204737460E0
1.510496024E0,-7.420166969E0,4.605747223E0,1.662384987E0,8.890180492E0
1.515417870E0,-7.217064857E0,4.192759037E0,1.992472053E0,8.581095407E0
1.520339717E0,-7.067306042E0,3.753700972E0,2.376765966E0,8.347820202E0
1.525261539E0,-6.971673965E0,3.465904951E0,2.966847897E0,8.331801813E0
1.530183385E0,-7.050406933E0,3.202447891E0,3.607037067E0,8.542518763E0
1.535105132E0,-7.222125053E0,2.990125895E0,4.080781937E0,8.817750528E0
1.540026976E0,-7.216311932E0,2.707565069E0,4.451601028E0,8.900720095E0
1.544948822E0,-7.073700905E0,2.489525080E0,4.618258953E0,8.807002633E0
1.549870660E0,-6.976321220E0,2.358333111E0,4.591220856E0,8.678139304E0
1.554792277E0,-7.065446854E0,2.295262098E0,4.523126125E0,8.697553523E0
1.559714371E0,-7.338620186E0,2.206614017E0,4.337697029E0,8.805686070E0
1.564635988E0,-7.678404808E0,2.118303061E0,3.958882093E0,8.894821847E0
1.569557832E0,-7.945776939E0,1.979536057E0,3.533570051E0,8.918522943E0
1.574479574E0,-8.133380890E0,1.847566009E0,3.030554056E0,8.874099545E0
1.579401495E0,-8.157286644E0,1.743914008E0,2.468902111E0,8.699312564E0
1.584323572E0,-8.292784691E0,1.695196986E0,1.876489997E0,8.669785779E0
1.589245160E0,-8.520695686E0,1.759068012E0,1.239209056E0,8.788186066E0
1.594167004E0,-8.508277893E0,1.718739986E0,9.035230279E-1,8.727039229E0
1.599088776E0,-8.547742844E0,1.610978007E0,6.990699768E-1,8.726273930E0
1.604010630E0,-8.651149750E0,1.550632954E0,2.191739976E-1,8.791751349E0
1.608932247E0,-8.730048180E0,1.451650023E0,-3.148320019E-1,8.855515129E0
1.613854293E0,-8.789347649E0,1.364294052E0,-7.491970062E-1,8.926098056E0
1.618775910E0,-8.795610428E0,1.331354022E0,-1.030776978E0,8.955320626E0
1.623697755E0,-8.799139977E0,1.342820048E0,-1.148028970E0,8.974742365E0
1.628619606E0,-8.787922859E0,1.316925049E0,-1.186079025E0,8.964857122E0
1.633541452E0,-8.697279930E0,1.270241022E0,-1.191460967E0,8.869936283E0
1.638463278E0,-8.546357155E0,1.262506962E0,-1.178949952E0,8.719178140E0
1.643385124E0,-8.361467361E0,1.298392057E0,-1.077121973E0,8.529956044E0
1.648306970E0,-8.082709312E0,1.210319042E0,-8.222780228E-1,8.214085656E0
1.653228808E0,-7.664597988E0,1.029855013E0,-4.465770125E-1,7.746360093E0
1.658150655E0,-7.090472221E0,7.505120039E-1,-1.032400038E-2,7.130089142E0
1.663072425E0,-6.472915173E0,4.349420071E-1,4.263600111E-1,6.501506613E0
1.667994269E0,-5.900506020E0,1.932390034E-1,8.202469945E-1,5.960378992E0
1.672916105E0,-5.248744011E0,-9.174499661E-2,1.194959998E0,5.383833229E0
1.677837952E0,-4.239896774E0,-4.271560013E-1,1.550513029E0,4.534675022E0
1.682759559E0,-2.687127113E0,-7.601619959E-1,2.072668076E0,3.477707770E0
1.687681403E0,-5.878819823E-1,-1.238415003E0,2.847337008E0,3.160159012E0
1.692603249E0,2.026959896E0,-1.932325006E0,3.767575979E0,4.694366316E0
1.697525095E0,5.047490120E0,-2.777844906E0,4.518689156E0,7.322030491E0
1.702446867E0,8.217635155E0,-3.514724016E0,4.914991856E0,1.019999791E1
1.707368788E0,1.103961563E1,-4.029757977E0,5.030975819E0,1.278369197E1
1.712290636E0,1.309504890E1,-4.230725765E0,4.860372066E0,1.459460732E1
1.717212482E0,1.449291897E1,-4.208402157E0,4.604082108E0,1.577824201E1
1.722134251E0,1.573187447E1,-4.159989834E0,4.337263107E0,1.684070191E1
1.727056191E0,1.721432114E1,-4.207190037E0,4.111375809E0,1.819166598E1
1.731978040E0,1.915785980E1,-4.408757210E0,4.056603909E0,2.007278674E1
1.736899819E0,2.191616631E1,-4.838159084E0,4.102677822E0,2.281574224E1
1.741821663E0,2.523402786E1,-5.450594902E0,4.137632847E0,2.614546141E1
1.746743280E0,2.864087105E1,-6.284115791E0,4.430386066E0,2.965498148E1
1.751665312E0,3.193376923E1,-7.435030937E0,5.261869907E0,3.320741750E1
1.756587160E0,3.446237183E1,-8.647653580E0,6.607429981E0,3.613993795E1
1.761508776E0,3.515148926E1,-9.327567101E0,8.048900604E0,3.724802687E1
1.766430634E0,3.341141129E1,-9.053111076E0,9.507675171E0,3.589814914E1
1.771352480E0,3.006177521E1,-8.116440773E0,1.083189201E1,3.296842162E1
1.776274326E0,2.700225830E1,-7.480341911E0,1.173876572E1,3.037887570E1
1.781196179E0,2.546132469E1,-7.737397194E0,1.208904743E1,2.922826437E1
1.786118025E0,2.536304092E1,-8.952914238E0,1.189603233E1,2.941010207E1
1.791039810E0,2.563893890E1,-1.062518406E1,1.106687260E1,2.987851056E1
1.795961654E0,2.541314316E1,-1.220784760E1,9.828579903E0,2.985733362E1
1.800883500E0,2.479788589E1,-1.346862793E1,8.117142677E0,2.936370359E1
1.805805085E0,2.367252922E1,-1.412138081E1,6.066436768E0,2.822416856E1
1.810726929E0,2.194239044E1,-1.392437077E1,3.768371105E0,2.625942155E1
1.815649015E0,1.960483170E1,-1.289158154E1,1.350208998E0,2.350245444E1
1.820570632E0,1.670320511E1,-1.122653580E1,-1.156242967E0,2.015859779E1
1.825492476E0,1.375944614E1,-9.367334366E0,-3.641877890E0,1.703914863E1
1.830414313E0,1.082257366E1,-7.676817894E0,-5.565126896E0,1.438861602E1
1.835336160E0,8.038645744E0,-6.233583927E0,-7.166584015E0,1.244336451E1
1.840258006E0,5.514149189E0,-4.869629860E0,-8.183401108E0,1.100396247E1
1.845179837E0,3.341909885E0,-3.547676086E0,-8.749631882E0,1.001550924E1
1.850101608E0,1.452298045E0,-2.232027054E0,-8.559722900E0,8.964372288E0
1.855023452E0,-2.372409999E-1,-1.110625029E0,-7.528382778E0,7.613561486E0
1.859945065E0,-1.840491056E0,-1.378239989E-1,-5.953520775E0,6.233041986E0
1.864866909E0,-3.232558966E0,6.267740130E-1,-3.953202963E0,5.144909795E0
1.869788765E0,-4.401241779E0,1.111783981E0,-2.062805891E0,4.986197044E0
1.874710842E0,-5.854263783E0,1.453973055E0,-3.675740063E-1,6.043306440E0
1.879632459E0,-7.127231121E0,1.557557940E0,7.971060276E-1,7.338854693E0
1.884554304E0,-8.039358139E0,1.412909031E0,1.651491046E0,8.327965772E0
1.889476150E0,-8.859506607E0,9.461759925E-1,1.920374990E0,9.114491013E0
1.894397996E0,-9.647189140E0,2.462639958E-1,1.649441957E0,9.790279007E0
1.899319871E0,-9.873605728E0,-9.660689831E-1,1.304098010E0,1.000610069E1
1.904241717E0,-9.837841034E0,-2.019582987E0,4.828430116E-1,1.005459940E1
1.909163563E0,-9.795244217E0,-2.718238115E0,-8.876000047E-1,1.020409043E1
1.914085330E0,-9.726501465E0,-3.394870043E0,-1.835880995E0,1.046424543E1
1.919006945E0,-9.837317467E0,-4.035162926E0,-2.486593008E0,1.091963825E1
1.923928775E0,-1.008177853E1,-4.642522812E0,-2.954066992E0,1.148572105E1
1.928850621E0,-1.030780602E1,-5.132913113E0,-3.260054111E0,1.196769045E1
1.933772693E0,-1.039764500E1,-5.562848091E0,-3.451018095E0,1.228681514E1
1.938694311E0,-1.023674107E1,-5.933343887E0,-3.488142014E0,1.233541941E1
1.943616078E0,-1.013290596E1,-6.092329979E0,-3.470057964E0,1.232207653E1
1.948538020E0,-1.017959023E1,-6.053769112E0,-3.356502056E0,1.231008869E1
1.953459868E0,-1.024731731E1,-5.881760120E0,-3.214890003E0,1.224492270E1
1.958381695E0,-1.019775867E1,-5.688360214E0,-3.082381010E0,1.207695312E1
1.963303617E0,-1.005772305E1,-5.437973022E0,-3.076973915E0,1.184048614E1
1.968225465E0,-9.936459541E0,-5.087942123E0,-3.095063925E0,1.158446390E1
1.973147301E0,-9.849945068E0,-4.731377125E0,-3.059413910E0,1.134757070E1
1.978069070E0,-9.816558838E0,-4.431995869E0,-2.966152906E0,1.117163721E1
1.982990680E0,-9.654708862E0,-4.324690819E0,-2.860156059E0,1.095887068E1
1.987912524E0,-9.274436951E0,-4.377892971E0,-2.635859013E0,1.058909252E1
1.992834582E0,-8.778399467E0,-4.521554947E0,-2.397627115E0,1.016136665E1
1.997756199E0,-8.333254814E0,-4.693055153E0,-2.203537941E0,9.814452706E0
2.002678043E0,-7.911618233E0,-4.863856792E0,-2.047034025E0,9.510055429E0
2.007599913E0,-7.613520145E0,-5.004708767E0,-2.033355951E0,9.335273712E0
2.012521760E0,-7.384142876E0,-5.153332233E0,-2.092621088E0,9.244536880E0
2.017443615E0,-7.153162956E0,-5.322068214E0,-2.247476101E0,9.194743019E0
2.022365386E0,-6.875197887E0,-5.487486839E0,-2.424709082E0,9.124695717E0
2.027287307E0,-6.543031216E0,-5.625228882E0,-2.567071915E0,9.002461645E0
2.032209170E0,-6.361877918E0,-5.666018009E0,-2.585649014E0,8.902967570E0
2.037130939E0,-6.471898079E0,-5.501924038E0,-2.474061012E0,8.847463521E0
2.042052784E0,-6.652316093E0,-5.252208233E0,-2.219511986E0,8.761577152E0
2.046974644E0,-6.824727058E0,-4.951486111E0,-1.979809999E0,8.661048537E0
2.051896261E0,-6.942039967E0,-4.679621220E0,-1.939051986E0,8.593642782E0
2.056818115E0,-7.092644215E0,-4.390011787E0,-2.014863014E0,8.581228258E0
2.061739961E0,-7.275843143E0,-4.131761074E0,-2.142690897E0,8.637156205E0
2.066661808E0,-7.444143772E0,-3.921948910E0,-2.340483904E0,8.733545938E0
2.071583875E0,-7.583313942E0,-3.738149881E0,-2.601555109E0,8.845818439E0
2.076505492E0,-7.691316128E0,-3.601520061E0,-2.947103977E0,8.989589111E0
2.081427259E0,-7.719610214E0,-3.509895086E0,-3.337862015E0,9.113345610E0
2.086349196E0,-7.738887787E0,-3.451006889E0,-3.782067060E0,9.279216776E0
2.091271044E0,-7.727140903E0,-3.475466967E0,-4.285721779E0,9.494998070E0
2.096192891E0,-7.695940018E0,-3.525631905E0,-4.739922047E0,9.701774791E0
2.101114641E0,-7.736993790E0,-3.633977890E0,-5.065116882E0,9.935908476E0
2.106036256E0,-7.843699932E0,-3.609926939E0,-5.365677834E0,1.016590870E1
2.110958076E0,-8.031744957E0,-3.544799089E0,-5.513076782E0,1.036670359E1
2.115879923E0,-8.133236885E0,-3.500130892E0,-5.565779209E0,1.045841081E1
2.120801774E0,-8.097053528E0,-3.480276108E0,-5.489183903E0,1.038295418E1
2.125723620E0,-8.032662392E0,-3.410286903E0,-5.324374199E0,1.022265535E1
2.130645480E0,-7.981029987E0,-3.239473104E0,-5.138794899E0,1.002986733E1
2.135567326E0,-7.926818848E0,-3.077433109E0,-4.822215080E0,9.775418654E0
2.140489098E0,-7.837100983E0,-2.955801010E0,-4.481327057E0,9.499431752E0
2.145410937E0,-7.647466183E0,-2.850708961E0,-4.028384209E0,9.101547117E0
2.150332860E0,-7.349017143E0,-2.772061110E0,-3.400410891E0,8.558923413E0
2.155254708E0,-6.961143017E0,-2.651655912E0,-2.638772011E0,7.902652017E0
2.160176550E0,-6.411236763E0,-2.479559898E0,-1.730499029E0,7.088497796E0
2.165098396E0,-5.630366802E0,-2.313132048E0,-6.149619818E-1,6.117988921E0
2.170020166E0,-4.858414173E0,-2.132671118E0,4.993979931E-1,5.329340741E0
2.174941790E0,-4.285771847E0,-1.873659015E0,1.471760988E0,4.903521065E0
2.179863634E0,-3.833771944E0,-1.640905976E0,2.322509050E0,4.773303681E0
2.184785480E0,-3.105984926E0,-1.564692020E0,3.030407906E0,4.612892320E0
2.189707251E0,-1.938263059E0,-1.567386985E0,3.627918005E0,4.401744506E0
2.194629173E0,-6.363769770E-1,-1.542619944E0,3.939668894E0,4.278509430E0
2.199550963E0,6.873739958E-1,-1.549582005E0,3.999311924E0,4.343752210E0
2.204472807E0,2.421516895E0,-1.681128979E0,3.898659945E0,4.887687396E0
2.209394653E0,4.656501770E0,-1.913789988E0,3.961427927E0,6.406130819E0
2.214316591E0,7.068099022E0,-2.113454103E0,4.226367950E0,8.502170198E0
2.219238439E0,9.563735962E0,-2.162370920E0,4.998256207E0,1.100561033E1
2.224160286E0,1.210601425E1,-2.076652050E0,6.293717861E0,1.380141113E1
2.229082031E0,1.462961578E1,-1.970795035E0,7.816751003E0,1.670363096E1
2.234003875E0,1.683733368E1,-1.636456966E0,9.479478836E0,1.939160426E1
2.238925468E0,1.853336906E1,-1.211035967E0,1.105738831E1,2.161523105E1
2.243847313E0,1.981034470E1,-7.538750172E-1,1.210034561E1,2.322577121E1
2.248769144E0,2.097235107E1,-4.666570127E-1,1.256781769E1,2.445418818E1
2.253690915E0,2.263867569E1,-7.501310110E-1,1.232281685E1,2.578612318E1
2.258612759E0,2.533007050E1,-1.898686051E0,1.144405556E1,2.786007695E1
2.263534610E0,2.863995361E1,-3.700160980E0,1.046511078E1,3.071573990E1
2.268456456E0,3.146086693E1,-5.328125000E0,9.651595116E0,3.333659179E1
2.273378303E0,3.278264618E1,-6.097551823E0,9.360170364E0,3.463372371E1
2.278300240E0,3.215222168E1,-5.814487934E0,9.621493340E0,3.406092722E1
2.283222088E0,3.016611481E1,-5.044757843E0,1.045809937E1,3.232361221E1
2.288143857E0,2.798046684E1,-4.672126770E0,1.194010162E1,3.077826051E1
2.293065692E0,2.675403404E1,-5.107913017E0,1.357232189E1,3.043151384E1
2.297987310E0,2.677476883E1,-6.217045784E0,1.486852837E1,3.125080863E1
2.302909154E0,2.741394234E1,-7.577480793E0,1.532102776E1,3.230597996E1
2.307831000E0,2.771433258E1,-8.656452179E0,1.482946014E1,3.260262693E1
2.312752860E0,2.746891975E1,-9.317377090E0,1.342580605E1,3.196259277E1
2.317674706E0,2.668576813E1,-9.425219536E0,1.142676926E1,3.052107533E1
2.322596502E0,2.535334206E1,-8.894742966E0,9.239294052E0,2.841254935E1
2.327518346E0,2.335539246E1,-7.897102833E0,7.215391159E0,2.568852778E1
2.332440269E0,2.068404579E1,-6.384533882E0,5.462348938E0,2.232552976E1
2.337362045E0,1.765014267E1,-4.605405807E0,4.038082123E0,1.868270339E1
2.342283966E0,1.482465363E1,-2.962738991E0,2.755085945E0,1.536680435E1
2.347205737E0,1.248109055E1,-1.478966951E0,1.584388018E0,1.266788261E1
2.352127582E0,1.037841797E1,-1.909109950E-1,4.587930143E-1,1.039030787E1
2.357049428E0,8.126500130E0,1.087787986E0,-5.187270045E-1,8.215373684E0
2.361971264E0,5.744447231E0,2.314076900E0,-1.214396000E0,6.310973264E0
2.366892881E0,3.320703983E0,3.273143053E0,-1.703372955E0,4.964072906E0
2.371814715E0,1.149464965E0,3.736685038E0,-1.941941977E0,4.365228908E0
2.376736562E0,-6.621950269E-1,3.673619986E0,-2.083314896E0,4.274831810E0
2.381658639E0,-2.314251900E0,3.240397930E0,-2.266495943E0,4.581805808E0
2.386580252E0,-3.839457989E0,2.586618900E0,-2.546581030E0,5.283664441E0
2.391502096E0,-5.136992931E0,1.716130018E0,-2.918502092E0,6.152353459E0
2.396423867E0,-6.290860176E0,6.567959785E-1,-3.438837051E0,7.199437685E0
2.401345807E0,-7.529097080E0,-4.486739933E-1,-4.127636909E0,8.598022892E0
2.406267579E0,-8.585000992E0,-1.646523952E0,-4.991958141E0,1.006642584E1
2.411189500E0,-9.156852722E0,-2.939889908E0,-6.006526947E0,1.133883902E1
2.416111271E0,-9.329216003E0,-4.305171013E0,-7.001949787E0,1.243366678E1
2.421033115E0,-9.289908409E0,-5.649250984E0,-7.983528137E0,1.348900131E1
2.425954747E0,-9.137557983E0,-6.839041233E0,-8.901557922E0,1.447429391E1
2.430876591E0,-9.021359444E0,-7.779719830E0,-9.741243362E0,1.538833289E1
2.435798476E0,-8.883472443E0,-8.406862259E0,-1.040189362E1,1.605586517E1
2.440720322E0,-8.718574524E0,-8.813572884E0,-1.087204647E1,1.648920869E1
2.445642093E0,-8.514657974E0,-9.082229614E0,-1.109057426E1,1.667294613E1
2.450564014E0,-8.392498016E0,-9.176833153E0,-1.091182995E1,1.654437435E1
2.455485786E0,-8.422212601E0,-9.124309540E0,-1.045275021E1,1.623104053E1
2.460407630E0,-8.522349358E0,-8.845260620E0,-9.781938553E0,1.570208253E1
2.465329476E0,-8.536878586E0,-8.430706978E0,-8.951158524E0,1.496924698E1
2.470251399E0,-8.430135727E0,-7.944534779E0,-8.049410820E0,1.410587948E1
2.475173247E0,-8.148051262E0,-7.459337234E0,-7.017600060E0,1.308736650E1
2.480095092E0,-7.774920940E0,-7.094987869E0,-5.896876812E0,1.206488312E1
2.485016862E0,-7.491394997E0,-6.724084854E0,-4.790475845E0,1.114822744E1
2.489938477E0,-7.247209072E0,-6.396131992E0,-3.689851999E0,1.034637867E1
2.494860302E0,-6.926259995E0,-6.156980991E0,-2.605436087E0,9.626514927E0
2.499782148E0,-6.635513783E0,-5.927443981E0,-1.530217052E0,9.028078396E0
2.504703986E0,-6.335418224E0,-5.871411800E0,-6.504909992E-1,8.662224838E0
2.509625832E0,-6.081958771E0,-5.960935116E0,-1.363500021E-2,8.516052833E0
2.514547603E0,-5.761346817E0,-6.082141876E0,3.186329901E-1,8.383739853E0
2.519469461E0,-5.466368198E0,-6.204636097E0,2.708100080E-1,8.273574103E0
2.524391307E0,-5.127304077E0,-6.303897858E0,-8.431699872E-2,8.126222041E0
2.529313153E0,-4.793234825E0,-6.444911957E0,-5.170029998E-1,8.048557779E0
2.534235063E0,-4.518651962E0,-6.575466156E0,-1.062783957E0,8.048880696E0
2.539156911E0,-4.333740234E0,-6.724304199E0,-1.656909943E0,8.169634138E0
2.544078680E0,-4.275487900E0,-6.865334034E0,-2.208621979E0,8.383950097E0
2.549000514E0,-4.335313797E0,-6.876289845E0,-2.708678007E0,8.568269621E0
2.553922132E0,-4.463697910E0,-6.764431000E0,-3.231621027E0,8.724992851E0
2.558843966E0,-4.642233849E0,-6.552763939E0,-3.655083895E0,8.823190388E0
2.563765812E0,-4.900059223E0,-6.245837212E0,-3.922375917E0,8.854721661E0
2.568687658E0,-5.194748878E0,-5.885384083E0,-4.031231880E0,8.824624195E0
2.573609429E0,-5.515913963E0,-5.589948177E0,-4.001787186E0,8.814030188E0
2.578531350E0,-5.751292229E0,-5.419744968E0,-3.922346115E0,8.822459797E0
2.583453127E0,-5.921136856E0,-5.326995850E0,-3.775474072E0,8.814247042E0
2.588375048E0,-6.046442986E0,-5.259415150E0,-3.635399103E0,8.799832222E0
2.593296819E0,-6.194139004E0,-5.206785202E0,-3.606686115E0,8.859241213E0
2.598218755E0,-6.345964909E0,-5.111067772E0,-3.627739906E0,8.919348699E0
2.603140526E0,-6.431241035E0,-5.121391773E0,-3.779408932E0,9.048394710E0
2.608062370E0,-6.448760986E0,-5.241512775E0,-3.949511051E0,9.201011465E0
2.612984213E0,-6.400396824E0,-5.348455906E0,-4.129790783E0,9.307321419E0
2.617905830E0,-6.389082909E0,-5.486177921E0,-4.318802834E0,9.464173842E0
2.622827664E0,-6.327364922E0,-5.639605999E0,-4.509188175E0,9.600702093E0
2.627749510E0,-6.239940166E0,-5.745644093E0,-4.696503162E0,9.695690861E0
2.632671356E0,-6.198931217E0,-5.774443150E0,-4.915896893E0,9.794742681E0
2.637593128E0,-6.153282166E0,-5.759301186E0,-5.135221004E0,9.869292088E0
2.642515039E0,-6.103100777E0,-5.694860935E0,-5.341324806E0,9.910046965E0
2.647436810E0,-6.097580910E0,-5.556869030E0,-5.452287197E0,9.888716906E0
2.652358654E0,-6.084122181E0,-5.389201164E0,-5.457739830E0,9.790145860E0
2.657280519E0,-6.116409779E0,-5.197793007E0,-5.332073212E0,9.636312856E0
2.662202442E0,-6.099930763E0,-4.991686821E0,-5.061071873E0,9.366992107E0
2.667124214E0,-5.975475788E0,-4.812002182E0,-4.650093079E0,8.971345581E0
2.672046121E0,-5.777169228E0,-4.665552139E0,-4.109110832E0,8.486922462E0
2.676967892E0,-5.511373043E0,-4.531794071E0,-3.444643974E0,7.923254535E0
2.681889507E0,-5.295176983E0,-4.369402885E0,-2.741437912E0,7.392297524E0
2.686811318E0,-4.994338989E0,-4.149725914E0,-2.076081038E0,6.817166536E0
2.691733164E0,-4.520534992E0,-3.986383915E0,-1.371531963E0,6.181229106E0
2.696655241E0,-3.916548967E0,-3.698381901E0,-5.766549706E-1,5.417556225E0
2.701576902E0,-3.193862915E0,-3.414032936E0,1.237720028E-1,4.676719012E0
2.706498746E0,-2.236660004E0,-3.191068888E0,5.268099904E-1,3.932314507E0
2.711420513E0,-1.196208954E0,-3.008634090E0,5.390359759E-1,3.282278893E0
2.716342357E0,-1.874250025E-1,-2.808412075E0,3.121899962E-1,2.831919686E0
2.721264280E0,9.886630177E-1,-2.649712086E0,1.825409979E-1,2.834034212E0
2.726186128E0,2.657913923E0,-2.553340912E0,1.929419935E-1,3.690702216E0
2.731107974E0,4.803571224E0,-2.539164066E0,5.402629972E-1,5.460177174E0
2.736029820E0,7.266209126E0,-2.671423912E0,1.423571944E0,7.871521953E0
2.740951604E0,9.869853973E0,-2.814069986E0,2.607703924E0,1.058929304E1
2.745873219E0,1.252657318E1,-3.010185957E0,3.972481012E0,1.348172320E1
2.750795222E0,1.528270054E1,-3.137599945E0,5.586582184E0,1.657152285E1
2.755716839E0,1.809539413E1,-2.997922897E0,7.101490974E0,1.966880791E1
2.760638693E0,2.090662766E1,-2.476648092E0,8.512902260E0,2.270881702E1
2.765560540E0,2.352400970E1,-1.483067036E0,9.878541946E0,2.555707556E1
2.770482386E0,2.552402115E1,-2.456160039E-1,1.101581669E1,2.780079496E1
2.775404157E0,2.715261078E1,7.567750216E-1,1.176883698E1,2.960308268E1
2.780326001E0,2.895337105E1,9.029979706E-1,1.224777412E1,3.145029525E1
2.785247847E0,3.164385223E1,-2.482679933E-1,1.277156353E1,3.412488617E1
2.790169774E0,3.505110168E1,-2.064260006E0,1.324290371E1,3.752619615E1
2.795091623E0,3.760974884E1,-3.261892080E0,1.371924210E1,4.016653771E1
2.800013469E0,3.812861252E1,-3.389193058E0,1.429933739E1,4.086255954E1
2.804935228E0,3.631631088E1,-2.664431095E0,1.466423988E1,3.925574557E1
2.809856843E0,3.298787308E1,-1.990661979E0,1.505423546E1,3.631518292E1
2.814778683E0,2.999609375E1,-2.242558956E0,1.549532223E1,3.383636685E1
2.819700529E0,2.842280960E1,-3.465846062E0,1.559661674E1,3.260556162E1
2.824622365E0,2.821455002E1,-5.232686043E0,1.517299366E1,3.246015361E1
2.829544136E0,2.847245407E1,-6.789690018E0,1.392129707E1,3.241269880E1
2.834465980E0,2.847575951E1,-7.769334793E0,1.230873775E1,3.198025121E1
2.839387817E0,2.803802109E1,-7.953319073E0,1.045801353E1,3.096378462E1
2.844309664E0,2.692115021E1,-7.265622139E0,8.411848068E0,2.912553487E1
2.849231510E0,2.497553825E1,-5.734898090E0,6.438131809E0,2.642188692E1
2.854153428E0,2.207537842E1,-3.698378086E0,5.042008877E0,2.294389213E1
2.859075276E0,1.847550964E1,-1.526610970E0,4.371862888E0,1.904699931E1
2.863997045E0,1.479353905E1,4.872409999E-1,4.257493973E0,1.540170303E1
2.868918884E0,1.154458427E1,2.285922050E0,4.480313778E0,1.259269936E1
2.873840502E0,8.538216591E0,3.741482973E0,5.026786804E0,1.059095949E1
2.878762351E0,5.766800880E0,4.832158089E0,5.575610161E0,9.364463298E0
2.883684197E0,3.267101049E0,5.439344883E0,5.770523071E0,8.576675261E0
2.888606062E0,1.065284967E0,5.533854008E0,5.561057091E0,7.917305615E0
2.893527908E0,-8.015940189E-1,5.093884945E0,4.986576080E0,7.173294767E0
2.898449680E0,-2.476618052E0,4.212201118E0,3.961436987E0,6.290410021E0
2.903371601E0,-4.044627190E0,3.043047905E0,2.666289091E0,5.720860702E0
2.908293372E0,-5.460680008E0,1.738939047E0,1.206168056E0,5.856430358E0
2.913215245E0,-6.737895966E0,2.988409996E-1,-2.815060019E-1,6.750392108E0
2.918137168E0,-7.865132809E0,-1.182816029E0,-1.839125037E0,8.163439763E0
2.923059016E0,-8.572102547E0,-2.537559032E0,-3.416409969E0,9.570371205E0
2.927980863E0,-8.966817856E0,-3.984472036E0,-4.654951096E0,1.086040559E1
2.932902709E0,-9.098349571E0,-5.488773823E0,-5.674479961E0,1.204600871E1
2.937824222E0,-8.986891747E0,-6.929583073E0,-6.602251053E0,1.312909227E1
2.942746066E0,-8.809271812E0,-8.150574684E0,-7.281752110E0,1.403777231E1
2.947667913E0,-8.684946060E0,-9.200775146E0,-7.632221222E0,1.477610748E1
2.952590067E0,-8.546277046E0,-9.952877045E0,-7.897802830E0,1.531254069E1
2.957511684E0,-8.458080292E0,-1.044817924E1,-8.155974388E0,1.572334220E1
2.962433538E0,-8.485952377E0,-1.054958439E1,-8.378297806E0,1.592171450E1
2.967355309E0,-8.602050781E0,-1.034389019E1,-8.444614410E0,1.588404402E1
2.972277168E0,-8.702489853E0,-1.002588177E1,-8.175341606E0,1.559127465E1
2.977199014E0,-8.683945656E0,-9.733558655E0,-7.524944782E0,1.505914573E1
2.982120937E0,-8.420469284E0,-9.467975616E0,-6.677169800E0,1.432241117E1
2.987042785E0,-8.119696617E0,-9.067210197E0,-5.761601925E0,1.346624783E1
2.991964631E0,-7.829222202E0,-8.569323540E0,-4.739864826E0,1.253779665E1
2.996886400E0,-7.461017132E0,-8.143306732E0,-3.785290956E0,1.167512950E1
3.001808270E0,-6.983057976E0,-7.864070892E0,-2.983831882E0,1.093206121E1
3.006729887E0,-6.584261894E0,-7.649175167E0,-2.470007896E0,1.039054014E1
3.011651953E0,-6.253255844E0,-7.442994118E0,-2.092643023E0,9.943868709E0
3.016573801E0,-5.877093792E0,-7.371369839E0,-1.775426984E0,9.593198930E0
3.021495647E0,-5.397624016E0,-7.318089008E0,-1.702950001E0,9.251422077E0
3.026417287E0,-5.004714966E0,-7.299512863E0,-1.932731986E0,9.059001758E0
3.031339054E0,-4.602285862E0,-7.310610771E0,-2.393281937E0,8.964031651E0
3.036260977E0,-4.215372086E0,-7.420654774E0,-2.975192070E0,9.038099742E0
3.041182825E0,-3.907721996E0,-7.540000916E0,-3.528354883E0,9.196259739E0
3.046104671E0,-3.649261951E0,-7.608150005E0,-3.999902010E0,9.338108769E0
3.051026517E0,-3.395596027E0,-7.696691990E0,-4.392914772E0,9.490355113E0
3.055948363E0,-3.132884979E0,-7.802746773E0,-4.684852123E0,9.625261810E0
3.060870209E0,-2.888062954E0,-7.819341183E0,-4.857492924E0,9.647706549E0
3.065791974E0,-2.764502048E0,-7.777437210E0,-4.981845856E0,9.641047104E0
3.070713589E0,-2.637799978E0,-7.664578915E0,-5.129967213E0,9.592722360E0
3.075635410E0,-2.614703894E0,-7.415853977E0,-5.288358212E0,9.476196454E0
3.080557256E0,-2.794114113E0,-7.032695770E0,-5.453473091E0,9.327714202E0
3.085479116E0,-3.034543991E0,-6.668260098E0,-5.559189796E0,9.196670112E0
3.090400887E0,-3.335021973E0,-6.302905083E0,-5.569939137E0,9.048381404E0
3.095322760E0,-3.629831076E0,-5.995686054E0,-5.464021206E0,8.887038463E0
3.100244531E0,-3.882658005E0,-5.766849995E0,-5.269688129E0,8.723600462E0
3.105166376E0,-4.044432163E0,-5.609829903E0,-4.976843834E0,8.520363702E0
3.110088294E0,-4.149747849E0,-5.533646107E0,-4.637001991E0,8.327270496E0
3.115010142E0,-4.258529186E0,-5.493371010E0,-4.400682926E0,8.226676492E0
3.119931988E0,-4.375131130E0,-5.509524822E0,-4.350516796E0,8.271857867E0
3.124853853E0,-4.530774117E0,-5.510472775E0,-4.451445103E0,8.408839860E0
3.129775622E0,-4.659943104E0,-5.524028778E0,-4.594430923E0,8.563805181E0
3.134697463E0,-4.776105881E0,-5.531707764E0,-4.787829876E0,8.736949873E0
3.139619080E0,-4.920421124E0,-5.525989056E0,-4.987047195E0,8.922877272E0
3.144540904E0,-5.066534996E0,-5.553822994E0,-5.223823071E0,9.154400810E0
3.149462750E0,-5.210809231E0,-5.606681824E0,-5.437123775E0,9.388808703E0
3.154384596E0,-5.369988918E0,-5.668778896E0,-5.629323006E0,9.626064235E0
3.159306438E0,-5.559865952E0,-5.707344055E0,-5.815632820E0,9.864454910E0
3.164228284E0,-5.764597893E0,-5.714997768E0,-5.930988789E0,1.005327889E1
3.169150060E0,-5.863432884E0,-5.666231155E0,-6.061907768E0,1.016035169E1
3.174071981E0,-5.890804768E0,-5.596654892E0,-6.152641773E0,1.019211105E1
3.178993829E0,-5.875051022E0,-5.499184132E0,-6.167582989E0,1.013885253E1
3.183915670E0,-5.816961765E0,-5.440368176E0,-6.135248184E0,1.005365209E1
3.188837517E0,-5.704827785E0,-5.362349033E0,-6.024880886E0,9.879222485E0
3.193759026E0,-5.521021843E0,-5.263979912E0,-5.901271820E0,9.644489401E0
3.198680870E0,-5.278593063E0,-5.110767841E0,-5.784132957E0,9.350919031E0
3.203602937E0,-5.188667774E0,-4.856595039E0,-5.664400101E0,9.088136066E0
3.208524555E0,-5.241076946E0,-4.565615177E0,-5.340575218E0,8.765584588E0
3.213446399E0,-5.277340889E0,-4.273292065E0,-4.932345867E0,8.392817625E0
3.218368255E0,-5.197796822E0,-3.997704983E0,-4.681948185E0,8.057256092E0
3.223290101E0,-4.878800869E0,-3.891757011E0,-4.277779102E0,7.566231863E0
3.228211976E0,-4.235877991E0,-3.809737921E0,-3.857647896E0,6.880277078E0
3.233133822E0,-3.517321110E0,-3.671502113E0,-3.456418991E0,6.148032840E0
3.238055669E0,-2.831866026E0,-3.502760887E0,-3.026009083E0,5.426373558E0
3.242977514E0,-2.104475975E0,-3.491056919E0,-2.479485035E0,4.771178427E0
3.247899360E0,-1.205724955E0,-3.606226921E0,-1.862543941E0,4.234113272E0
3.252821206E0,-4.016099870E-2,-3.878113031E0,-1.107851982E0,4.033448847E0
3.257742973E0,1.545459986E0,-4.124186039E0,-4.089980125E-1,4.423193012E0
3.262664818E0,3.653924942E0,-4.301613808E0,3.140199929E-2,5.644115070E0
3.267586463E0,6.047317028E0,-4.314002037E0,4.619739950E-1,7.442719717E0
3.272508307E0,8.402821541E0,-4.085163116E0,1.008769989E0,9.397530762E0
3.277430153E0,1.065676022E1,-3.723016024E0,1.395982981E0,1.137436394E1
3.282352004E0,1.330470753E1,-3.552457094E0,1.992359042E0,1.391419018E1
3.287273851E0,1.675084305E1,-3.709086895E0,3.101043940E0,1.743457891E1
3.292195697E0,2.069712067E1,-3.958194971E0,5.071665764E0,2.167394530E1
3.297117582E0,2.465911484E1,-3.937752008E0,7.677732944E0,2.612518744E1
3.302039428E0,2.798367882E1,-3.398344040E0,1.044922638E1,3.006362178E1
3.306961254E0,3.061316681E1,-2.620564938E0,1.284343243E1,3.330145791E1
3.311883100E0,3.346519089E1,-2.352890015E0,1.434705544E1,3.648688932E1
3.316804872E0,3.713562393E1,-2.898704052E0,1.543985653E1,4.032178344E1
3.321726449E0,4.047347260E1,-3.459429979E0,1.680364609E1,4.395943768E1
3.326648601E0,4.161856079E1,-3.057060957E0,1.821892548E1,4.553437679E1
3.331570352E0,4.022514343E1,-1.739501953E0,1.929042053E1,4.464536208E1
3.336491968E0,3.688600159E1,-5.296210051E-1,2.023923492E1,4.207712255E1
3.341413812E0,3.266452789E1,-1.774259955E-1,2.135247040E1,3.902474669E1
3.346335909E0,2.985411835E1,-1.385609031E0,2.236519241E1,3.732814121E1
3.351257757E0,2.964715195E1,-3.927474976E0,2.229179001E1,3.730016863E1
3.356179603E0,3.078273010E1,-6.719878197E0,2.097277641E1,3.784957841E1
3.361101232E0,3.155981064E1,-8.844734192E0,1.838884163E1,3.758191675E1
3.366023077E0,3.061772728E1,-9.696714401E0,1.506914806E1,3.547605837E1
3.370944923E0,2.834245491E1,-9.154761314E0,1.136392021E1,3.187856784E1
3.375866745E0,2.565411758E1,-7.381137848E0,7.657443047E0,2.777141298E1
3.380788591E0,2.237076569E1,-5.083227158E0,4.873132229E0,2.345288412E1
3.385710352E0,1.836382675E1,-3.126804113E0,3.379403114E0,1.893217902E1
3.390632196E0,1.392784882E1,-1.851026058E0,2.598855019E0,1.428864296E1
3.395554043E0,9.548788071E0,-9.122310281E-1,2.272437096E0,9.857762901E0
3.400475709E0,5.797283173E0,3.423999995E-3,2.425247908E0,6.284133299E0
3.405397553E0,2.890892029E0,8.233010173E-1,2.741252899E0,4.068113659E0
3.410319399E0,4.284540117E-1,1.473404050E0,2.827725887E0,3.217223341E0
3.415241265E0,-1.854094028E0,1.875645041E0,2.516246080E0,3.645161632E0
3.420163112E0,-4.198451996E0,2.060173035E0,1.661936998E0,4.963199238E0
3.425084958E0,-6.382970810E0,1.978034019E0,3.558740020E-1,6.691904157E0
3.430006775E0,-8.321520805E0,1.640810966E0,-9.697809815E-1,8.537004410E0
3.434928621E0,-9.854958534E0,1.104352951E0,-2.160804987E0,1.014932911E1
3.439850467E0,-1.106809425E1,5.035409927E-1,-2.977319956E0,1.147260642E1
3.444772279E0,-1.195207024E1,-2.039169967E-1,-3.424331903E0,1.243461355E1
3.449694051E0,-1.241888046E1,-1.048351049E0,-3.672456980E0,1.299286620E1
3.454615890E0,-1.240713501E1,-2.088412046E0,-3.844495058E0,1.315593426E1
3.459537736E0,-1.208536625E1,-3.248580933E0,-3.799922943E0,1.307856146E1
3.464459669E0,-1.161726093E1,-4.429111958E0,-3.650733948E0,1.295784097E1
3.469381440E0,-1.112181282E1,-5.474943161E0,-3.502893925E0,1.288176963E1
3.474303285E0,-1.057818222E1,-6.270238876E0,-3.346626997E0,1.274416521E1
3.479225135E0,-1.008105278E1,-6.834497929E0,-3.129123926E0,1.257495144E1
3.484146981E0,-9.464595795E0,-7.261088848E0,-2.935451984E0,1.228490387E1
3.489068598E0,-9.018589020E0,-7.472855091E0,-2.717761040E0,1.202350765E1
3.493990669E0,-8.817363739E0,-7.410189152E0,-2.585468054E0,1.180429802E1
3.498912517E0,-8.704042435E0,-7.140668869E0,-2.600732088E0,1.155479615E1
3.503834364E0,-8.523515701E0,-6.772286892E0,-2.657114983E0,1.120600061E1
3.508755863E0,-8.304809570E0,-6.361823082E0,-2.656908989E0,1.079360090E1
3.513677707E0,-8.102409363E0,-5.929813862E0,-2.626653910E0,1.037839297E1
3.518599553E0,-7.965540886E0,-5.535377979E0,-2.474446058E0,1.001065104E1
3.523521476E0,-7.882956028E0,-5.118290901E0,-2.234710932E0,9.660840048E0
3.528443263E0,-7.887316227E0,-4.760621071E0,-1.954774976E0,9.417771257E0
3.533365107E0,-7.892380238E0,-4.378911972E0,-1.689041972E0,9.182450580E0
3.538286953E0,-7.890429020E0,-4.072347164E0,-1.463374972E0,8.999130394E0
3.543208832E0,-7.756731033E0,-3.915604115E0,-1.275264025E0,8.782091450E0
3.548130450E0,-7.479403019E0,-3.884620905E0,-1.120043039E0,8.502131821E0
3.553052294E0,-7.130496979E0,-3.938292027E0,-9.597259760E-1,8.202146378E0
3.557974371E0,-6.729664803E0,-4.121277809E0,-8.089150190E-1,7.932695799E0
3.562896219E0,-6.253370762E0,-4.341813087E0,-6.608610153E-1,7.641513204E0
3.567818065E0,-5.828841209E0,-4.568117142E0,-4.609070122E-1,7.419940656E0
3.572739651E0,-5.539632797E0,-4.721231937E0,-2.183630019E-1,7.281843512E0
3.577661496E0,-5.314044952E0,-4.874372959E0,3.931799904E-2,7.211111662E0
3.582583342E0,-5.158185959E0,-4.936087132E0,2.244900018E-1,7.142984972E0
3.587505080E0,-5.167963982E0,-4.769332886E0,2.785690129E-1,7.037896602E0
3.592426924E0,-5.223278046E0,-4.552347183E0,2.718710005E-1,6.934004057E0
3.597348770E0,-5.299197197E0,-4.286810875E0,3.110199869E-1,6.823120389E0
3.602270635E0,-5.508926868E0,-3.947200060E0,3.423399925E-1,6.785710002E0
3.607192253E0,-5.826436996E0,-3.561165094E0,4.257149994E-1,6.841819799E0
3.612114068E0,-6.124659061E0,-3.234287977E0,5.948119760E-1,6.951680993E0
3.617035914E0,-6.368280888E0,-2.951414108E0,7.657809854E-1,7.060613799E0
3.621957991E0,-6.605525970E0,-2.704511881E0,9.897890091E-1,7.206041919E0
3.626879824E0,-6.863203049E0,-2.506956100E0,1.199285984E0,7.404503484E0
3.631801670E0,-7.086823940E0,-2.326807976E0,1.319170952E0,7.574781906E0
3.636723286E0,-7.333992004E0,-2.180334091E0,1.399610996E0,7.778187862E0
3.641645140E0,-7.523859978E0,-2.049813032E0,1.403668046E0,7.923413811E0
3.646566986E0,-7.625457764E0,-2.124077082E0,1.120990038E0,7.994743787E0
3.651488781E0,-7.694037914E0,-2.215445995E0,6.348729730E-1,8.031779633E0
3.656410626E0,-7.685173988E0,-2.342874050E0,-3.196899965E-2,8.034424688E0
3.661332472E0,-7.737737179E0,-2.489238977E0,-7.304790020E-1,8.161034671E0
3.666254400E0,-7.811353207E0,-2.616303921E0,-1.412840009E0,8.358133884E0
3.671176171E0,-7.997089863E0,-2.768382072E0,-2.045933962E0,8.706505117E0
3.676097787E0,-8.141134262E0,-2.909970045E0,-2.558315992E0,9.016150700E0
3.681019861E0,-8.269495010E0,-3.038836956E0,-2.943595886E0,9.288909221E0
3.685941710E0,-8.406152725E0,-3.171890974E0,-3.198543072E0,9.537031707E0
3.690863551E0,-8.520989418E0,-3.228108883E0,-3.302258968E0,9.691896714E0
3.695785397E0,-8.561266899E0,-3.321849108E0,-3.196763039E0,9.723644704E0
3.700707243E0,-8.420632362E0,-3.524826050E0,-2.936889887E0,9.589409276E0
3.705628858E0,-8.255871773E0,-3.714879990E0,-2.605743885E0,9.420703438E0
3.710550703E0,-8.090431213E0,-3.861083031E0,-2.175228119E0,9.224676512E0
3.715472577E0,-7.910015106E0,-3.986623049E0,-1.713014960E0,9.021968885E0
3.720394348E0,-7.703539848E0,-4.077898026E0,-1.219076991E0,8.801132155E0
3.725316192E0,-7.509008884E0,-4.103662968E0,-7.858120203E-1,8.593181292E0
3.730238048E0,-7.365756035E0,-4.015219212E0,-4.020969868E-1,8.398692117E0
3.735159895E0,-7.168326855E0,-3.917855024E0,1.216700021E-2,8.169127611E0
3.740081517E0,-6.892528057E0,-3.821341991E0,4.643389881E-1,7.894631615E0
3.745003592E0,-6.463510990E0,-3.679723024E0,9.041349888E-1,7.492315792E0
3.749925440E0,-5.916621208E0,-3.382716894E0,1.262092948E0,6.931237892E0
3.754847271E0,-5.442815781E0,-2.855675936E0,1.630017042E0,6.358937351E0
3.759769117E0,-4.904365063E0,-2.215791941E0,1.971202016E0,5.731332130E0
3.764690733E0,-4.195321083E0,-1.670055032E0,2.145214081E0,4.999174557E0
3.769612563E0,-3.226552963E0,-1.391306996E0,2.056205988E0,4.071162272E0
3.774534409E0,-2.037883043E0,-1.418223023E0,2.055147886E0,3.223035320E0
3.779456250E0,-5.058739781E-1,-1.651736021E0,1.900879025E0,2.568556294E0
3.784378022E0,1.605710983E0,-2.141244888E0,1.437008977E0,3.037800559E0
3.789299866E0,4.400261879E0,-2.713259935E0,9.049490094E-1,5.248144128E0
3.794221765E0,7.513574123E0,-3.166702986E0,7.791410089E-1,8.190779244E0
3.799143611E0,1.078956985E1,-3.573096991E0,1.264523029E0,1.143594588E1
3.804065457E0,1.434979820E1,-4.125574112E0,2.281703949E0,1.510441138E1
3.808987370E0,1.805951309E1,-4.734527111E0,3.753283978E0,1.904334269E1
3.813909218E0,2.199485207E1,-5.535330772E0,5.577109814E0,2.335631730E1
3.818830988E0,2.577482605E1,-6.368790150E0,7.437264919E0,2.757201580E1
3.823752812E0,2.874130249E1,-6.946996212E0,8.939233780E0,3.089066406E1
3.828674429E0,3.036922836E1,-6.880791187E0,1.007035732E1,3.272686076E1
3.833596273E0,3.091068840E1,-6.470048904E0,1.029749393E1,3.321702232E1
3.838518120E0,3.246580505E1,-6.704919815E0,9.914237022E0,3.460168411E1
3.843439942E0,3.608981323E1,-8.015698433E0,9.763424873E0,3.823676903E1
3.848361788E0,3.975067520E1,-9.249575615E0,9.965171814E0,4.201161122E1
3.853283559E0,4.061975098E1,-9.263381958E0,1.025818825E1,4.290693232E1
3.858205461E0,3.778131485E1,-8.107325554E0,1.029356861E1,3.998892389E1
3.863127232E0,3.329075241E1,-7.010787010E0,1.007475185E1,3.548134659E1
3.868049077E0,3.042762375E1,-7.312912941E0,1.006612206E1,3.287317745E1
3.872971000E0,3.051523590E1,-9.461606979E0,1.038764381E1,3.359471346E1
3.877892848E0,3.204095840E1,-1.254375839E1,1.055855560E1,3.599238790E1
3.882814617E0,3.339541626E1,-1.552354622E1,1.008104038E1,3.818195503E1
3.887736466E0,3.411776352E1,-1.771762848E1,8.877212524E0,3.945555789E1
3.892658084E0,3.425218964E1,-1.876501846E1,7.072250843E0,3.969074382E1
3.897580159E0,3.368326569E1,-1.833552170E1,5.123501778E0,3.869113611E1
3.902502002E0,3.182458687E1,-1.622835350E1,3.134656906E0,3.586070078E1
3.907423617E0,2.837738800E1,-1.279643631E1,1.595924020E0,3.117004821E1
3.912345456E0,2.343801689E1,-8.727313042E0,8.331140280E-1,2.502400263E1
3.917267303E0,1.842280769E1,-4.989173889E0,9.835469723E-1,1.911175199E1
3.922189149E0,1.412487602E1,-2.143264055E0,1.862385035E0,1.440743494E1
3.927111000E0,1.056764412E1,-5.227100104E-2,3.080897093E0,1.100771372E1
3.932032771E0,7.808972836E0,1.390198946E0,4.445525169E0,9.092601602E0
3.936954692E0,5.829524994E0,2.199779034E0,5.740774155E0,8.472241577E0
3.941876530E0,4.445933819E0,2.532340050E0,6.581631184E0,8.336482633E0
3.946798377E0,2.945507050E0,2.560090065E0,6.786572933E0,7.828642609E0
3.951720146E0,1.128921986E0,2.281624079E0,6.134498119E0,6.641712163E0
3.956641985E0,-8.463280201E-1,1.612946987E0,4.589613914E0,4.937856315E0
3.961563831E0,-2.933662891E0,7.367129922E-1,2.335927010E0,3.821737692E0
3.966485454E0,-4.891373158E0,-1.987030059E-1,-3.990600109E-1,4.911645665E0
3.971407298E0,-6.480115891E0,-1.105164051E0,-3.333089113E0,7.370398400E0
3.976329375E0,-7.538331032E0,-2.185600042E0,-5.973528862E0,9.863383261E0
3.981251237E0,-8.325782776E0,-3.364620924E0,-8.037980080E0,1.205190676E1
3.986173083E0,-9.113258362E0,-4.586285114E0,-9.324583054E0,1.382148104E1
3.991094718E0,-9.660619736E0,-5.828022003E0,-9.834915161E0,1.496726329E1
3.996016486E0,-9.638359070E0,-7.146081924E0,-9.625242233E0,1.538212406E1
4.000938409E0,-9.226682663E0,-8.368799210E0,-8.688875198E0,1.518766030E1
4.005860252E0,-8.894662857E0,-9.338868141E0,-7.305880070E0,1.482246164E1
4.010782098E0,-8.613079071E0,-1.020261860E1,-5.689864159E0,1.451389374E1
4.015703944E0,-8.327239990E0,-1.090066338E1,-4.207932949E0,1.434831306E1
4.020625713E0,-8.116823196E0,-1.130137444E1,-3.081890106E0,1.425138343E1
4.025547558E0,-7.949313164E0,-1.143746853E1,-2.409856081E0,1.413558179E1
4.030469184E0,-7.632445812E0,-1.137633801E1,-2.038836002E0,1.385034829E1
4.035391028E0,-7.234251976E0,-1.108074570E1,-2.013636112E0,1.338551670E1
4.040312893E0,-6.934961796E0,-1.062757874E1,-2.181386948E0,1.287624067E1
4.045234739E0,-6.761100769E0,-1.016853714E1,-2.470231056E0,1.245847794E1
4.050156586E0,-6.610101223E0,-9.725988388E0,-2.919351101E0,1.211655476E1
4.055078466E0,-6.420495987E0,-9.352925301E0,-3.455118895E0,1.185908205E1
4.060000312E0,-6.196812153E0,-8.984802246E0,-3.915987968E0,1.159578001E1
4.064922158E0,-5.959168911E0,-8.626338005E0,-4.159998894E0,1.127967164E1
4.069844023E0,-5.707509041E0,-8.273962021E0,-4.145782948E0,1.087297674E1
4.074765869E0,-5.404881954E0,-8.083017349E0,-3.964148998E0,1.050059025E1
4.079687716E0,-5.034211159E0,-8.082971573E0,-3.745965004E0,1.023278873E1
4.084609468E0,-4.682446003E0,-8.215597153E0,-3.603990078E0,1.011978664E1
4.089531312E0,-4.366446018E0,-8.234968185E0,-3.525362968E0,9.965376857E0
4.094453153E0,-4.179775238E0,-8.040505409E0,-3.356982946E0,9.663828578E0
4.099374771E0,-4.084776878E0,-7.710957050E0,-3.056387901E0,9.245851382E0
4.104296922E0,-4.115077972E0,-7.380451202E0,-2.784557104E0,8.897116664E0
4.109218483E0,-4.155906200E0,-7.035995007E0,-2.669714928E0,8.596752868E0
4.114140327E0,-4.273705006E0,-6.698577881E0,-2.728405952E0,8.401172486E0
4.119062173E0,-4.550743103E0,-6.296284199E0,-2.911237955E0,8.296249992E0
4.123984019E0,-5.054148197E0,-5.852222919E0,-3.226778984E0,8.378844175E0
4.128906096E0,-5.489396095E0,-5.479518890E0,-3.592699051E0,8.547870099E0
4.133827945E0,-5.682406902E0,-5.222085953E0,-3.899403095E0,8.646691529E0
4.138749531E0,-5.842673779E0,-5.147655964E0,-4.015944958E0,8.761450377E0
4.143671375E0,-5.986221790E0,-5.118861198E0,-4.069941998E0,8.865777978E0
4.148593126E0,-6.187908173E0,-5.134122849E0,-3.985841036E0,8.974204908E0
4.153514970E0,-6.352670193E0,-5.154382229E0,-3.707225084E0,8.981513935E0
4.158436817E0,-6.476624012E0,-5.195066929E0,-3.368155956E0,8.959902540E0
4.163358663E0,-6.567937851E0,-5.256532192E0,-3.060364962E0,8.951802723E0
4.168280509E0,-6.754255772E0,-5.352770805E0,-2.842360973E0,9.074753012E0
4.173202289E0,-6.858980179E0,-5.387434006E0,-2.815118074E0,9.164875560E0
4.178123907E0,-6.818343163E0,-5.452209949E0,-2.832041025E0,9.178063695E0
4.183045981E0,-6.752157211E0,-5.486742973E0,-2.815295935E0,9.144499257E0
4.187967830E0,-6.769555092E0,-5.471712112E0,-2.756207943E0,9.130344561E0
4.192889676E0,-6.778113842E0,-5.498611927E0,-2.602694988E0,9.107775886E0
4.197811522E0,-6.774807930E0,-5.512347221E0,-2.412224054E0,9.061060604E0
4.202733382E0,-6.745213032E0,-5.579698086E0,-2.193494081E0,9.024541310E0
4.207654998E0,-6.647716045E0,-5.680072784E0,-1.978536963E0,8.964929669E0
4.212576842E0,-6.547534943E0,-5.748038769E0,-1.773998976E0,8.891413604E0
4.217498613E0,-6.402104855E0,-5.808650017E0,-1.673210025E0,8.804941418E0
4.222420457E0,-6.278779030E0,-5.790215015E0,-1.612676024E0,8.691972158E0
4.227342279E0,-6.237892151E0,-5.721282005E0,-1.615908027E0,8.617164558E0
4.232264125E0,-6.193140984E0,-5.646968842E0,-1.575049043E0,8.527838637E0
4.237185972E0,-5.990390778E0,-5.618766785E0,-1.454826951E0,8.340973762E0
4.242107828E0,-5.667201996E0,-5.638349056E0,-1.313881993E0,8.101508775E0
4.247029674E0,-5.329911232E0,-5.597521782E0,-1.183217049E0,7.819220321E0
4.251951291E0,-4.999060154E0,-5.462194920E0,-1.144716024E0,7.492432885E0
4.256873366E0,-4.726428032E0,-5.180984974E0,-1.250017047E0,7.123501236E0
4.261795214E0,-4.523771763E0,-4.839841843E0,-1.395244956E0,6.770176402E0
4.266717061E0,-4.253202915E0,-4.492912769E0,-1.500152946E0,6.366039511E0
4.271638897E0,-3.945489883E0,-4.132946968E0,-1.511579990E0,5.910415817E0
4.276560743E0,-3.677680016E0,-3.725430012E0,-1.503813982E0,5.446615055E0
4.281482349E0,-3.386584044E0,-3.265846014E0,-1.387899995E0,4.905198066E0
4.286404193E0,-2.974145889E0,-2.703524113E0,-1.153393984E0,4.181495436E0
4.291326059E0,-2.417562008E0,-2.169133902E0,-7.966070175E-1,3.344298235E0
4.296247905E0,-1.730036974E0,-1.723813057E0,-2.926369905E-1,2.459714576E0
4.301169751E0,-9.842450023E-1,-1.422299981E0,1.299310029E-1,1.734519393E0
4.306091522E0,-3.257020116E-1,-1.298506021E0,5.000039935E-1,1.429056920E0
4.311013366E0,4.312349856E-1,-1.468577027E0,1.014058948E0,1.836027681E0
4.315935222E0,1.556550980E0,-2.037986994E0,1.558099031E0,3.000652351E0
4.320857068E0,3.248716116E0,-2.825599909E0,1.965548038E0,4.733027608E0
4.325778914E0,5.228941917E0,-3.494642019E0,2.444645882E0,6.747640321E0
4.330700746E0,7.561277866E0,-3.817183018E0,2.904186010E0,8.954222777E0
4.335622592E0,1.036366081E1,-3.830267906E0,3.503742933E0,1.159105829E1
4.340544234E0,1.359027100E1,-3.618557930E0,4.476548195E0,1.475902812E1
4.345466078E0,1.705914688E1,-3.106585026E0,5.577021122E0,1.821451420E1
4.350387943E0,2.058644867E1,-2.293582916E0,6.947868824E0,2.184800386E1
4.355309789E0,2.407373047E1,-1.423931003E0,8.712326050E0,2.564130853E1
4.360231625E0,2.695715332E1,-4.601869881E-1,1.065041924E1,2.898846869E1
4.365153471E0,2.843600082E1,7.678170204E-1,1.250801373E1,3.107484663E1
4.370075243E0,2.929201317E1,1.729809046E0,1.392316055E1,3.247874189E1
4.374997179E0,3.174042130E1,1.330639005E0,1.479348373E1,3.504385974E1
4.379919025E0,3.603397751E1,-2.873390019E-1,1.531971169E1,3.915640005E1
4.384840871E0,3.927325439E1,-1.545747995E0,1.565107441E1,4.230524764E1
4.389762731E0,3.966775131E1,-1.333480954E0,1.585083771E1,4.273824659E1
4.394684578E0,3.780796051E1,-4.565390050E-1,1.614832306E1,4.111470106E1
4.399606424E0,3.511570740E1,-2.626670003E-1,1.693002319E1,3.898470963E1
4.404528251E0,3.348456573E1,-1.736662030E0,1.801346588E1,3.806201637E1
4.409449868E0,3.330490875E1,-4.296526909E0,1.846272278E1,3.832165475E1
4.414371712E0,3.410905838E1,-6.955522060E0,1.791175079E1,3.914892038E1
4.419293559E0,3.525521469E1,-9.125993729E0,1.609651184E1,3.981597189E1
4.424215434E0,3.604944229E1,-1.047275066E1,1.326284504E1,3.981386510E1
4.429137280E0,3.573627090E1,-1.069616413E1,9.559361458E0,3.850805600E1
4.434059051E0,3.372068024E1,-9.393337250E0,5.887289047E0,3.549618617E1
4.438980895E0,2.984052658E1,-6.632043839E0,2.962369919E0,3.071183270E1
4.443902741E0,2.489369392E1,-3.166970968E0,1.363855004E0,2.513137089E1
4.448824665E0,2.020738220E1,-7.169800252E-2,1.157060981E0,2.024060835E1
4.453746522E0,1.641443062E1,2.134180069E0,1.945225000E0,1.666649805E1
4.458668368E0,1.340041733E1,3.664793968E0,3.172508001E0,1.425014759E1
4.463590137E0,1.080668640E1,4.652678967E0,4.220599174E0,1.249981400E1
4.468511952E0,8.410070419E0,5.143241882E0,4.799845219E0,1.096452168E1
4.473433570E0,6.255222797E0,5.218667984E0,4.782663822E0,9.446490407E0
4.478355635E0,4.317537785E0,4.853891850E0,4.094031811E0,7.678703997E0
4.483277483E0,2.277136087E0,4.236841202E0,3.024770021E0,5.682024799E0
4.488199358E0,2.355879992E-1,3.322859049E0,1.744724035E0,3.760446240E0
4.493120973E0,-1.755556941E0,2.258593082E0,1.490059942E-1,2.864511419E0
4.498042818E0,-3.695036888E0,1.142616987E0,-1.674895048E0,4.214753208E0
4.502964669E0,-5.404461861E0,-9.653600305E-2,-3.521673918E0,6.451334311E0
4.507886515E0,-6.639013767E0,-1.546751976E0,-5.106982231E0,8.517641281E0
4.512808337E0,-7.386621952E0,-3.175813913E0,-6.350514889E0,1.024582926E1
4.517730183E0,-7.728932858E0,-4.857804775E0,-7.175314903E0,1.161119349E1
4.522652029E0,-7.812241077E0,-6.524168968E0,-7.514887810E0,1.265185481E1
4.527573823E0,-7.696313858E0,-8.034579277E0,-7.397132874E0,1.336058703E1
4.532495594E0,-7.456960201E0,-9.430927277E0,-6.898766041E0,1.386151570E1
4.537417428E0,-7.095236778E0,-1.076491928E1,-6.053860188E0,1.424342288E1
4.542339274E0,-6.617143154E0,-1.200702572E1,-5.060850143E0,1.461394725E1
4.547261082E0,-6.527942181E0,-1.272846603E1,-4.457800865E0,1.498331957E1
4.552182928E0,-6.806580067E0,-1.307561111E1,-3.727983952E0,1.520522945E1
4.557104775E0,-6.767226219E0,-1.337654400E1,-2.885164976E0,1.526602296E1
4.562026597E0,-6.211837769E0,-1.345637989E1,-2.059828043E0,1.496342139E1
4.566948443E0,-5.892876148E0,-1.326005363E1,-2.045151949E0,1.465392979E1
4.571870060E0,-5.506638050E0,-1.309906483E1,-2.082189083E0,1.436120027E1
4.576791890E0,-5.130270004E0,-1.293556976E1,-2.280174017E0,1.410134139E1
4.581713737E0,-5.053252220E0,-1.263160229E1,-2.592500925E0,1.384968575E1
4.586635554E0,-4.918460846E0,-1.237489319E1,-2.944181919E0,1.363808805E1
4.591557400E0,-4.543922901E0,-1.229322720E1,-3.231684923E0,1.349868355E1
4.596479161E0,-4.204906940E0,-1.228933334E1,-3.567362070E0,1.346978205E1
4.601401005E0,-3.961062908E0,-1.232588577E1,-3.987124920E0,1.354675771E1
4.606322928E0,-3.697523117E0,-1.229606533E1,-4.416816235E0,1.357840806E1
4.611244777E0,-3.375564098E0,-1.228838730E1,-4.763544083E0,1.360478767E1
4.616166623E0,-2.976304054E0,-1.222510433E1,-4.891279221E0,1.349948792E1
4.621088378E0,-2.522830009E0,-1.216950130E1,-4.873824120E0,1.334974138E1
4.626010222E0,-2.197633028E0,-1.200473595E1,-4.790278912E0,1.311068450E1
4.630932068E0,-2.093899012E0,-1.169774437E1,-4.591200829E0,1.273973161E1
4.635853686E0,-2.076723099E0,-1.134827900E1,-4.293354034E0,1.230971584E1
4.640775761E0,-2.047781944E0,-1.095844746E1,-4.040163994E0,1.185765182E1
4.645697609E0,-2.018785000E0,-1.045161819E1,-3.825685978E0,1.131139642E1
4.650619440E0,-2.063010931E0,-9.843078613E0,-3.469821930E0,1.063869705E1
4.655541055E0,-2.286489010E0,-9.146446228E0,-2.967899084E0,9.884024260E0
4.660462838E0,-2.550412893E0,-8.507416725E0,-2.409041882E0,9.202403384E0
4.665384684E0,-2.762065887E0,-8.024275780E0,-1.843022943E0,8.684166242E0
4.670306530E0,-2.928725958E0,-7.679946899E0,-1.366423011E0,8.332234512E0
4.675228400E0,-3.092569113E0,-7.355447769E0,-1.067764997E0,8.050261964E0
4.680150246E0,-3.319928885E0,-7.063372135E0,-9.790819883E-1,7.865860109E0
4.685072093E0,-3.563659906E0,-6.792576790E0,-1.042031050E0,7.741098119E0
4.689993895E0,-3.837491035E0,-6.549735069E0,-1.268772960E0,7.696437601E0
4.694915512E0,-4.003168106E0,-6.394295216E0,-1.590159059E0,7.709797145E0
4.699837371E0,-4.184806824E0,-6.351033211E0,-1.914348006E0,7.843019781E0
4.704759448E0,-4.220601082E0,-6.431450844E0,-2.258550882E0,8.017361507E0
4.709681296E0,-4.281229019E0,-6.548787117E0,-2.515948057E0,8.218608717E0
4.714603138E0,-4.404410839E0,-6.656281948E0,-2.718374014E0,8.431754354E0
4.719524984E0,-4.492379189E0,-6.795651913E0,-2.854065895E0,8.631804436E0
4.724446662E0,-4.519518852E0,-6.888185978E0,-2.950575113E0,8.750945676E0
4.729368506E0,-4.620077133E0,-6.985352993E0,-3.097151995E0,8.929312383E0
4.734290352E0,-4.669010162E0,-7.110175133E0,-3.250382900E0,9.105999962E0
4.739212124E0,-4.715338230E0,-7.219196796E0,-3.301012039E0,9.232978798E0
4.744133968E0,-4.731142044E0,-7.369575977E0,-3.329794884E0,9.369198957E0
4.749055948E0,-4.657774925E0,-7.551032066E0,-3.260516882E0,9.452191432E0
4.753977719E0,-4.568044186E0,-7.768099785E0,-3.183126926E0,9.557337442E0
4.758899606E0,-4.510359764E0,-7.917485237E0,-3.145817995E0,9.639817869E0
4.763821452E0,-4.421043873E0,-8.068244934E0,-3.076512098E0,9.700883049E0
4.768743376E0,-4.232638836E0,-8.247803688E0,-2.975044012E0,9.736138047E0
4.773665152E0,-4.051750183E0,-8.360460281E0,-2.790756941E0,9.700633998E0
4.778586996E0,-3.840847015E0,-8.373728752E0,-2.620016098E0,9.577887208E0
4.783508852E0,-3.687210083E0,-8.256866455E0,-2.435839891E0,9.365077567E0
4.788430470E0,-3.557676077E0,-8.088599205E0,-2.200263023E0,9.106242559E0
4.793352314E0,-3.405100107E0,-7.941702843E0,-1.959671021E0,8.860342053E0
4.798274160E0,-3.117566109E0,-7.793265820E0,-1.739016056E0,8.571953536E0
4.803196006E0,-2.692686081E0,-7.636374950E0,-1.467308998E0,8.229081140E0
4.808117852E0,-2.271400928E0,-7.473540783E0,-1.058493018E0,7.882479399E0
4.813039698E0,-1.965680003E0,-7.225831032E0,-6.541690230E-1,7.516945462E0
4.817961498E0,-1.739547014E0,-6.848413944E0,-3.684299886E-1,7.075488536E0
4.822883342E0,-1.458706975E0,-6.346730232E0,-1.449159980E-1,6.513816955E0
4.827805188E0,-9.063739777E-1,-5.915229797E0,-3.800199926E-2,5.984388147E0
4.832727111E0,-2.926389873E-1,-5.482386112E0,2.470899932E-2,5.490246406E0
4.837648959E0,1.996569932E-1,-4.970382214E0,2.061060071E-1,4.978658650E0
4.842570805E0,7.014870048E-1,-4.372776985E0,3.986609876E-1,4.446593434E0
4.847492571E0,1.392107964E0,-3.699069977E0,6.169670224E-1,4.000216442E0
4.852414415E0,2.598057985E0,-3.193964958E0,1.010357976E0,4.239356164E0
4.857336031E0,4.304364204E0,-2.961074114E0,1.629446030E0,5.472714635E0
4.862257875E0,6.423092842E0,-3.006536961E0,2.344175100E0,7.469306732E0
4.867179669E0,8.991415024E0,-3.216952085E0,3.177684069E0,1.006439272E1
4.872101746E0,1.175564671E1,-3.240099907E0,4.074721813E0,1.285678166E1
4.877023595E0,1.458382034E1,-2.927124977E0,4.968479156E0,1.568252727E1
4.881945465E0,1.722939491E1,-2.244249105E0,5.852168083E0,1.833402777E1
4.886867080E0,1.993660355E1,-1.200966001E0,6.691271782E0,2.106379829E1
4.891788924E0,2.251489639E1,2.814059854E-1,7.779003143E0,2.382252377E1
4.896710755E0,2.484472656E1,2.140527010E0,9.329706192E0,2.662490773E1
4.901632602E0,2.661373138E1,4.132553101E0,1.102107811E1,2.910039271E1
4.906554448E0,2.824521637E1,5.728474140E0,1.270527458E1,3.149653419E1
4.911476275E0,3.059096146E1,5.992119789E0,1.409805202E1,3.421209572E1
4.916398046E0,3.414181519E1,5.039138794E0,1.513103008E1,3.768294754E1
4.921319967E0,3.741314316E1,4.087503910E0,1.565455341E1,4.076169785E1
4.926241739E0,3.860179901E1,4.320648193E0,1.588252354E1,4.196452599E1
4.931163597E0,3.729425430E1,5.745379925E0,1.603730202E1,4.100080305E1
4.936085214E0,3.463210678E1,6.941180229E0,1.640154839E1,3.894320984E1
4.941007058E0,3.187092400E1,6.892214775E0,1.720509720E1,3.686833045E1
4.945928880E0,3.030396271E1,5.096967220E0,1.820505142E1,3.571740651E1
4.950850727E0,3.046764565E1,2.287512064E0,1.867689705E1,3.580972809E1
4.955772554E0,3.116023064E1,-2.955929935E-1,1.808218384E1,3.602794361E1
4.960694631E0,3.126240158E1,-1.924461007E0,1.672425842E1,3.550693063E1
4.965616248E0,3.054810905E1,-2.669358969E0,1.479377174E1,3.404655822E1
4.970538058E0,2.881721115E1,-2.530637026E0,1.250712299E1,3.151608967E1
4.975459904E0,2.600976562E1,-1.513787985E0,1.015597153E1,2.796324766E1
4.980381700E0,2.233656693E1,1.212349981E-1,8.093666077E0,2.375803760E1
4.985303544E0,1.829296112E1,1.904150963E0,6.613331795E0,1.954467638E1
4.990225390E0,1.431184006E1,3.385605097E0,5.588570118E0,1.573287017E1
4.995147236E0,1.070798492E1,4.371051788E0,4.804776192E0,1.252409315E1
5.000069092E0,7.487894058E0,4.885670185E0,4.272906780E0,9.909392662E0
5.004990939E0,4.672261238E0,4.988167763E0,3.983295918E0,7.910656678E0
5.009912556E0,2.399571896E0,4.464618206E0,3.840826988E0,6.359458543E0
5.014834616E0,4.613389969E-1,3.571127892E0,3.571355104E0,5.071524955E0
5.019756233E0,-1.440616965E0,2.604614019E0,2.833432913E0,4.109468762E0
5.024678308E0,-3.279093981E0,1.593479037E0,1.681874990E0,4.015013856E0
5.029600151E0,-4.866487980E0,5.319449902E-1,2.306749970E-1,4.900906211E0
5.034521767E0,-6.127911091E0,-5.813930035E-1,-1.380710959E0,6.308381323E0
5.039443611E0,-7.203977108E0,-1.575837970E0,-2.829960108E0,7.898685061E0
5.044365453E0,-8.104991913E0,-2.559668064E0,-4.007685184E0,9.397038632E0
5.049287299E0,-8.742522240E0,-3.618992090E0,-4.794843197E0,1.060751244E1
5.054209159E0,-8.903511047E0,-4.867634773E0,-5.373641968E0,1.148226481E1
5.059130931E0,-8.827798843E0,-6.118598938E0,-5.653603077E0,1.213797813E1
5.064052775E0,-8.665011406E0,-7.288740158E0,-5.641634941E0,1.265054151E1
5.068974664E0,-8.081645966E0,-8.301664352E0,-5.390845776E0,1.277856998E1
5.073896587E0,-7.341457844E0,-9.159115791E0,-5.006382942E0,1.276128032E1
5.078818296E0,-6.792411804E0,-9.764595032E0,-4.631061077E0,1.276443892E1
5.083740140E0,-6.593716145E0,-1.011192799E1,-4.346728802E0,1.283051953E1
5.088661987E0,-6.453085899E0,-1.034490013E1,-4.142983913E0,1.287725095E1
5.093583833E0,-6.363340855E0,-1.038073921E1,-3.993168116E0,1.281394728E1
5.098505679E0,-6.383678913E0,-1.026369381E1,-3.791908026E0,1.266780698E1
5.103427525E0,-6.308611870E0,-9.977592468E0,-3.497761965E0,1.231199716E1
5.108349152E0,-5.957532883E0,-9.744230270E0,-3.098541021E0,1.183398403E1
5.113271226E0,-5.467195988E0,-9.572986603E0,-2.678746939E0,1.134495437E1
5.118192762E0,-4.985785007E0,-9.389340401E0,-2.265683889E0,1.086973269E1
5.123114606E0,-4.615778923E0,-9.159367561E0,-1.855937958E0,1.042324013E1
5.128036529E0,-4.297139168E0,-8.937771797E0,-1.460952044E0,1.002414837E1
5.132958377E0,-4.040037155E0,-8.676817894E0,-1.074020028E0,9.631333656E0
5.137880147E0,-3.871289015E0,-8.458486557E0,-6.644799709E-1,9.326007029E0
5.142801991E0,-3.619915009E0,-8.418734550E0,-3.275879920E-1,9.169852234E0
5.147723871E0,-3.406008005E0,-8.451929092E0,-2.236219943E-1,9.115152369E0
5.152645794E0,-3.280241966E0,-8.468903542E0,-3.638679981E-1,9.089263693E0
5.157567565E0,-3.154489994E0,-8.420256615E0,-6.409479976E-1,9.014562824E0
5.162489414E0,-3.096319914E0,-8.331355095E0,-9.108629823E-1,8.934671012E0
5.167411261E0,-2.982496977E0,-8.245730400E0,-1.073536992E0,8.834016058E0
5.172333107E0,-2.868052959E0,-8.200823784E0,-1.084534049E0,8.755309967E0
5.177254733E0,-2.831720114E0,-8.150838852E0,-1.011474967E0,8.687801471E0
5.182176577E0,-2.821115971E0,-8.105258942E0,-9.520530105E-1,8.634831948E0
5.187098625E0,-2.904860020E0,-8.007182121E0,-9.063940048E-1,8.565904935E0
5.192020243E0,-3.107897997E0,-7.871759892E0,-8.612449765E-1,8.506784155E0
5.196942318E0,-3.297245026E0,-7.704833031E0,-8.307160139E-1,8.421779259E0
5.201863873E0,-3.465236902E0,-7.637021065E0,-8.497830033E-1,8.429358735E0
5.206785794E0,-3.672463894E0,-7.579635143E0,-9.455320239E-1,8.475369654E0
5.211707640E0,-4.010931969E0,-7.471661091E0,-1.152999997E0,8.558195120E0
5.216629486E0,-4.375858784E0,-7.301994801E0,-1.404855967E0,8.627913331E0
5.221551333E0,-4.710803986E0,-7.140981197E0,-1.630305052E0,8.708799068E0
5.226473179E0,-4.959154129E0,-7.055599213E0,-1.816508055E0,8.813307633E0
5.231394935E0,-5.166376114E0,-7.015707970E0,-2.024590969E0,8.944862719E0
5.236316779E0,-5.466680050E0,-7.013392925E0,-2.211338997E0,9.163093978E0
5.241238600E0,-5.717603207E0,-6.998562813E0,-2.383749008E0,9.346289489E0
5.246160447E0,-5.981900215E0,-6.986808777E0,-2.471553087E0,9.524032850E0
5.251082293E0,-6.188851833E0,-7.000082970E0,-2.469110966E0,9.664344652E0
5.256003925E0,-6.308695793E0,-7.021156788E0,-2.461285114E0,9.754701926E0
5.260925769E0,-6.426233768E0,-7.025599003E0,-2.538585901E0,9.853930189E0
5.265847619E0,-6.480536938E0,-7.060300827E0,-2.590199947E0,9.927453981E0
5.270769466E0,-6.559161186E0,-7.106677055E0,-2.573863029E0,1.000760836E1
5.275691543E0,-6.595221996E0,-7.142873764E0,-2.478060007E0,1.003286500E1
5.280613151E0,-6.587716103E0,-7.152723789E0,-2.246437073E0,9.980277580E0
5.285534995E0,-6.507585049E0,-7.153111935E0,-1.878296018E0,9.851074533E0
5.290456841E0,-6.382041931E0,-7.181669235E0,-1.480383039E0,9.721027011E0
5.295378666E0,-6.243447781E0,-7.206425190E0,-1.130592942E0,9.601637600E0
5.300300510E0,-6.137846947E0,-7.188859940E0,-9.021130204E-1,9.495613739E0
5.305222341E0,-6.158724785E0,-7.046120167E0,-6.729720235E-1,9.382461922E0
5.310143958E0,-6.128370762E0,-6.899443150E0,-4.289590120E-1,9.238141036E0
5.315066057E0,-6.097380161E0,-6.742068768E0,-1.573169976E-1,9.091660175E0
5.319987905E0,-6.011719227E0,-6.519621849E0,1.309089959E-1,8.869237525E0
5.324909521E0,-5.777677059E0,-6.232869148E0,4.637500048E-1,8.511478960E0
5.329831375E0,-5.413874149E0,-5.969701767E0,7.298610210E-1,8.091975630E0
5.334753221E0,-5.104414940E0,-5.652313232E0,8.741189837E-1,7.666014659E0
5.339675067E0,-4.812020779E0,-5.309047222E0,9.115290046E-1,7.223047245E0
5.344597172E0,-4.437533855E0,-4.922186852E0,8.850659728E-1,6.686028111E0
5.349519020E0,-3.993635893E0,-4.537342072E0,9.693629742E-1,6.121786120E0
5.354440867E0,-3.505983114E0,-4.230326176E0,1.147757053E0,5.612924675E0
5.359362386E0,-3.150125027E0,-3.792756081E0,1.290472984E0,5.096430800E0
5.364284230E0,-2.818639994E0,-3.232770920E0,1.274463058E0,4.474348592E0
5.369206158E0,-2.365926027E0,-2.638482094E0,1.138466954E0,3.722270911E0
5.374127929E0,-1.633770943E0,-2.080317974E0,9.985160232E-1,2.827360008E0
5.379049774E0,-7.278329730E-1,-1.553395987E0,1.073606014E0,2.023711887E0
5.383971639E0,4.035499990E-1,-1.208057046E0,1.504897952E0,1.971540584E0
5.388893485E0,1.905809999E0,-1.329867005E0,2.389287949E0,3.333069892E0
5.393815102E0,3.792057037E0,-1.843773961E0,3.626265049E0,5.561384468E0
5.398737172E0,6.225312233E0,-2.433631897E0,5.071415901E0,8.390252431E0
5.403659020E0,9.175126076E0,-2.939110041E0,6.570991039E0,1.166187076E1
5.408580867E0,1.249011612E1,-3.268486023E0,7.952332020E0,1.516329734E1
5.413502709E0,1.572215080E1,-3.119318962E0,9.029362679E0,1.839689015E1
5.418424555E0,1.875473022E1,-2.293088913E0,9.986053467E0,2.137099498E1
5.423346170E0,2.146258926E1,-7.525950074E-1,1.073204899E1,2.400804058E1
5.428268010E0,2.407330894E1,1.099966049E0,1.138696671E1,2.665327634E1
5.433189856E0,2.630608368E1,2.880363941E0,1.221447182E1,2.914618083E1
5.438111707E0,2.783860016E1,4.121822834E0,1.320654964E1,3.108681450E1
5.443033478E0,2.940591431E1,4.437815189E0,1.394463158E1,3.284592440E1
5.447955399E0,3.236045456E1,3.705311060E0,1.453345490E1,3.566720707E1
5.452877291E0,3.598023987E1,2.691596031E0,1.516460323E1,3.913805746E1
5.457799061E0,3.813977814E1,2.615850925E0,1.603504753E1,4.145609849E1
5.462720885E0,3.806391144E1,3.592763901E0,1.719009399E1,4.191978814E1
5.467642808E0,3.633965683E1,4.633272171E0,1.839582443E1,4.099322171E1
5.472564656E0,3.383446503E1,4.767115116E0,1.968728638E1,3.943457436E1
5.477486425E0,3.195784378E1,3.316832066E0,2.094970894E1,3.835616585E1
5.482408346E0,3.168332291E1,7.559930086E-1,2.133386230E1,3.820390237E1
5.487330118E0,3.210760880E1,-1.876549006E0,2.091385460E1,3.836416678E1
5.492251729E0,3.258816910E1,-3.888154030E0,1.971747398E1,3.828688140E1
5.497173573E0,3.238929367E1,-5.053133011E0,1.781649399E1,3.730989086E1
5.502095645E0,3.119351196E1,-5.351378918E0,1.558821678E1,3.527980934E1
5.507017262E0,2.893260384E1,-4.822753906E0,1.306742859E1,3.211093599E1
5.511939337E0,2.559543228E1,-3.684856892E0,1.048558712E1,2.790433409E1
5.516860892E0,2.140293312E1,-2.290107012E0,8.273853302E0,2.306050270E1
5.521782736E0,1.683113289E1,-8.905360103E-1,6.504622936E0,1.806627267E1
5.526704659E0,1.239636517E1,1.718540043E-1,5.178342819E0,1.343557358E1
5.531626507E0,8.487483978E0,8.116229773E-1,4.181332111E0,9.496296876E0
5.536548353E0,5.224939823E0,1.138903022E0,3.192732096E0,6.228212784E0
5.541470200E0,2.501889944E0,1.262979984E0,2.113214016E0,3.510020685E0
5.546392032E0,2.186640054E-1,1.113307953E0,1.025359988E0,1.529258530E0
5.551313878E0,-1.581662059E0,6.819999814E-1,-2.198199928E-1,1.736404236E0
5.556235680E0,-3.188626051E0,-4.039999912E-4,-1.446913958E0,3.501556262E0
5.561157526E0,-4.819406986E0,-7.478989959E-1,-2.440484047E0,5.453622557E0
5.566079296E0,-6.365126133E0,-1.539839983E0,-3.237497091E0,7.305294332E0
5.571000911E0,-7.790870190E0,-2.410742998E0,-3.796746969E0,8.995811673E0
5.575922755E0,-9.092583656E0,-3.302031040E0,-4.117774963E0,1.051354161E1
5.580844837E0,-1.006702805E1,-4.241692066E0,-4.231789112E0,1.171516301E1
5.585766685E0,-1.060217285E1,-5.202562809E0,-4.084175110E0,1.249612801E1
5.590688296E0,-1.098338318E1,-6.164871216E0,-3.771076918E0,1.314767524E1
5.595610140E0,-1.109874916E1,-7.192623138E0,-3.357783079E0,1.364517379E1
5.600531986E0,-1.100884628E1,-8.239785194E0,-2.911628008E0,1.405582919E1
5.605453856E0,-1.066178226E1,-9.322661400E0,-2.513699055E0,1.438416837E1
5.610375702E0,-1.008299446E1,-1.032148266E1,-2.141954899E0,1.458724622E1
5.615297474E0,-9.496151924E0,-1.117988205E1,-1.787291050E0,1.477704549E1
5.620219318E0,-8.873041153E0,-1.181444359E1,-1.476238012E0,1.484894660E1
5.625141150E0,-8.381125450E0,-1.216719818E1,-1.281190038E0,1.482988278E1
5.630062996E0,-8.126959801E0,-1.210088253E1,-1.195215940E0,1.462557263E1
5.634984866E0,-7.914523125E0,-1.169473076E1,-1.248456001E0,1.417621410E1
5.639906484E0,-7.579788208E0,-1.100968933E1,-1.338644028E0,1.343348117E1
5.644828559E0,-7.163986206E0,-1.022273540E1,-1.366812944E0,1.255767475E1
5.649750146E0,-6.767233849E0,-9.374253273E0,-1.271931052E0,1.163141810E1
5.654671990E0,-6.302723885E0,-8.599291801E0,-9.301180243E-1,1.070220853E1
5.659594067E0,-5.887447834E0,-7.963637829E0,-5.018929839E-1,9.916323211E0
5.664515929E0,-5.465820789E0,-7.390213966E0,-1.114379987E-1,9.192544686E0
5.669437775E0,-5.069081783E0,-6.823429108E0,2.893190086E-1,8.505203137E0
5.674359621E0,-4.890257835E0,-6.292037010E0,6.287829876E-1,7.993730010E0
5.679281132E0,-4.726033211E0,-5.815739155E0,7.744799852E-1,7.533792609E0
5.684203053E0,-4.422131062E0,-5.550354004E0,7.636029720E-1,7.137559961E0
5.689124809E0,-3.981564045E0,-5.539715767E0,6.180620193E-1,6.850058663E0
5.694046653E0,-3.541538000E0,-5.642164230E0,3.578419983E-1,6.671173773E0
5.698968500E0,-3.142527103E0,-5.802986145E0,7.569000125E-3,6.599256177E0
5.703890346E0,-2.912231922E0,-5.878159046E0,-2.926900089E-1,6.566545209E0
5.708812192E0,-2.817229986E0,-5.875307083E0,-4.316360056E-1,6.530109322E0
5.713734038E0,-2.775116920E0,-5.929299831E0,-4.005379975E-1,6.558833822E0
5.718655884E0,-2.749933004E0,-5.972739220E0,-2.599450052E-1,6.580525566E0
5.723577807E0,-2.814305067E0,-5.994733810E0,-5.915100127E-2,6.622736995E0
5.728499574E0,-3.008898020E0,-5.903947830E0,2.683600038E-2,6.626521519E0
5.733421418E0,-3.240789890E0,-5.711837769E0,2.792100050E-2,6.567236054E0
5.738343264E0,-3.606456995E0,-5.452017784E0,-8.609999903E-3,6.536903251E0
5.743264891E0,-4.044287205E0,-5.250968933E0,-6.255099922E-2,6.628185752E0
5.748186736E0,-4.497500896E0,-5.095910072E0,-5.918100104E-2,6.797007884E0
5.753108582E0,-4.889612198E0,-5.010625839E0,-1.232900005E-2,7.001059259E0
5.758030428E0,-5.203331947E0,-5.043704033E0,-5.127700046E-2,7.246809164E0
5.762952264E0,-5.492078781E0,-5.175242901E0,-1.522019953E-1,7.547796623E0
5.767874035E0,-5.818901062E0,-5.380176067E0,-2.745350003E-1,7.929771343E0
5.772795879E0,-6.113728046E0,-5.618060112E0,-4.056690037E-1,8.312931937E0
5.777717740E0,-6.338004112E0,-5.958323956E0,-5.361689925E-1,8.715468873E0
5.782639663E0,-6.466425896E0,-6.311379910E0,-7.163169980E-1,9.064286528E0
5.787561511E0,-6.545653820E0,-6.678820133E0,-9.502220154E-1,9.399741708E0
5.792483367E0,-6.627745152E0,-6.986992836E0,-1.175225973E0,9.701867386E0
5.797405213E0,-6.701021194E0,-7.223382950E0,-1.376924992E0,9.948711913E0
5.802327059E0,-6.733567238E0,-7.460549831E0,-1.432703018E0,1.015152055E1
5.807248819E0,-6.752829075E0,-7.661332130E0,-1.369951010E0,1.030405145E1
5.812170434E0,-6.750176907E0,-7.788684845E0,-1.170160055E0,1.037293471E1
5.817092509E0,-6.795777798E0,-7.807769775E0,-9.015200138E-1,1.039021670E1
5.822014357E0,-6.917243004E0,-7.728559971E0,-5.808709860E-1,1.038827710E1
5.826936203E0,-7.023069859E0,-7.616287231E0,-1.930209994E-1,1.036188200E1
5.831857829E0,-6.979040146E0,-7.510002136E0,2.730410099E-1,1.025581225E1
5.836779673E0,-6.805631161E0,-7.390392780E0,7.999789715E-1,1.007841690E1
5.841701519E0,-6.562985897E0,-7.279582024E0,1.312940955E0,9.888827649E0
5.846623336E0,-6.411406040E0,-7.137191772E0,1.751059055E0,9.752530011E0
5.851545182E0,-6.316719055E0,-6.931465149E0,2.139929056E0,9.619014768E0
5.856467028E0,-6.269085884E0,-6.718265057E0,2.457711935E0,9.511933092E0
5.861388880E0,-6.203876972E0,-6.471366882E0,2.643066883E0,9.346254938E0
5.866310726E0,-6.060141087E0,-6.157485008E0,2.715902090E0,9.056271627E0
5.871232572E0,-5.898078918E0,-5.722338200E0,2.664011002E0,8.638833487E0
5.876154418E0,-5.806889057E0,-5.308330059E0,2.550695896E0,8.270693931E0
5.881076184E0,-5.700695038E0,-4.876946926E0,2.438165903E0,7.888421148E0
5.885997800E0,-5.424271107E0,-4.510159016E0,2.306765079E0,7.421955033E0
5.890919904E0,-4.896181107E0,-4.219453812E0,2.292562008E0,6.858004116E0
5.895841521E0,-4.080763817E0,-4.051888943E0,2.372822046E0,6.220990419E0
5.900763365E0,-3.028297901E0,-3.890822887E0,2.475193977E0,5.516853827E0
5.905685216E0,-1.875674009E0,-3.622313023E0,2.398880005E0,4.732222512E0
5.910607063E0,-6.944400072E-1,-3.255256891E0,2.256409883E0,4.021234874E0
5.915529140E0,5.741580129E-1,-2.869537115E0,2.142304897E0,3.626757636E0
5.920450983E0,1.916924000E0,-2.521073103E0,2.178361893E0,3.843913077E0
5.925372598E0,3.554014921E0,-2.307981014E0,2.483407021E0,4.911731757E0
5.930294442E0,5.784617901E0,-2.213404894E0,3.171299934E0,6.958312206E0
5.935216209E0,8.741094589E0,-2.077327967E0,4.501167774E0,1.004900679E1
5.940138053E0,1.212048912E1,-1.730461001E0,6.568397999E0,1.389404923E1
5.945059899E0,1.566213512E1,-1.213567019E0,8.953793526E0,1.808163820E1
5.949981759E0,1.882310295E1,-3.592599928E-1,1.132344055E1,2.196949199E1
5.954903605E0,2.133391190E1,8.176019788E-1,1.336739922E1,2.518911732E1
5.959825461E0,2.334908676E1,2.213486910E0,1.472015572E1,2.769047420E1
5.964747307E0,2.494020653E1,3.709825039E0,1.532276154E1,2.950531689E1
5.969669154E0,2.618047905E1,4.976033211E0,1.516469383E1,3.066180570E1
5.974591025E0,2.777373505E1,5.201229095E0,1.428884792E1,3.166392770E1
5.979512872E0,3.086165047E1,4.026801109E0,1.318774700E1,3.380197136E1
5.984434718E0,3.451278305E1,2.366169930E0,1.237709141E1,3.674130299E1
5.989356569E0,3.672145462E1,1.694198012E0,1.190102863E1,3.863897021E1
5.994278415E0,3.650477219E1,2.299096107E0,1.184008026E1,3.844569854E1
5.999200012E0,3.439729691E1,3.196218014E0,1.237988663E1,3.669674968E1
6.004121779E0,3.180534744E1,3.218986034E0,1.352672386E1,3.471187485E1
6.009043625E0,3.016912460E1,1.810960054E0,1.488198757E1,3.368871042E1
6.013965528E0,3.014263916E1,-7.240980268E-1,1.589430046E1,3.408418696E1
6.018887377E0,3.087181282E1,-3.295169115E0,1.609619331E1,3.497162286E1
6.023809223E0,3.100856590E1,-5.066665173E0,1.550679684E1,3.503802225E1
6.028730997E0,3.050955963E1,-5.930696011E0,1.406225014E1,3.411382803E1
6.033652841E0,2.925100327E1,-5.943068027E0,1.208684063E1,3.220299623E1
6.038574687E0,2.727618980E1,-5.252363205E0,9.935471535E0,2.950070243E1
6.043496615E0,2.459367561E1,-4.060371876E0,7.791697979E0,2.611601151E1
6.048418464E0,2.129409218E1,-2.507575035E0,5.911612988E0,2.224125586E1
6.053340233E0,1.793379021E1,-1.001953959E0,4.527018070E0,1.852346176E1
6.058262082E0,1.473977566E1,3.204999864E-1,3.644692898E0,1.518708310E1
6.063183928E0,1.173354340E1,1.376152992E0,3.237461090E0,1.224953028E1
6.068105556E0,8.868914604E0,2.261588097E0,3.201858997E0,9.696614255E0
6.073027400E0,5.902527809E0,3.057308912E0,3.178049088E0,7.367969077E0
6.077949246E0,2.997122049E0,3.655448914E0,3.045862913E0,5.623373385E0
6.082871092E0,4.753499925E-1,3.870223999E0,2.771564007E0,4.783947999E0
6.087792938E0,-1.798148036E0,3.700766087E0,2.283139944E0,4.705500398E0
6.092714818E0,-3.907641888E0,3.185554981E0,1.527289987E0,5.267830708E0
6.097636665E0,-5.857326984E0,2.399794102E0,5.425930023E-1,6.353085730E0
6.102558511E0,-7.608542919E0,1.405846000E0,-5.916249752E-1,7.759919358E0
6.107480357E0,-9.174124718E0,3.927620053E-1,-1.857579947E0,9.368534015E0
6.112402203E0,-1.063754845E1,-6.635360122E-1,-3.239763975E0,1.113973912E1
6.117324049E0,-1.180947495E1,-1.779374957E0,-4.472276211E0,1.275269102E1
6.122245890E0,-1.253686142E1,-3.066378117E0,-5.288570881E0,1.394792282E1
6.127167736E0,-1.280054855E1,-4.435507774E0,-5.817831039E0,1.474364034E1
6.132089498E0,-1.271084595E1,-5.763488770E0,-6.170986176E0,1.525989770E1
6.137011342E0,-1.222801590E1,-7.214223862E0,-6.127572060E0,1.546339349E1
6.141932959E0,-1.130651283E1,-8.634243965E0,-5.629203796E0,1.529952080E1
6.146855039E0,-1.032701492E1,-9.905961037E0,-4.959217072E0,1.514493761E1
6.151776657E0,-9.511857033E0,-1.084993553E1,-4.181338787E0,1.502265354E1
6.156698501E0,-9.099260330E0,-1.134273720E1,-3.466869116E0,1.494902696E1
6.161620568E0,-9.101170540E0,-1.134836388E1,-2.921422958E0,1.483749911E1
6.166542416E0,-9.339448929E0,-1.098496532E1,-2.477235079E0,1.462981419E1
6.171464262E0,-9.496350288E0,-1.038337135E1,-2.063569069E0,1.422158172E1
6.176386113E0,-9.503027916E0,-9.698485374E0,-1.604128957E0,1.367265109E1
6.181307959E0,-9.386125565E0,-8.910781860E0,-9.700080156E-1,1.297853235E1
6.186229575E0,-9.165039062E0,-8.060812950E0,-1.887309998E-1,1.220697611E1
6.191151410E0,-8.854880333E0,-7.318194866E0,7.613790035E-1,1.151280069E1
6.196073256E0,-8.514632225E0,-6.600564003E0,1.853659034E0,1.093171802E1
6.200995007E0,-8.146602631E0,-5.939545155E0,2.910232067E0,1.049355906E1
6.205916852E0,-7.683366776E0,-5.426983833E0,3.798243999E0,1.014460132E1
6.210838708E0,-7.251513958E0,-5.085221767E0,4.434748173E0,9.905095985E0
6.215760554E0,-6.757602215E0,-4.926634789E0,4.778251171E0,9.631645876E0
6.220682400E0,-6.199288845E0,-4.939302921E0,4.776281834E0,9.254229503E0
6.225604036E0,-5.677266121E0,-5.036746979E0,4.485313892E0,8.815793297E0
6.230526188E0,-5.249024868E0,-5.074946880E0,3.900547028E0,8.277778387E0
6.235447960E0,-4.895312786E0,-5.125373840E0,3.188107014E0,7.771587393E0
6.240369801E0,-4.518074989E0,-5.206608772E0,2.476167917E0,7.324833382E0
6.245291647E0,-4.227662086E0,-5.370716095E0,1.907026052E0,7.096088109E0
6.250213493E0,-3.935769081E0,-5.595611095E0,1.457137942E0,6.994597399E0
6.255135118E0,-3.776200056E0,-5.831575871E0,1.067059040E0,7.028910228E0
6.260056963E0,-3.660897017E0,-5.974875927E0,7.594389915E-1,7.048266233E0
6.264978799E0,-3.684336901E0,-6.029726982E0,5.519599915E-1,7.087778616E0
6.269900645E0,-3.835633993E0,-5.964501858E0,4.641779959E-1,7.106534440E0
6.274822491E0,-4.104227066E0,-5.826257229E0,4.981299937E-1,7.144094526E0
6.279744246E0,-4.331953049E0,-5.680154800E0,6.224460006E-1,7.170593755E0
6.284666090E0,-4.611547947E0,-5.517864227E0,8.683230281E-1,7.243423568E0
6.289587937E0,-4.915655136E0,-5.338653088E0,1.123082995E0,7.343445896E0
6.294509788E0,-5.291276932E0,-5.180010796E0,1.399999976E0,7.535922196E0
6.299431711E0,-5.613462925E0,-5.023549080E0,1.592113018E0,7.699469802E0
6.304353482E0,-5.969750881E0,-4.858883858E0,1.643301010E0,7.870649029E0
6.309275336E0,-6.210033894E0,-4.718634129E0,1.622794032E0,7.966397521E0
6.314197259E0,-6.386944771E0,-4.683386803E0,1.499043941E0,8.060664252E0
6.319118795E0,-6.602323055E0,-4.647036076E0,1.248759031E0,8.169762122E0
6.324040639E0,-6.834011078E0,-4.644094944E0,9.140080214E-1,8.313046128E0
6.328962475E0,-7.025924206E0,-4.633080006E0,5.789520144E-1,8.435889207E0
6.333884321E0,-7.224337101E0,-4.637938976E0,2.192569971E-1,8.587758621E0
6.338806168E0,-7.391004086E0,-4.629705906E0,-1.164560020E-1,8.722080037E0
6.343728259E0,-7.438969135E0,-4.637051105E0,-4.360829890E-1,8.776711977E0
6.348649877E0,-7.382446766E0,-4.628861904E0,-7.941349745E-1,8.749716175E0
6.353571721E0,-7.364623070E0,-4.551340103E0,-1.095101953E0,8.726489442E0
6.358493567E0,-7.442408085E0,-4.441873074E0,-1.293076992E0,8.763088646E0
6.363415413E0,-7.585069180E0,-4.283898830E0,-1.400339961E0,8.823038913E0
6.368337265E0,-7.710409164E0,-4.078545094E0,-1.377233028E0,8.830725360E0
6.373259111E0,-7.756898880E0,-3.906315088E0,-1.218798995E0,8.770076898E0
6.378180957E0,-7.696544170E0,-3.783477068E0,-8.789370060E-1,8.621138043E0
6.383102723E0,-7.474177837E0,-3.662652016E0,-4.124880135E-1,8.333576693E0
6.388024339E0,-7.232896805E0,-3.499686003E0,7.212699950E-2,8.035409175E0
6.392946413E0,-7.085259914E0,-3.267225981E0,6.131219864E-1,7.826339645E0
6.397868344E0,-6.977194786E0,-3.057507038E0,1.097502947E0,7.696369864E0
6.402789882E0,-6.903683186E0,-2.803503036E0,1.509232044E0,7.602516173E0
6.407711726E0,-6.750192165E0,-2.525578976E0,1.776093960E0,7.422813024E0
6.412633572E0,-6.422787189E0,-2.353641033E0,1.912621975E0,7.102812416E0
6.417555418E0,-6.096098900E0,-2.074307919E0,1.951990962E0,6.728702984E0
6.422477265E0,-5.751640797E0,-1.736695051E0,1.833341956E0,6.281610007E0
6.427399342E0,-5.223061085E0,-1.463412046E0,1.672170043E0,5.676098534E0
6.432321190E0,-4.591265202E0,-1.278504968E0,1.409450054E0,4.969994020E0
6.437243021E0,-3.892640114E0,-1.060408950E0,1.184046030E0,4.204649712E0
6.442164636E0,-3.175291061E0,-8.986399770E-1,9.308030009E-1,3.428763824E0
6.447086475E0,-2.332221031E0,-8.571370244E-1,7.992900014E-1,2.610134733E0
6.452008322E0,-1.037902951E0,-9.738270044E-1,8.386420012E-1,1.651938854E0
6.456930168E0,8.101710081E-1,-1.054252982E0,1.105762959E0,1.729317245E0
6.461851935E0,2.995311022E0,-1.102262974E0,1.899222016E0,3.714016162E0
6.466773779E0,5.532424927E0,-1.262020946E0,3.187650919E0,6.508574408E0
6.471695625E0,8.275799751E0,-1.600559950E0,4.449016094E0,9.531232758E0
6.476617552E0,1.098452663E1,-1.847903967E0,5.539462090E0,1.244026586E1
6.481539324E0,1.369666290E1,-2.014837027E0,6.527482033E0,1.530575593E1
6.486461178E0,1.658863640E1,-1.984437943E0,7.336598873E0,1.824682259E1
6.491383024E0,1.951866913E1,-1.715077996E0,7.880411148E0,2.111920493E1
6.496304870E0,2.219694710E1,-1.053182006E0,8.202379227E0,2.368739491E1
6.501226721E0,2.417624474E1,-8.067099750E-2,8.427448273E0,2.560310922E1
6.506148568E0,2.522833633E1,1.078364015E0,8.630125046E0,2.668540578E1
6.511070161E0,2.613635063E1,1.826815963E0,8.732090950E0,2.761694214E1
6.515992005E0,2.827442551E1,1.208652973E0,8.861341476E0,2.965514041E1
6.520913842E0,3.192287064E1,-6.093800068E-1,9.325038910E0,3.326255198E1
6.525835688E0,3.541222000E1,-2.371880054E0,9.988354683E0,3.687029115E1
6.530757460E0,3.687862778E1,-2.940375090E0,1.091000748E1,3.857080833E1
6.535679304E0,3.573970413E1,-2.233505964E0,1.204549599E1,3.778106634E1
6.540601227E0,3.307830811E1,-1.150244951E0,1.328588772E1,3.566528204E1
6.545522984E0,3.045861626E1,-7.890369892E-1,1.442355156E1,3.371036522E1
6.550444828E0,2.892717552E1,-1.590338945E0,1.558136368E1,3.289512967E1
6.555366751E0,2.899751091E1,-3.355509996E0,1.655317497E1,3.355775153E1
6.560288585E0,2.951811218E1,-5.491479874E0,1.702588081E1,3.451602404E1
6.565210354E0,2.997369766E1,-7.347617149E0,1.691387939E1,3.519217733E1
6.570132198E0,3.022011757E1,-8.802398682E0,1.608212852E1,3.534646498E1
6.575053796E0,2.989521027E1,-9.560009956E0,1.485953712E1,3.472640538E1
6.579975641E0,2.874619293E1,-9.328609467E0,1.336338615E1,3.304461608E1
6.584897703E0,2.658341599E1,-8.049418449E0,1.160209084E1,3.010115703E1
6.589819551E0,2.340553284E1,-5.947069168E0,9.688435555E0,2.602023026E1
6.594741166E0,1.973300934E1,-3.579298973E0,7.770605087E0,2.150779724E1
6.599663006E0,1.607790756E1,-1.565197945E0,6.082098961E0,1.726096417E1
6.604584852E0,1.237809563E1,-8.623600006E-2,4.543728828E0,1.318598345E1
6.609506699E0,8.739929199E0,1.096462965E0,3.161077976E0,9.358472494E0
6.614428771E0,5.405754089E0,2.023658037E0,1.943907022E0,6.090660361E0
6.619350388E0,2.408396006E0,2.668432951E0,9.445610046E-1,3.716598072E0
6.624272232E0,-1.829279959E-1,2.907083988E0,1.706909984E-1,2.917830595E0
6.629194083E0,-2.527766943E0,2.767787933E0,-5.033540130E-1,3.782012827E0
6.634115929E0,-4.729155064E0,2.337555885E0,-1.162556052E0,5.401908154E0
6.639037705E0,-6.679915905E0,1.579686046E0,-1.707852960E0,7.073432422E0
6.643959549E0,-8.333271980E0,5.586869717E-1,-2.056926966E0,8.601540651E0
6.648881386E0,-9.671366692E0,-6.391360164E-1,-2.261998892E0,9.952912514E0
6.653803232E0,-1.085845470E1,-1.958469987E0,-2.330719948E0,1.127714054E1
6.658725058E0,-1.166634560E1,-3.427798033E0,-2.323496103E0,1.237950133E1
6.663646904E0,-1.207292747E1,-4.989538193E0,-2.240823030E0,1.325414490E1
6.668568751E0,-1.212339401E1,-6.533470154E0,-2.065975904E0,1.392591724E1
6.673490388E0,-1.190855789E1,-8.064514160E0,-1.802996993E0,1.449485901E1
6.678412232E0,-1.151916885E1,-9.484856606E0,-1.405794024E0,1.498766202E1
6.683334309E0,-1.100260544E1,-1.075693989E1,-9.886100292E-1,1.541902824E1
6.688256156E0,-1.048560429E1,-1.172444820E1,-5.310109854E-1,1.573825135E1
6.693178002E0,-1.015586853E1,-1.235859299E1,-1.904779971E-1,1.599727377E1
6.698099840E0,-9.956985474E0,-1.258247375E1,-2.394939959E-1,1.604735377E1
6.703021455E0,-9.935658455E0,-1.237843513E1,-6.882920265E-1,1.588762762E1
6.707943222E0,-1.014111900E1,-1.193908024E1,-1.406502008E0,1.572775189E1
6.712865145E0,-1.046983337E1,-1.128583145E1,-2.361659050E0,1.557449312E1
6.717786931E0,-1.072097015E1,-1.056274509E1,-3.273935080E0,1.540225425E1
6.722708852E0,-1.073446655E1,-9.894104958E0,-3.926678896E0,1.511756899E1
6.727630623E0,-1.048478413E1,-9.281332970E0,-4.162301064E0,1.460816861E1
6.732552496E0,-1.017754936E1,-8.755655289E0,-4.084746838E0,1.403314531E1
6.737474342E0,-9.876638412E0,-8.310400963E0,-3.736917973E0,1.343783117E1
6.742396265E0,-9.572577477E0,-7.971506119E0,-3.287883043E0,1.288368442E1
6.747318143E0,-9.245667458E0,-7.653142929E0,-2.765222073E0,1.231663170E1
6.752239989E0,-8.878963470E0,-7.362398148E0,-2.263674021E0,1.175436595E1
6.757161758E0,-8.518801689E0,-7.067707062E0,-1.752531052E0,1.120686533E1
6.762083597E0,-8.124297142E0,-6.771652222E0,-1.280156016E0,1.065355703E1
6.767005443E0,-7.649942875E0,-6.447910786E0,-8.226649761E-1,1.003862327E1
6.771927289E0,-7.238655090E0,-6.131524086E0,-3.305290043E-1,9.492258138E0
6.776848907E0,-6.937287807E0,-5.904430866E0,1.669030041E-1,9.111318378E0
6.781771014E0,-6.497454166E0,-5.737806797E0,6.443309784E-1,8.692209149E0
6.786692631E0,-5.981038094E0,-5.694015026E0,1.011975050E0,8.319778681E0
6.791614475E0,-5.520367146E0,-5.714988232E0,1.346690059E0,8.059101564E0
6.796536257E0,-5.147326946E0,-5.697303772E0,1.564769030E0,7.835990498E0
6.801458178E0,-4.951828957E0,-5.637451172E0,1.596693993E0,7.671433858E0
6.806380026E0,-4.832631111E0,-5.512540817E0,1.501507998E0,7.483111384E0
6.811301877E0,-4.788880825E0,-5.345328808E0,1.380041003E0,7.308244166E0
6.816223723E0,-4.817782879E0,-5.160664082E0,1.150388956E0,7.153102850E0
6.821145569E0,-4.983107090E0,-5.005246162E0,9.218209982E-1,7.122752233E0
6.826067311E0,-5.188875198E0,-4.884386063E0,6.946719885E-1,7.159903785E0
6.830989155E0,-5.360880852E0,-4.798148155E0,5.425869823E-1,7.214961529E0
6.835910772E0,-5.522767067E0,-4.708803177E0,4.104839861E-1,7.269269601E0
6.840832847E0,-5.710652828E0,-4.652126789E0,2.671769857E-1,7.370564627E0
6.845754477E0,-5.958052158E0,-4.630700111E0,8.652900159E-2,7.546473104E0
6.850676322E0,-6.231737137E0,-4.646872997E0,-1.372189969E-1,7.774754366E0
6.855598168E0,-6.518723965E0,-4.647519112E0,-3.732939959E-1,8.014520848E0
6.860520014E0,-6.772949219E0,-4.639213085E0,-6.217690110E-1,8.232966408E0
6.865441860E0,-7.018077850E0,-4.578773975E0,-8.516600132E-1,8.422820941E0
6.870363937E0,-7.186367035E0,-4.529180050E0,-1.093109012E0,8.564591665E0
6.875285780E0,-7.375391960E0,-4.464389801E0,-1.324172020E0,8.722420215E0
6.880207396E0,-7.534448147E0,-4.372858047E0,-1.565871000E0,8.851087412E0
6.885129240E0,-7.707992077E0,-4.327733994E0,-1.770472050E0,9.015375458E0
6.890051086E0,-7.804456234E0,-4.308600903E0,-1.927109957E0,9.120708943E0
6.894972857E0,-7.897067070E0,-4.284933090E0,-1.995831013E0,9.203676511E0
6.899894692E0,-8.003627777E0,-4.210195065E0,-2.029021025E0,9.268264476E0
6.904816539E0,-8.118344307E0,-4.133253098E0,-1.978543043E0,9.322334902E0
6.909738404E0,-8.204190254E0,-4.014646053E0,-1.830706954E0,9.315449995E0
6.914660250E0,-8.238638878E0,-3.884356976E0,-1.524930000E0,9.235194160E0
6.919582096E0,-8.254886627E0,-3.759763002E0,-1.113507032E0,9.138865847E0
6.924503708E0,-8.197008133E0,-3.615282059E0,-6.857630014E-1,8.985069704E0
6.929425783E0,-7.986712933E0,-3.519242048E0,-2.347840071E-1,8.730851711E0
6.934347708E0,-7.734156132E0,-3.459836960E0,2.707870007E-1,8.477084903E0
6.939269450E0,-7.475139141E0,-3.408632994E0,7.765550017E-1,8.252243436E0
6.944191294E0,-7.142859936E0,-3.336608887E0,1.298979998E0,7.990041049E0
6.949113140E0,-6.794877052E0,-3.248514891E0,1.682489038E0,7.717122036E0
6.954034743E0,-6.389625072E0,-3.075678110E0,1.823961973E0,7.322154170E0
6.958956588E0,-5.922862053E0,-2.793617010E0,1.694599986E0,6.764337367E0
6.963878439E0,-5.313759804E0,-2.471143007E0,1.429324985E0,6.032044506E0
6.968800210E0,-4.451911926E0,-2.165663958E0,1.099151969E0,5.071267615E0
6.973722073E0,-3.470891953E0,-1.830499053E0,8.003110290E-1,4.004786570E0
6.978643996E0,-2.401470900E0,-1.399680018E0,4.776189923E-1,2.820334473E0
6.983565844E0,-1.046679974E0,-1.082101941E0,3.207060099E-1,1.539264734E0
6.988487595E0,7.701060176E-1,-1.034749031E0,4.285599887E-1,1.359202891E0
6.993409439E0,2.941407919E0,-1.286355019E0,8.367159963E-1,3.317632204E0
6.998331362E0,5.507362843E0,-1.819357038E0,1.465209007E0,5.982302479E0
7.003253205E0,8.329311371E0,-2.672195911E0,2.496803999E0,9.096817527E0
7.008175051E0,1.133936310E1,-3.571314096E0,3.877504110E0,1.250481819E1
7.013096897E0,1.436641979E1,-4.151969910E0,5.327613831E0,1.587502255E1
7.018018652E0,1.740623474E1,-4.202318192E0,6.740263939E0,1.913289429E1
7.022940496E0,2.052754402E1,-3.633974075E0,7.926784992E0,2.230290904E1
7.027862123E0,2.325897789E1,-2.434978962E0,8.739951134E0,2.496589515E1
7.032783967E0,2.522271729E1,-7.923340201E-1,9.172349930E0,2.685042390E1
7.037705843E0,2.645345688E1,1.050734043E0,9.438089371E0,2.810635077E1
7.042627689E0,2.753438568E1,2.567858934E0,9.511135101E0,2.924376831E1
7.047549535E0,2.960291290E1,2.826977968E0,9.554898262E0,3.123492176E1
7.052471385E0,3.306993866E1,1.646790981E0,9.900788307E0,3.455949034E1
7.057393231E0,3.651303101E1,1.595799997E-2,1.043714142E1,3.797546061E1
7.062315077E0,3.820427322E1,-1.015823960E0,1.115572357E1,3.981266833E1
7.067236933E0,3.739165497E1,-1.131062984E0,1.210742378E1,3.931926850E1
7.072158780E0,3.441414642E1,-6.370739937E-1,1.303675747E1,3.680620033E1
7.077080627E0,3.091338348E1,-3.080689907E-1,1.376400375E1,3.384050804E1
7.082002468E0,2.905844879E1,-1.035894990E0,1.445887756E1,3.247346093E1
7.086924314E0,2.906656647E1,-2.855015039E0,1.502013779E1,3.284236496E1
7.091846073E0,2.974685860E1,-5.023853779E0,1.555401039E1,3.394174336E1
7.096767995E0,3.054309082E1,-7.104833126E0,1.528274918E1,3.488440157E1
7.101689766E0,3.095557022E1,-8.870828629E0,1.423974609E1,3.520950578E1
7.106611707E0,3.064513016E1,-9.830252647E0,1.276685715E1,3.462297663E1
7.111533478E0,2.924007797E1,-9.680548668E0,1.102131081E1,3.271336843E1
7.116455093E0,2.675871658E1,-8.397910118E0,8.805235863E0,2.939533953E1
7.121376928E0,2.348756599E1,-6.344932079E0,6.455417156E0,2.517133946E1
7.126299005E0,1.988306427E1,-4.148101807E0,4.416460991E0,2.078576727E1
7.131220853E0,1.583546638E1,-2.137705088E0,2.665646076E0,1.619992122E1
7.136142675E0,1.154559517E1,-4.669489861E-1,1.354994059E0,1.163420896E1
7.141064521E0,7.676698208E0,7.852410078E-1,5.025219917E-1,7.733099454E0
7.145986121E0,4.609938145E0,1.486158967E0,2.918559909E-1,4.852357993E0
7.150907966E0,2.221283913E0,1.791533947E0,4.319899976E-1,2.886227895E0
7.155829718E0,9.103299677E-2,1.834614038E0,5.282520056E-1,1.911320449E0
7.160751639E0,-1.842759013E0,1.616219044E0,4.009850025E-1,2.483689544E0
7.165673497E0,-3.660491943E0,1.088346958E0,8.950400352E-2,3.819909860E0
7.170595266E0,-5.351100922E0,3.479020000E-1,-3.964869976E-1,5.377036248E0
7.175517111E0,-6.971213818E0,-5.812410116E-1,-9.157760143E-1,7.055090993E0
7.180438956E0,-8.488849640E0,-1.579424024E0,-1.356421947E0,8.740424987E0
7.185360802E0,-9.716482162E0,-2.668242931E0,-1.743255019E0,1.022587326E1
7.190282648E0,-1.063911343E1,-3.763916016E0,-2.134713888E0,1.148541691E1
7.195204519E0,-1.122004795E1,-5.027256012E0,-2.505361080E0,1.254749430E1
7.200126365E0,-1.153746605E1,-6.253006935E0,-2.793503046E0,1.341703685E1
7.205048212E0,-1.173400021E1,-7.360789776E0,-3.037817955E0,1.418084359E1
7.209970049E0,-1.190158653E1,-8.294690132E0,-3.188376904E0,1.485312740E1
7.214891665E0,-1.203773117E1,-9.071729660E0,-3.216711998E0,1.541267293E1
7.219813494E0,-1.205469513E1,-9.759636879E0,-3.231482029E0,1.584325291E1
7.224735571E0,-1.202384281E1,-1.034991837E1,-3.277734041E0,1.619991193E1
7.229657194E0,-1.193015385E1,-1.079585648E1,-3.345097065E0,1.643376896E1
7.234579038E0,-1.174663544E1,-1.108167553E1,-3.378096104E0,1.649843962E1
7.239500884E0,-1.154893875E1,-1.123723984E1,-3.348221064E0,1.645795035E1
7.244422706E0,-1.132754612E1,-1.131326008E1,-3.169318914E0,1.632016351E1
7.249344552E0,-1.110219383E1,-1.133666801E1,-2.886316061E0,1.612791276E1
7.254266398E0,-1.085022736E1,-1.122961044E1,-2.572017908E0,1.582551296E1
7.259188240E0,-1.060406113E1,-1.101963520E1,-2.269624949E0,1.546058439E1
7.264110086E0,-1.030919075E1,-1.060843945E1,-2.053915977E0,1.493442239E1
7.269031932E0,-9.929159164E0,-1.008880424E1,-1.888803959E0,1.428074764E1
7.273953679E0,-9.511664391E0,-9.515226364E0,-1.713783979E0,1.356275591E1
7.278875523E0,-9.052657127E0,-8.977746010E0,-1.448292971E0,1.283152668E1
7.283797360E0,-8.600317955E0,-8.444688797E0,-1.120610952E0,1.210512316E1
7.288719284E0,-8.200796127E0,-7.962491989E0,-6.878640056E-1,1.145109133E1
7.293641055E0,-7.821853161E0,-7.489820957E0,-2.179459929E-1,1.083172679E1
7.298562899E0,-7.395803928E0,-7.044044018E0,2.164320052E-1,1.021583647E1
7.303484516E0,-6.923778057E0,-6.655834198E0,5.869839787E-1,9.622025860E0
7.308406567E0,-6.522204876E0,-6.320357800E0,8.566880226E-1,9.122499303E0
7.313328185E0,-6.214735985E0,-5.966465950E0,9.727889895E-1,8.669946811E0
7.318250260E0,-5.966197014E0,-5.636845112E0,9.385759830E-1,8.261383328E0
7.323172113E0,-5.715353966E0,-5.331037045E0,7.617700100E-1,7.852739679E0
7.328093959E0,-5.492016792E0,-5.091597080E0,4.759689867E-1,7.504209202E0
7.333015805E0,-5.305810928E0,-4.904487133E0,2.032960057E-1,7.228205373E0
7.337937435E0,-5.142197132E0,-4.744091988E0,-7.214300334E-2,6.996699561E0
7.342859202E0,-5.055514812E0,-4.616288185E0,-3.200019896E-1,6.853520840E0
7.347781058E0,-5.087637901E0,-4.520174026E0,-5.087000132E-1,6.824573858E0
7.352702981E0,-5.176637173E0,-4.496251106E0,-6.765850186E-1,6.889964711E0
7.357624757E0,-5.344530106E0,-4.418072224E0,-8.301370144E-1,6.983730499E0
7.362546601E0,-5.461976051E0,-4.328709126E0,-9.107130170E-1,7.028534931E0
7.367468448E0,-5.541247845E0,-4.235043049E0,-9.733080268E-1,7.041899305E0
7.372390284E0,-5.563896179E0,-4.164712906E0,-8.870049715E-1,7.006322295E0
7.377312130E0,-5.627776146E0,-4.220709801E0,-7.462469935E-1,7.074117623E0
7.382233976E0,-5.713020802E0,-4.255671978E0,-5.432680249E-1,7.144542729E0
7.387155817E0,-5.923194885E0,-4.285980225E0,-3.472230136E-1,7.319455441E0
7.392077663E0,-6.140839100E0,-4.325960159E0,-1.737920046E-1,7.513590341E0
7.396999510E0,-6.344357014E0,-4.345012188E0,-1.040119976E-1,7.690306582E0
7.401921328E0,-6.517384052E0,-4.369363785E0,-1.231520027E-1,7.847471006E0
7.406842944E0,-6.683351994E0,-4.378890038E0,-2.692750096E-1,7.994647013E0
7.411764783E0,-6.849087238E0,-4.396206856E0,-4.874399900E-1,8.153172908E0
7.416686860E0,-7.025539875E0,-4.396088123E0,-6.739720106E-1,8.314928719E0
7.421608723E0,-7.163795948E0,-4.412663937E0,-8.695639968E-1,8.458588354E0
7.426530570E0,-7.304860115E0,-4.385263920E0,-1.056939006E0,8.585373667E0
7.431452108E0,-7.481812000E0,-4.301188946E0,-1.166932940E0,8.708585973E0
7.436373966E0,-7.619540215E0,-4.217693806E0,-1.242737055E0,8.797200095E0
7.441295889E0,-7.666463852E0,-4.207046986E0,-1.230061054E0,8.831022734E0
7.446217737E0,-7.665822029E0,-4.259080887E0,-1.129412055E0,8.841955042E0
7.451139589E0,-7.608926773E0,-4.279287815E0,-1.023100972E0,8.789471340E0
7.456061435E0,-7.553359985E0,-4.214855194E0,-9.333819747E-1,8.699968580E0
7.460983266E0,-7.418677807E0,-4.090923786E0,-7.704650164E-1,8.506823977E0
7.465905035E0,-7.156757832E0,-3.907692909E0,-5.886570215E-1,8.175314283E0
7.470826889E0,-6.809774876E0,-3.682979107E0,-3.453029990E-1,7.749619547E0
7.475748736E0,-6.468863964E0,-3.479270935E0,-1.053429991E-1,7.345925699E0
7.480670329E0,-6.138354778E0,-3.223212004E0,7.069300115E-2,6.933505066E0
7.485592173E0,-5.900296211E0,-2.948034048E0,1.492130011E-1,6.597474111E0
7.490514250E0,-5.683845043E0,-2.659796953E0,2.184710056E-1,6.279199303E0
7.495435882E0,-5.300134182E0,-2.407676935E0,3.798950016E-1,5.833751005E0
7.500357727E0,-4.715569019E0,-2.225625038E0,6.628299952E-1,5.256362011E0
7.505279597E0,-3.861665010E0,-2.125144005E0,1.139032006E0,4.552591307E0
7.510201674E0,-2.811738014E0,-2.038031101E0,1.717921019E0,3.874363697E0
7.515123522E0,-1.612149000E0,-1.991557002E0,2.394710064E0,3.507129878E0
7.520045383E0,-1.214369982E-1,-2.063150883E0,3.121193886E0,3.743419531E0
7.524967229E0,1.788383961E0,-2.418993950E0,3.709748030E0,4.776199259E0
7.529888845E0,4.022388935E0,-2.894323111E0,4.273490906E0,6.543656740E0
7.534810674E0,6.784687996E0,-3.410388947E0,4.617927074E0,8.887519026E0
7.539732445E0,1.000642014E1,-3.973170042E0,5.164754868E0,1.194107269E1
7.544654294E0,1.344267464E1,-4.338911057E0,5.565536022E0,1.518245177E1
7.549576140E0,1.698544312E1,-4.564477921E0,5.821125984E0,1.852633920E1
7.554497987E0,2.041906738E1,-4.450735092E0,5.949957848E0,2.172899800E1
7.559419843E0,2.347263718E1,-3.904073000E0,5.890907764E0,2.451345093E1
7.564341689E0,2.596166801E1,-2.728701115E0,6.070865154E0,2.680129511E1
7.569263535E0,2.785795403E1,-1.151224017E0,6.406854153E0,2.860836765E1
7.574185380E0,2.921321869E1,3.827779889E-1,6.647484779E0,2.996243847E1
7.579107303E0,3.084095383E1,1.017660975E0,6.862040997E0,3.161151172E1
7.584029151E0,3.384386063E1,3.747409880E-1,7.298311234E0,3.462387442E1
7.588950912E0,3.762909698E1,-8.799459934E-1,8.264098167E0,3.853593859E1
7.593872527E0,4.017931366E1,-1.360162020E0,9.757980347E0,4.136962010E1
7.598794366E0,4.005594635E1,-4.342469871E-1,1.163913059E1,4.171494659E1
7.603716212E0,3.707186890E1,1.203917980E0,1.345353031E1,3.945592934E1
7.608638054E0,3.294992828E1,2.316077948E0,1.494650269E1,3.625548143E1
7.613559900E0,2.971201706E1,1.891098022E0,1.595156097E1,3.377621215E1
7.618481746E0,2.810144806E1,-6.215099990E-2,1.652020073E1,3.259773424E1
7.623403607E0,2.831109619E1,-2.871148109E0,1.658506775E1,3.293669885E1
7.628325378E0,2.954974174E1,-5.889056206E0,1.630914116E1,3.426158644E1
7.633247299E0,3.063352585E1,-8.480739594E0,1.520425415E1,3.523499956E1
7.638169143E0,3.074566650E1,-1.019826698E1,1.312503910E1,3.495092716E1
7.643090989E0,2.960870743E1,-1.079973888E1,1.032258224E1,3.316422198E1
7.648012835E0,2.742110062E1,-1.014453411E1,7.512041092E0,3.018706830E1
7.652934652E0,2.428347397E1,-8.478362083E0,4.968642235E0,2.619651002E1
7.657856421E0,2.046564293E1,-6.311540127E0,3.083472967E0,2.163760349E1
7.662778270E0,1.624491882E1,-4.124020100E0,2.197027922E0,1.690360497E1
7.667700117E0,1.195069504E1,-2.225122929E0,2.079771996E0,1.233270998E1
7.672621748E0,8.227853775E0,-7.071139812E-1,2.368809938E0,8.591207625E0
7.677543823E0,5.117047787E0,4.299390018E-1,2.971714973E0,5.932968522E0
7.682465440E0,2.492770910E0,1.174196959E0,3.529491901E0,4.477717989E0
7.687387319E0,2.215970010E-1,1.637814045E0,3.679940939E0,4.034043306E0
7.692309165E0,-1.939079046E0,1.806996942E0,3.240485907E0,4.186408294E0
7.697231242E0,-4.114953995E0,1.546242952E0,2.341075897E0,4.980396571E0
7.702153079E0,-6.090527058E0,9.670270085E-1,1.077072978E0,6.260171505E0
7.707074925E0,-7.391179085E0,-6.333599985E-2,-1.783500016E-1,7.393601858E0
7.711996762E0,-8.703395844E0,-1.366860032E0,-9.950050116E-1,8.866083720E0
7.716918608E0,-1.030385399E1,-2.189908981E0,-2.001452923E0,1.072244945E1
7.721840224E0,-1.137616920E1,-3.144097090E0,-3.296103001E0,1.225425915E1
7.726761948E0,-1.213470078E1,-4.461535931E0,-4.301143169E0,1.362556782E1
7.731683871E0,-1.244747066E1,-5.743288994E0,-5.637694836E0,1.482256717E1
7.736605676E0,-1.237261772E1,-6.989375114E0,-6.855758190E0,1.577765680E1
7.741527522E0,-1.200235653E1,-8.198403358E0,-7.708306789E0,1.645260993E1
7.746449292E0,-1.161419010E1,-9.307906151E0,-8.247566223E0,1.701613579E1
7.751371145E0,-1.121482086E1,-1.034162521E1,-8.521175385E0,1.747374742E1
7.756292991E0,-1.091960144E1,-1.121024036E1,-8.647755623E0,1.787990106E1
7.761214837E0,-1.065340805E1,-1.179403114E1,-8.646627426E0,1.809304948E1
7.766136688E0,-1.058360195E1,-1.208793259E1,-8.497429848E0,1.817517699E1
7.771058611E0,-1.058762646E1,-1.205591011E1,-8.127153397E0,1.798592297E1
7.775980460E0,-1.064309692E1,-1.175554466E1,-7.477542877E0,1.753231274E1
7.780902215E0,-1.072029495E1,-1.131631947E1,-6.596224785E0,1.692613339E1
7.785823830E0,-1.061014175E1,-1.078381824E1,-5.535604954E0,1.610927578E1
7.790745664E0,-1.028555489E1,-1.017490864E1,-4.276557922E0,1.508676084E1
7.795667510E0,-9.760297775E0,-9.559036255E0,-2.939243078E0,1.397418107E1
7.800589367E0,-9.103427887E0,-8.964826584E0,-1.584172964E0,1.287439781E1
7.805511213E0,-8.415303230E0,-8.428030014E0,-3.196600080E-1,1.191432755E1
7.810433059E0,-7.681581020E0,-7.879076958E0,7.950009704E-1,1.103261380E1
7.815354919E0,-7.040727139E0,-7.265738964E0,1.826477051E0,1.028099313E1
7.820276690E0,-6.350914955E0,-6.655522823E0,2.680629015E0,9.582060151E0
7.825198535E0,-5.551527977E0,-6.101655006E0,3.205724001E0,8.850215990E0
7.830120458E0,-4.802398205E0,-5.618923187E0,3.449299097E0,8.156775746E0
7.835042306E0,-4.203268051E0,-5.157746792E0,3.447818995E0,7.493815457E0
7.839964152E0,-3.865634918E0,-4.711956024E0,3.245784998E0,6.905127309E0
7.844885984E0,-3.694895029E0,-4.266036987E0,2.878439903E0,6.335356117E0
7.849807753E0,-3.648971081E0,-3.898153067E0,2.290608883E0,5.810118444E0
7.854729612E0,-3.592652082E0,-3.612230062E0,1.501870036E0,5.311399873E0
7.859651458E0,-3.572969913E0,-3.457621098E0,5.082740188E-1,4.997959597E0
7.864573080E0,-3.646975994E0,-3.375823021E0,-5.545809865E-1,5.000417487E0
7.869495155E0,-3.661815882E0,-3.367657900E0,-1.598544002E0,5.225452919E0
7.874416772E0,-3.697290897E0,-3.443183899E0,-2.574095964E0,5.670224455E0
7.879338622E0,-3.687855959E0,-3.563143969E0,-3.290407896E0,6.092869655E0
7.884260468E0,-3.455243111E0,-3.750940084E0,-3.682658911E0,6.290487511E0
7.889182314E0,-3.234391928E0,-3.919162989E0,-3.799573898E0,6.344910676E0
7.894104391E0,-3.242001057E0,-4.073062897E0,-3.676762104E0,6.373303051E0
7.899026239E0,-3.388745070E0,-4.219367981E0,-3.301359892E0,6.339214182E0
7.903947854E0,-3.644069910E0,-4.317644119E0,-2.724700928E0,6.272582514E0
7.908869933E0,-4.069800854E0,-4.409954071E0,-2.051325083E0,6.341837943E0
7.913791551E0,-4.510713100E0,-4.518462181E0,-1.393437982E0,6.534883516E0
7.918713395E0,-5.039497852E0,-4.598314762E0,-8.186470270E-1,6.871042149E0
7.923635166E0,-5.521597862E0,-4.723677158E0,-3.612279892E-1,7.275414387E0
7.928557097E0,-5.845131874E0,-4.879817009E0,-5.308699980E-2,7.614525520E0
7.933478868E0,-6.025386810E0,-5.049726009E0,9.520000219E-2,7.862193207E0
7.938400785E0,-6.268253803E0,-5.210237026E0,6.974000018E-3,8.150927815E0
7.943322631E0,-6.515988827E0,-5.363068104E0,-3.400459886E-1,8.446078448E0
7.948244477E0,-6.661664009E0,-5.537666798E0,-7.737039924E-1,8.697248921E0
7.953166323E0,-6.434247971E0,-5.741267204E0,-1.461665988E0,8.746322857E0
7.958088169E0,-6.532619953E0,-5.880149841E0,-1.909695029E0,8.994343818E0
7.963010015E0,-7.243006229E0,-5.979946136E0,-1.757632017E0,9.555635266E0
7.967931857E0,-7.681994915E0,-6.098262787E0,-1.496644974E0,9.921784168E0
7.972853704E0,-7.652511120E0,-6.239074230E0,-1.404299974E0,9.972914925E0
7.977775334E0,-7.249971867E0,-6.434918880E0,-1.539595962E0,9.815326219E0
7.982697178E0,-6.552206039E0,-6.696412086E0,-2.066317081E0,9.593904580E0
7.987619025E0,-6.525743008E0,-6.776747227E0,-1.859477043E0,9.589957229E0
7.992540876E0,-6.604282856E0,-6.865407944E0,-1.290318966E0,9.613287747E0
7.997462722E0,-6.533760071E0,-6.891170979E0,-8.905950189E-1,9.537893772E0
8.002384568E0,-6.320755005E0,-6.831079006E0,-7.814220190E-1,9.339497020E0
8.007306419E0,-6.089759827E0,-6.739005089E0,-7.774639726E-1,9.116129363E0
8.012228265E0,-5.759338856E0,-6.630082130E0,-8.912479877E-1,8.827360652E0
8.017150107E0,-5.370576859E0,-6.421226978E0,-1.159574986E0,8.451027502E0
8.022072183E0,-5.018989086E0,-6.060233116E0,-1.412227988E0,7.994439615E0
8.026993801E0,-4.631859779E0,-5.581286907E0,-1.506543994E0,7.407736723E0
8.031915626E0,-4.242753983E0,-5.174962997E0,-1.435363054E0,6.844082881E0
8.036837472E0,-3.653376102E0,-4.822799206E0,-1.292333007E0,6.186814506E0
8.041759243E0,-2.553335905E0,-4.479183197E0,-2.834480107E-1,5.163617834E0
8.046681102E0,6.362500042E-2,-4.384322166E0,3.203749895E0,5.430501118E0
8.051603025E0,2.028851986E0,-4.423900127E0,3.244637012E0,5.849342019E0
8.056524806E0,3.927345037E0,-4.696691990E0,2.668715954E0,6.678697443E0
8.061446421E0,6.751599789E0,-4.854221821E0,3.376578093E0,8.974901047E0
8.066368266E0,8.221183777E0,-4.406558990E0,1.375269055E0,9.428520022E0
8.071290351E0,1.064180374E1,-4.015686989E0,-5.272200108E-1,1.138646959E1
8.076212200E0,1.362163353E1,-3.722038031E0,-6.815040112E-1,1.413742957E1
8.081133815E0,1.628743935E1,-3.394247055E0,-1.424929947E-1,1.663796555E1
8.086055890E0,1.946351624E1,-3.037830114E0,7.730559707E-1,1.971432199E1
8.090977738E0,2.320294762E1,-2.421017885E0,2.056720972E0,2.341939809E1
8.095899359E0,2.652782059E1,-1.178370953E0,3.588592052E0,2.679536930E1
8.100821433E0,2.855723953E1,5.113880038E-1,5.357364178E0,2.905991738E1
8.105743041E0,2.912245178E1,2.066368103E0,6.997657776E0,3.002256300E1
8.110664808E0,3.021290779E1,2.472011089E0,8.286654472E0,3.142609232E1
8.115586639E0,3.400242615E1,1.118157983E0,9.866811752E0,3.542272202E1
8.120508485E0,3.933404160E1,-8.146240115E-1,1.183786106E1,4.108485603E1
8.125430408E0,4.290177536E1,-1.330070972E0,1.405520916E1,4.516503429E1
8.130352199E0,4.273068619E1,5.790099874E-2,1.621608925E1,4.570422787E1
8.135274043E0,3.936743927E1,2.112073898E0,1.792157555E1,4.330633904E1
8.140195889E0,3.492161560E1,3.342518091E0,1.913315201E1,3.995959421E1
