"Time (s)","Linear Acceleration x (m/s^2)","Linear Acceleration y (m/s^2)","Linear Acceleration z (m/s^2)","Absolute acceleration (m/s^2)"
2.019625041E-3,1.425130177E-1,-3.131306189E0,3.159426033E-1,3.150429834E0
1.196562505E-2,5.195490843E-1,-2.456226431E0,-9.497550523E-1,2.684215749E0
2.191162505E-2,2.551493361E0,1.861369068E1,-6.341669072E0,1.982917965E1
3.185762500E-2,3.014923208E0,1.775390089E0,-4.652082195E0,5.820965613E0
4.180362500E-2,1.069948663E0,-6.450291628E0,-3.751924396E0,7.538434114E0
5.174962501E-2,-1.183788105E0,-6.936950124E0,-2.934570186E0,7.624587430E0
6.169562502E-2,1.027295564E0,-8.305205603E0,-2.004209179E0,8.605151406E0
7.164162502E-2,4.027528812E0,-8.483593043E0,-1.200857735E0,9.467544484E0
8.158762503E-2,5.171458787E0,-8.526148494E0,-9.835997598E-1,1.002031250E1
9.153362503E-2,3.676177810E0,-9.172235418E0,-2.264904950E0,1.013775026E1
1.014796250E-1,1.810682713E0,-9.328584117E0,-3.402741541E0,1.009354762E1
1.114256250E-1,7.456398636E-1,-7.933286435E0,-3.405683860E0,8.665546435E0
1.213716250E-1,7.568337733E-1,-5.559288229E0,-2.923825343E0,6.326708276E0
1.313176250E-1,1.380126497E0,-2.861272999E0,-2.579970471E0,4.092417373E0
1.412636250E-1,1.264289646E0,-1.593204297E0,-1.847329406E0,2.747608811E0
1.512096250E-1,6.840552342E-1,-1.426974973E0,-2.014166256E-1,1.595229700E0
1.611556250E-1,1.077834803E-1,-8.137704509E-1,2.115492218E0,2.269173186E0
1.711016250E-1,-7.014068466E-1,-1.073010850E-1,4.622273090E0,4.676418887E0
1.810480417E-1,-1.340384141E0,6.337165546E-1,6.578213503E0,6.743227655E0
1.909940417E-1,-2.238574353E0,8.360237843E-1,7.245633409E0,7.629505515E0
2.009400417E-1,-2.673355767E0,4.670527822E-1,7.082565089E0,7.584701550E0
2.108860417E-1,-2.271684796E0,2.149793154E-1,6.643868380E0,7.024795724E0
2.208320417E-1,-1.261955438E0,2.067183691E-1,5.918590275E0,6.055161010E0
2.307780417E-1,-2.250488055E-1,2.195494992E-1,5.059387543E0,5.069146995E0
2.407240417E-1,1.103200609E0,-4.303164804E-1,4.164725541E0,4.329799383E0
2.506700417E-1,2.602074700E0,-5.113419324E-1,3.347063769E0,4.270257508E0
2.606160417E-1,3.638410059E0,-4.188728946E-1,1.764078650E0,4.065151380E0
2.705620417E-1,3.709340293E0,-2.312363291E-1,-4.021429874E-2,3.716758378E0
2.805080417E-1,2.814056733E0,-3.527233440E-1,-1.111187321E0,3.045991844E0
2.904550417E-1,7.436371922E-1,-7.869697380E-1,-7.673843430E-1,1.327100739E0
3.004010417E-1,-1.250269777E0,-9.970736450E-1,5.327415723E-1,1.685569326E0
3.103470417E-1,-2.209699633E0,-8.023648721E-1,6.724841791E-1,2.445157832E0
3.202930417E-1,-2.600201252E0,-2.733123082E-1,4.044494216E-1,2.645623840E0
3.302390417E-1,-2.710746372E0,5.516076136E-1,3.784171790E-1,2.792063111E0
3.401850417E-1,-2.656770725E0,1.272382777E0,1.397560555E-1,2.949054148E0
3.501310417E-1,-2.591642683E0,1.910863059E0,-2.555445202E-1,3.230063842E0
3.600770417E-1,-2.630128471E0,2.384081730E0,-5.426422240E-1,3.591083688E0
3.700230417E-1,-2.717628545E0,2.667340736E0,-6.539455819E-1,3.863658414E0
3.799690417E-1,-2.769115033E0,2.852912065E0,-4.833195899E-1,4.005084661E0
3.899150417E-1,-2.617816574E0,3.083019882E0,-2.020267095E-1,4.049541949E0
3.998610417E-1,-2.333742465E0,3.438354592E0,9.119025171E-2,4.156555288E0
4.098070417E-1,-2.053769594E0,3.839119830E0,8.327604532E-2,4.354738283E0
4.197530417E-1,-1.875380400E0,4.063702027E0,-1.847544730E-1,4.479381657E0
4.296990417E-1,-1.599813990E0,4.146647705E0,-6.085359590E-1,4.486023629E0
4.396450417E-1,-1.020870643E0,4.098635048E0,-1.076598117E0,4.358904636E0
4.495910417E-1,-3.344309145E-1,3.888490210E0,-1.563590489E0,4.204404282E0
4.595370417E-1,2.957211775E-1,3.517269199E0,-2.087621026E0,4.100828597E0
4.694830417E-1,8.228926921E-1,3.133019423E0,-2.497199625E0,4.090106240E0
4.794290417E-1,1.220126796E0,2.767163233E0,-2.691309058E0,4.048338696E0
4.893750417E-1,1.202742439E0,2.447928062E0,-2.553559767E0,3.736255968E0
4.993210417E-1,8.030565977E-1,2.000272248E0,-2.102534349E0,3.011086126E0
5.092670417E-1,1.473591900E-1,1.284163747E0,-1.458730032E0,1.949021438E0
5.192130417E-1,-5.390162194E-1,4.098523951E-1,-1.089059118E0,1.282406813E0
5.291590417E-1,-7.156144112E-1,-4.688677579E-1,-1.065779598E0,1.366684716E0
5.391050417E-1,6.537245572E-2,-1.052081911E0,-1.165759531E0,1.571669555E0
5.490510417E-1,1.405004060E0,-1.252135624E0,-1.359961058E0,2.321933270E0
5.589970417E-1,3.096901757E0,-1.084218208E0,-1.376404013E0,3.558204269E0
5.689440417E-1,4.309906059E0,-8.686483240E-1,-8.962115139E-1,4.486985093E0
5.788900417E-1,5.085052727E0,-7.193911278E-1,-1.464673434E-1,5.137775541E0
5.888360417E-1,5.714207869E0,-5.381058079E-1,2.238284916E-1,5.743851375E0
5.987820417E-1,6.014389302E0,-3.097486478E-1,3.005625258E-1,6.029855781E0
6.087280417E-1,5.847143732E0,-4.530948937E-2,2.524623066E-1,5.852766866E0
6.186740417E-1,5.271835599E0,3.443676728E-1,2.711359745E-1,5.290024045E0
6.286200417E-1,4.437826765E0,6.867899770E-1,4.900674230E-1,4.517317008E0
6.385660417E-1,3.436666501E0,1.068898503E0,4.945042902E-1,3.632871474E0
6.485120417E-1,2.725653849E0,1.725348448E0,2.299533769E-1,3.234021448E0
6.584580417E-1,2.321166274E0,2.244897532E0,4.693243524E-1,3.263072654E0
6.684040417E-1,2.567394864E0,1.903272788E0,1.029493094E0,3.357650923E0
6.783500417E-1,3.407748511E0,6.766672772E-1,1.578105763E0,3.815893909E0
6.882960417E-1,4.098326315E0,-2.052156347E-1,2.470779566E0,4.789900176E0
6.982420417E-1,4.287065080E0,-3.951478171E-1,3.437355888E0,5.509127363E0
7.081880417E-1,4.143201356E0,-3.722308248E-1,3.841623607E0,5.662397478E0
7.181340417E-1,3.245273100E0,-5.496055269E-1,3.696272351E0,4.949372993E0
7.280800417E-1,1.582374085E0,-1.206995119E0,2.611015093E0,3.283008495E0
7.380260417E-1,-1.004116616E0,-2.160298262E0,1.061463768E0,2.608034526E0
7.479720417E-1,-3.329157840E0,-2.607102721E0,7.792677855E-1,4.299713339E0
7.579180417E-1,-4.868904553E0,-2.794033527E0,1.722043309E0,5.871821528E0
7.678640417E-1,-5.201297713E0,-2.750540768E0,2.753536296E0,6.496224638E0
7.778100417E-1,-4.843306028E0,-2.709728372E0,3.099473654E0,6.356648336E0
7.877560417E-1,-4.305808330E0,-2.948331608E0,2.311472760E0,5.707499537E0
7.977020417E-1,-3.754686620E0,-3.629283725E0,1.683841987E0,5.486774627E0
8.076480417E-1,-2.631485610E0,-4.956768324E0,1.421879709E0,5.789301395E0
8.175940417E-1,-1.373781683E0,-5.316577324E0,6.410773221E-1,5.528494432E0
8.275400417E-1,-5.707847267E-1,-4.066066056E0,7.877482948E-1,4.180817594E0
8.374870417E-1,8.616632402E-2,-2.112690817E0,1.420823117E0,2.547474328E0
8.474330417E-1,3.612304580E-1,-5.834831250E-1,1.182549080E0,1.367246257E0
8.573790417E-1,3.102772361E-1,3.765180033E-1,8.621649313E-1,9.906392577E-1
8.673250417E-1,9.769177079E-2,1.051374398E0,7.624970940E-1,1.302433731E0
8.772710417E-1,-1.682717568E-1,1.837381099E0,9.369128126E-1,2.069321219E0
8.872170417E-1,-2.502193147E-1,2.630871652E0,8.221872255E-1,2.767686252E0
8.971630417E-1,-3.693253434E-1,3.233615506E0,4.216871595E-1,3.281842548E0
9.071090417E-1,-6.018574154E-1,3.643884223E0,1.349929136E-1,3.695720182E0
9.170550417E-1,-1.081161284E0,3.735455713E0,-3.117051262E-1,3.901243288E0
9.270010417E-1,-1.577410383E0,3.536536360E0,-8.076279509E-1,3.955701688E0
9.369470417E-1,-1.870485696E0,3.159094496E0,-1.258657608E0,3.881084095E0
9.468930417E-1,-2.159254534E0,2.508152044E0,-1.574026600E0,3.664801025E0
9.568390417E-1,-2.359922789E0,1.795215658E0,-1.647464997E0,3.392075433E0
9.667850417E-1,-2.437489613E0,1.208908328E0,-1.706693052E0,3.211793289E0
9.767310417E-1,-2.603361672E0,7.923012292E-1,-1.797815915E0,3.261498934E0
9.866770417E-1,-2.762777236E0,6.421839076E-1,-1.865139002E0,3.394713791E0
9.966230417E-1,-2.953374832E0,6.098201537E-1,-1.873371004E0,3.550186254E0
1.006569042E0,-3.181111602E0,6.231477123E-1,-1.832031482E0,3.723455847E0
1.016515042E0,-3.298242441E0,6.231997526E-1,-1.889344136E0,3.851805083E0
1.026461042E0,-3.248577361E0,5.760185695E-1,-2.043173562E0,3.880671394E0
1.036407042E0,-3.135404502E0,5.023477453E-1,-2.227258967E0,3.878633414E0
1.046353042E0,-2.706777282E0,4.937517536E-1,-2.243617576E0,3.550247017E0
1.056299042E0,-2.003489386E0,7.309534121E-1,-2.138895406E0,3.020452974E0
1.066245042E0,-1.384913027E0,1.012274652E0,-2.050767049E0,2.673636017E0
1.076192042E0,-7.408094788E-1,1.263170489E0,-1.809122968E0,2.327514615E0
1.086138042E0,-1.844159192E-1,1.364214469E0,-1.628741043E0,2.132577720E0
1.096084042E0,3.765144950E-1,1.314989099E0,-1.510041834E0,2.037445910E0
1.106030042E0,8.901397651E-1,1.236998352E0,-1.439889718E0,2.096615397E0
1.115976042E0,1.185311304E0,1.091530151E0,-1.452966431E0,2.169680255E0
1.125922042E0,1.330662560E0,9.600666171E-1,-1.383874708E0,2.146508786E0
1.135868042E0,1.261285931E0,7.157687777E-1,-1.201298177E0,1.883158106E0
1.145814042E0,1.389811825E0,5.906465489E-1,-8.175902908E-1,1.717234444E0
1.155760042E0,1.551419510E0,2.996873438E-1,-7.072780359E-1,1.731172210E0
1.165706042E0,1.329339920E0,-9.741502208E-1,-7.269610063E-1,1.801273322E0
1.175652042E0,1.295257670E0,-2.839504400E0,-9.012344183E-1,3.248492134E0
1.185598125E0,1.910691150E0,-4.242028071E0,-1.643789145E0,4.934327267E0
1.195544125E0,3.028285266E0,-4.597957444E0,-2.585192619E0,6.082347012E0
1.205490125E0,4.291273322E0,-3.855504313E0,-3.097612193E0,6.547911234E0
1.215436125E0,5.358507122E0,-2.345066183E0,-3.259020488E0,6.695830682E0
1.225382125E0,6.191213197E0,-7.374958616E-1,-3.157218710E0,6.988780364E0
1.235328125E0,6.808941125E0,3.895765901E-1,-2.795249748E0,7.370676381E0
1.245274125E0,6.083913866E0,6.762071013E-1,-2.384024427E0,6.569234083E0
1.255220125E0,3.124511139E0,-2.437587261E-1,-2.020991857E0,3.729128083E0
1.265166125E0,2.026995778E-1,-1.620661653E0,-1.625076885E0,2.304019573E0
1.275112125E0,-9.542457139E-1,-2.822985431E0,-9.808669174E-1,3.137185289E0
1.285058125E0,-8.852491540E-1,-3.748459336E0,-4.006371466E-1,3.872353752E0
1.295004125E0,-3.757356459E-1,-4.323600823E0,-9.737719059E-2,4.340988789E0
1.304950125E0,1.632817429E-1,-5.147229095E0,1.299824528E-1,5.151458407E0
1.314897125E0,4.485387433E-1,-5.590847406E0,7.532511842E-1,5.659165050E0
1.324843125E0,-9.126334190E-3,-4.484523214E0,2.357528354E0,5.066455535E0
1.334789125E0,-7.844460797E-1,-2.078526120E0,4.042348580E0,4.612614067E0
1.344735125E0,-1.444149415E0,-1.294936073E-1,4.842041860E0,5.054473810E0
1.354681125E0,-1.956330423E0,3.607989335E-1,5.360719124E0,5.717929181E0
1.364627125E0,-1.776500475E0,4.055336416E-2,5.808594208E0,6.074320142E0
1.374573125E0,-8.027332467E-1,-3.244035244E-1,6.200229603E0,6.260388602E0
1.384519125E0,6.192306626E-1,-4.221964520E-1,6.417427937E0,6.461043088E0
1.394465125E0,2.069747695E0,-2.491323173E-2,6.168461680E0,6.506488738E0
1.404411125E0,3.208689995E0,3.484408432E-1,5.282533080E0,6.190497415E0
1.414357125E0,3.650952922E0,5.206775969E-1,3.814056324E0,5.305430052E0
1.424303125E0,3.291522821E0,6.403098750E-1,2.358342286E0,4.099499672E0
1.434249125E0,2.016342736E0,4.568336034E-1,1.662648169E0,2.653061233E0
1.444195125E0,5.876907814E-1,-1.198322529E-1,1.008471549E0,1.173352074E0
1.454141125E0,-7.203120643E-1,-7.847337627E-1,5.109870795E-1,1.181424709E0
1.464087125E0,-1.960267938E0,-1.182439737E0,4.351264000E-2,2.289695934E0
1.474033125E0,-3.064467836E0,-1.119520188E0,-4.167549966E-1,3.289068758E0
1.483979125E0,-3.763133508E0,-6.986931539E-1,-4.698722730E-1,3.856180218E0
1.493925125E0,-4.199548634E0,-9.859633505E-2,-3.394870019E-1,4.214401665E0
1.503871125E0,-4.483198820E0,5.467474079E-1,-3.451827747E-1,4.529586685E0
1.513817125E0,-4.699624152E0,1.131126911E0,-3.975557005E-1,4.850151110E0
1.523763125E0,-4.570536926E0,1.804719138E0,-3.009591132E-1,4.923148926E0
1.533709125E0,-3.989687387E0,2.482475166E0,-2.127065209E-1,4.703778530E0
1.543655125E0,-3.314643297E0,2.827061525E0,2.228138169E-2,4.356562120E0
1.553602125E0,-3.034728312E0,2.992554100E0,4.848148692E-1,4.289522285E0
1.563548125E0,-2.796280612E0,3.075866983E0,6.293276346E-1,4.204306867E0
1.573494125E0,-2.477374055E0,3.147834513E0,7.143712932E-1,4.068976613E0
1.583440125E0,-2.208306826E0,3.233373431E0,7.542786131E-1,3.987512885E0
1.593386125E0,-1.854036893E0,3.288689260E0,4.814971225E-1,3.805886143E0
1.603332125E0,-1.431983698E0,3.268520460E0,-5.340503253E-2,3.568845108E0
1.613278125E0,-9.709295744E-1,3.210884455E0,-6.369898260E-1,3.414416386E0
1.623224125E0,-5.292788512E-1,2.877447567E0,-1.510101330E0,3.292452981E0
1.633170125E0,-4.809925443E-1,2.572498314E0,-1.922054045E0,3.247059154E0
1.643116125E0,-6.695804518E-1,2.340989504E0,-1.997929854E0,3.149649749E0
1.653062125E0,-8.882604700E-1,2.132277820E0,-2.019501987E0,3.068224835E0
1.663008125E0,-9.291827935E-1,1.955863815E0,-1.885296108E0,2.871084349E0
1.672954125E0,-8.332141972E-1,1.763547723E0,-1.577311565E0,2.508437411E0
1.682900125E0,-6.320232010E-1,1.311931005E0,-1.435501968E0,2.044818375E0
1.692846125E0,-1.690856892E-1,6.753709495E-1,-1.393275715E0,1.557540724E0
1.702792125E0,7.384787786E-1,7.214060783E-2,-1.130860278E0,1.352553194E0
1.712738125E0,2.014464610E0,-3.969089985E-1,-8.283031207E-1,2.213976169E0
1.722684125E0,3.056106318E0,-2.609945637E-1,-1.200118209E0,3.293658711E0
1.732630125E0,3.814417682E0,2.629586434E-1,-1.024611692E0,3.958378282E0
1.742576125E0,4.702748904E0,-1.218530506E0,4.238629085E-1,4.876507317E0
1.752522125E0,5.162956350E0,-8.910338044E-1,-5.204419541E-1,5.265065939E0
1.762468125E0,5.646451503E0,4.240014875E-1,-1.670130851E0,5.903518349E0
1.772414125E0,5.161464141E0,1.435243521E0,-2.272362489E0,5.819301274E0
1.782360125E0,5.020912279E0,1.466706803E0,-2.631643485E0,5.855453560E0
1.792306125E0,4.870671582E0,8.650201267E-1,-2.589397352E0,5.583608163E0
1.802253125E0,4.504386206E0,-2.306831825E-1,-1.536118516E0,4.764700401E0
1.812199125E0,2.991138489E0,-5.969381529E-1,-1.310209000E-1,3.052934833E0
1.822145125E0,2.198548408E0,-5.401067251E-1,1.570962074E0,2.755585639E0
1.832091125E0,2.538618962E0,-8.657814342E-1,3.135530802E0,4.126223108E0
1.842037125E0,3.265709703E0,-1.290953534E0,3.438843420E0,4.914983719E0
1.851983125E0,3.834556662E0,-1.454914139E0,2.837871273E0,4.987395443E0
1.861929125E0,3.932333218E0,-1.209128183E0,2.336944985E0,4.731442419E0
1.871875125E0,3.898616418E0,-5.894005072E-1,2.241485682E0,4.535511106E0
1.881821125E0,3.335864012E0,-5.399494350E-1,1.989927354E0,3.921650797E0
1.891767125E0,1.661185781E0,-1.292705945E0,8.877406526E-1,2.284449676E0
1.901713125E0,-9.123621082E-1,-2.189050190E0,-5.274948657E-2,2.372156795E0
1.911659125E0,-3.492002211E0,-2.847953042E0,1.238305789E-1,4.507798796E0
1.921605125E0,-4.749047742E0,-3.335620767E0,1.348971947E0,5.958149517E0
1.931551125E0,-4.696173125E0,-3.671020566E0,2.503903458E0,6.465289362E0
1.941497125E0,-4.236021227E0,-4.058880998E0,2.885538359E0,6.537944816E0
1.951443125E0,-3.463885875E0,-4.689673360E0,2.144206724E0,6.212017712E0
1.961389125E0,-2.241248285E0,-5.190275711E0,1.697453136E0,5.902838553E0
1.971335125E0,-6.858450669E-1,-5.059062438E0,2.592441997E0,5.725840699E0
1.981281125E0,5.087141937E-1,-4.073987864E0,3.467222296E0,5.373806630E0
1.991227125E0,1.186693001E0,-2.500428457E0,2.965483246E0,4.056411423E0
2.001173125E0,1.181564993E0,-9.721253300E-1,1.308362449E0,2.013190450E0
2.011119125E0,1.141199909E0,3.244362688E-1,4.837880981E-1,1.281267751E0
2.021065125E0,1.075855520E0,1.257574704E0,4.279980594E-1,1.709427265E0
2.031011125E0,9.119545573E-1,1.776817979E0,6.139763546E-1,2.089428201E0
2.040958125E0,7.165920657E-1,2.051700849E0,9.648929089E-1,2.377813888E0
2.050904125E0,2.708056068E-1,2.463374067E0,1.535113964E0,2.915153916E0
2.060850125E0,-4.431949729E-1,2.850802390E0,1.736237717E0,3.367197271E0
2.070796125E0,-1.173967706E0,2.979651634E0,1.434699145E0,3.509257140E0
2.080742125E0,-1.868316963E0,2.854882577E0,8.301964492E-1,3.511436878E0
2.090688125E0,-2.465127647E0,2.599669155E0,4.122871757E-2,3.582852752E0
2.100634125E0,-3.001945898E0,2.202582986E0,-6.547402185E-1,3.780441210E0
2.110580125E0,-3.484596128E0,1.716075348E0,-1.054503243E0,4.024835632E0
2.120526125E0,-3.881985767E0,1.242628636E0,-1.356663959E0,4.295867377E0
2.130472125E0,-4.248561165E0,8.005189061E-1,-1.635503640E0,4.622334329E0
2.140418125E0,-4.379283273E0,4.978132296E-1,-1.651770594E0,4.706833977E0
2.150364125E0,-4.111455068E0,5.151239115E-1,-1.542882575E0,4.421527119E0
2.160310125E0,-3.753092085E0,7.271006817E-1,-1.678525114E0,4.175143369E0
2.170256125E0,-3.503064559E0,8.697692353E-1,-2.055507971E0,4.153681842E0
2.180202042E0,-3.185405213E0,8.983603656E-1,-2.328584636E0,4.046747351E0
2.190148042E0,-2.688278446E0,8.672157562E-1,-2.395259267E0,3.703534950E0
2.200094042E0,-2.231106289E0,8.314436603E-1,-2.300059580E0,3.310499646E0
2.210040042E0,-1.952326834E0,9.173135304E-1,-2.195309050E0,3.077730658E0
2.219986042E0,-1.755765663E0,1.059339475E0,-2.078843039E0,2.920017392E0
2.229932042E0,-1.474940853E0,1.222129467E0,-2.013241957E0,2.778883613E0
2.239878042E0,-1.073609605E0,1.327395721E0,-1.992878444E0,2.624153478E0
2.249824042E0,-5.246162814E-1,1.363763064E0,-1.957971736E0,2.443097472E0
2.259770042E0,1.009410685E-1,1.426593735E0,-1.961875337E0,2.427820756E0
2.269716042E0,6.483965743E-1,1.555768084E0,-2.058004732E0,2.660115773E0
2.279662042E0,1.081043755E0,1.573696232E0,-2.180198675E0,2.898006503E0
2.289609042E0,1.447856550E0,1.387593976E0,-2.164966679E0,2.951065291E0
2.299555042E0,1.826456746E0,1.186917534E0,-1.861449409E0,2.865259392E0
2.309501042E0,2.280063272E0,1.142219664E0,-1.317181805E0,2.870247758E0
2.319447042E0,2.457760740E0,9.723340756E-1,-7.785696280E-1,2.755393270E0
2.329393042E0,1.994886963E0,-1.247263724E-1,-8.203310269E-1,2.160572530E0
2.339339042E0,1.481990840E0,-2.137697019E0,-1.337573969E0,2.924918720E0
2.349285042E0,1.732012519E0,-3.967742786E0,-2.178567887E0,4.846546010E0
2.359231042E0,2.356749505E0,-4.832664680E0,-3.488944117E0,6.409496641E0
2.369177042E0,2.829543083E0,-4.469226898E0,-4.429799123E0,6.899523418E0
2.379123042E0,3.396485605E0,-3.410880280E0,-4.846496269E0,6.830720667E0
2.389069042E0,3.971855133E0,-1.858782493E0,-4.947807466E0,6.611467634E0
2.399015042E0,4.062630817E0,-8.642488790E-1,-4.793307656E0,6.342530533E0
2.408961042E0,3.443014238E0,-1.265603516E0,-3.922485337E0,5.370473957E0
2.418907042E0,1.857307241E0,-2.668613675E0,-2.435967582E0,4.062637960E0
2.428853042E0,9.085456306E-1,-3.909822607E0,-9.029467754E-1,4.114301989E0
2.438799042E0,5.234135091E-1,-4.465557770E0,6.873062861E-1,4.548357707E0
2.448745042E0,4.758586890E-1,-4.796216646E0,1.648201454E0,5.093790694E0
2.458691042E0,1.480702114E-1,-5.041367009E0,2.017009903E0,5.431908970E0
2.468637042E0,-4.647817236E-1,-4.681078538E0,2.424138665E0,5.291971900E0
2.478583042E0,-9.054758424E-1,-3.281299549E0,3.151561528E0,4.638874142E0
2.488529042E0,-1.259869736E0,-1.378636041E0,3.919448293E0,4.341656828E0
2.498475042E0,-1.746396670E0,-7.861113667E-2,4.457121992E0,4.787694382E0
2.508421042E0,-2.158676829E0,1.625151730E-1,4.859609234E0,5.319971686E0
2.518367042E0,-1.863854368E0,-2.606308669E-1,5.202798693E0,5.532720470E0
2.528313042E0,-6.844622004E-1,-8.959787947E-1,5.328972251E0,5.446945177E0
2.538260042E0,8.208929443E-1,-1.405685261E0,5.650037016E0,5.879858379E0
2.548206042E0,2.267669513E0,-1.806676785E0,6.204067131E0,6.848127846E0
2.558152042E0,3.116093488E0,-1.900370230E0,6.258293039E0,7.244837983E0
2.568098042E0,3.031694777E0,-1.280810369E0,4.867383108E0,5.875633305E0
2.578044042E0,2.356148411E0,-2.340798301E-1,2.501165206E0,3.444133576E0
2.587990042E0,1.275281827E0,2.595619959E-1,6.268425679E-1,1.444523372E0
2.597936042E0,-6.829547882E-2,4.600764692E-2,-4.069825816E-1,4.152298132E-1
2.607882042E0,-1.388122564E0,-4.378441858E-1,-6.708873045E-1,1.602710691E0
2.617828042E0,-2.329140122E0,-9.137438053E-1,-7.436798769E-1,2.610149653E0
2.627774042E0,-2.892954383E0,-1.130380806E0,-1.031652909E0,3.272805151E0
2.637720042E0,-3.261410245E0,-1.266739630E0,-1.325026429E0,3.741272660E0
2.647666042E0,-3.436661239E0,-1.072020332E0,-1.385153348E0,3.857268186E0
2.657612042E0,-3.424499615E0,-5.773084652E-1,-1.194574463E0,3.672531936E0
2.667558042E0,-3.530434206E0,-1.438227940E-1,-7.956306338E-1,3.621833621E0
2.677504042E0,-3.429620606E0,3.479502618E-1,-4.420202672E-1,3.475449439E0
2.687450042E0,-3.313890175E0,1.222340552E0,1.210923278E-1,3.534211067E0
2.697396042E0,-3.360907636E0,2.121198515E0,9.892974329E-1,4.095594303E0
2.707342042E0,-3.424416584E0,2.595114759E0,1.836385903E0,4.672639805E0
2.717288042E0,-3.441348367E0,3.078797607E0,2.253982351E0,5.138317792E0
2.727234042E0,-3.121514441E0,4.061913949E0,1.857493767E0,5.449154102E0
2.737180042E0,-2.864932771E0,4.278163279E0,1.347655739E0,5.322283046E0
2.747126042E0,-2.126675017E0,4.344397030E0,8.805807370E-1,4.916498207E0
2.757072042E0,-1.415206282E0,4.468025295E0,2.457374970E-1,4.693234042E0
2.767018042E0,-9.005846465E-1,4.000000706E0,-4.987862062E-1,4.130356647E0
2.776964042E0,-6.453308791E-1,3.648300624E0,-1.293994671E0,3.924407165E0
2.786911042E0,-7.065079576E-1,3.345189151E0,-1.559829560E0,3.757993109E0
2.796857042E0,-9.394148362E-1,2.862155344E0,-1.656306279E0,3.437700385E0
2.806803042E0,-1.189031303E0,2.442098388E0,-1.618047363E0,3.161600424E0
2.816749042E0,-1.217493795E0,2.145969660E0,-1.537320119E0,2.907031143E0
2.826695042E0,-1.009539324E0,1.530554890E0,-1.777745347E0,2.553849337E0
2.836641042E0,-8.513259476E-1,6.299673200E-1,-2.245385774E0,2.482613939E0
2.846587042E0,-4.389867318E-1,-3.321639490E-1,-2.336928028E0,2.400890429E0
2.856533042E0,6.484743422E-1,-1.042921078E0,-1.764130690E0,2.149502370E0
2.866479042E0,2.115570570E0,-1.345098166E0,-1.281728382E0,2.815627028E0
2.876425042E0,3.367431960E0,-1.252828519E0,-1.633751814E0,3.946938344E0
2.886371042E0,4.328345253E0,-7.461807311E-1,-2.156594635E0,4.893082744E0
2.896317042E0,4.963800185E0,9.385131955E-2,-1.914650300E0,5.321090689E0
2.906263042E0,5.274693133E0,9.154213715E-1,-1.720471870E0,5.623202592E0
2.916209042E0,5.038009538E0,1.395033388E0,-2.139107367E0,5.648312898E0
2.926155042E0,4.452957020E0,1.612932218E0,-2.711501833E0,5.457345394E0
2.936101042E0,4.039082326E0,9.296581721E-1,-3.625460815E0,5.506579381E0
2.946047042E0,3.382458134E0,-9.561016202E-2,-3.609756364E0,4.947777818E0
2.955993042E0,2.330073338E0,-1.068249462E0,-2.258277131E0,3.416169532E0
2.965939042E0,1.263058223E0,-1.747306497E0,-4.504414272E-1,2.202565219E0
2.975885042E0,1.179826616E0,-1.680743548E0,1.457758809E0,2.518322947E0
2.985831042E0,2.366164691E0,-1.482873770E0,2.623724601E0,3.831655092E0
2.995777042E0,3.253866168E0,-1.597846402E0,2.782610992E0,4.569866748E0
3.005723042E0,3.783616304E0,-1.450913474E0,2.415857254E0,4.717760964E0
3.015669042E0,4.357060345E0,-3.304109538E-1,2.772971272E0,5.175182694E0
3.025615042E0,4.375213026E0,6.628087914E-1,4.189966802E0,6.094064844E0
3.035561042E0,3.337536900E0,4.045466316E-1,4.595411566E0,5.693910607E0
3.045508042E0,9.198173082E-1,-8.287469244E-1,3.435895253E0,3.652158477E0
3.055454042E0,-2.080190822E0,-2.495394589E0,1.891649693E0,3.759325282E0
3.065400042E0,-3.742774088E0,-3.935582516E0,1.350876385E0,5.596609207E0
3.075346042E0,-3.986947381E0,-5.137640830E0,2.167369884E0,6.854822750E0
3.085292042E0,-4.005045683E0,-5.674663149E0,2.872528889E0,7.516223453E0
3.095238042E0,-3.453757913E0,-6.124318711E0,2.411968271E0,7.433257316E0
3.105184042E0,-2.432084447E0,-7.079211711E0,1.001173128E0,7.551994494E0
3.115130042E0,-1.043164907E0,-7.156540554E0,1.636004162E0,7.414902247E0
3.125076042E0,5.314768195E-2,-5.313813345E0,3.522884281E0,6.375747062E0
3.135022042E0,4.518038285E-1,-2.734828715E0,3.534693317E0,4.491934065E0
3.144968042E0,-5.001065075E-2,-6.607955950E-1,2.110920864E0,2.212496052E0
3.154914042E0,-9.081562060E-1,1.363983504E0,1.404787713E0,2.158385325E0
3.164860042E0,-4.546180934E-1,2.352521383E0,5.269766562E-1,2.453311816E0
3.174806042E0,6.459033215E-1,1.699635901E0,-3.953676724E-1,1.860717306E0
3.184752417E0,1.061588314E0,1.117688840E0,-5.906506419E-1,1.650777475E0
3.194698417E0,8.968330729E-1,6.077134019E-1,-1.182885806E0,1.604008719E0
3.204644417E0,9.952721179E-2,5.349448031E-1,-1.244473432E0,1.358228895E0
3.214590417E0,-1.004332963E0,7.393979609E-1,-6.550786992E-1,1.408730687E0
3.224536417E0,-1.829413683E0,9.782555509E-1,-1.012328446E-1,2.077013827E0
3.234482417E0,-2.532998033E0,1.121780137E0,1.826833892E-1,2.776300224E0
3.244428417E0,-3.146105492E0,1.150627960E0,3.541553271E-1,3.368582857E0
3.254374417E0,-3.589388173E0,1.103495893E0,2.092227316E-1,3.761008481E0
3.264320417E0,-3.587269142E0,1.018262200E0,-1.072262406E-2,3.729004261E0
3.274266417E0,-3.492913792E0,1.155517986E0,-4.031841938E-1,3.701111464E0
3.284212417E0,-3.343732025E0,1.501512939E0,-7.648345184E-1,3.744336631E0
3.294159417E0,-3.382036550E0,1.853722313E0,-6.418125363E-1,3.909780169E0
3.304105417E0,-3.185478303E0,1.999582277E0,-1.212141838E0,3.951567934E0
3.314051417E0,-2.867979755E0,2.014213180E0,-1.367836819E0,3.762092526E0
3.323997417E0,-2.704421439E0,2.070326570E0,-9.134988070E-1,3.526276719E0
3.333943417E0,-2.429644988E0,2.343961644E0,-9.989008999E-1,3.520672374E0
3.343889417E0,-1.940805480E0,2.672274617E0,-1.223393050E0,3.521997742E0
3.353835417E0,-1.609567730E0,2.573857791E0,-1.441579564E0,3.360595758E0
3.363781417E0,-1.493074238E0,2.071641608E0,-1.437590593E0,2.930466916E0
3.373727417E0,-1.303008739E0,1.514480894E0,-1.144624039E0,2.302530856E0
3.383673417E0,-9.815995735E-1,1.049352431E0,-1.208461601E0,1.877513698E0
3.393619417E0,-5.661069542E-1,6.708545601E-1,-9.415338671E-1,1.287248596E0
3.403565417E0,-9.905183315E-2,6.517341650E-1,-6.187090909E-1,9.040849665E-1
3.413511417E0,5.256535774E-1,6.759989405E-1,-1.056312371E0,1.359809574E0
3.423457417E0,1.184277517E0,5.349108893E-1,-1.782011476E0,2.205494909E0
3.433403417E0,1.941117722E0,1.042342204E-1,-2.473181017E0,3.145699783E0
3.443349417E0,2.682772708E0,-4.274870127E-1,-3.341375597E0,4.306368009E0
3.453295417E0,3.452126539E0,-5.920814556E-1,-3.628970899E0,5.043527325E0
3.463241417E0,3.640599257E0,-1.091637155E0,-3.426463695E0,5.117253959E0
3.473187417E0,2.832050369E0,-2.090828077E0,-3.296215796E0,4.822562589E0
3.483133417E0,1.406910253E0,-3.218830821E0,-2.612541801E0,4.377858263E0
3.493079417E0,5.091486418E-1,-3.447897833E0,-1.870634800E0,3.955566503E0
3.503025417E0,4.540409732E-1,-2.952096046E0,-2.295068396E0,3.766744378E0
3.512971417E0,9.164633453E-1,-2.000321950E0,-3.450850677E0,4.092623042E0
3.522917417E0,1.518206740E0,-1.238398175E0,-4.377377080E0,4.795832759E0
3.532863417E0,2.205924670E0,-1.172143375E0,-4.213157444E0,4.898032196E0
3.542809417E0,2.509047838E0,-1.451616894E0,-3.915240637E0,4.871511255E0
3.552756417E0,2.059568862E0,-1.809998589E0,-3.727526304E0,4.627350336E0
3.562702417E0,1.260462644E0,-2.241318451E0,-2.612192137E0,3.665490723E0
3.572648417E0,3.462767887E-1,-2.997188603E0,-1.286001527E0,3.279763264E0
3.582594417E0,-5.489991707E-1,-3.850183346E0,7.921808680E-2,3.889934112E0
3.592540417E0,-9.107681572E-1,-3.931432162E0,1.380686660E0,4.265202590E0
3.602486417E0,-1.000137586E0,-3.305088362E0,2.309882902E0,4.154448614E0
3.612432417E0,-8.780711120E-1,-2.971554995E0,2.564968854E0,4.022463572E0
3.622378417E0,-3.139428556E-2,-2.603563986E0,3.253304250E0,4.166955672E0
3.632324417E0,9.231847197E-1,-1.965687137E0,4.413530999E0,4.918887255E0
3.642270417E0,1.211758261E0,-9.880893981E-1,5.773002791E0,5.980989882E0
3.652216417E0,9.025376165E-1,6.168403208E-2,7.206881572E0,7.263437276E0
3.662162417E0,1.046014255E-1,1.084664351E-1,7.856779711E0,7.858224600E0
3.672108417E0,-3.279837745E-1,-5.515544039E-1,7.847992516E0,7.874183903E0
3.682054417E0,-1.987322420E-1,-1.409759016E0,6.381164090E0,6.538055531E0
3.692000417E0,4.299457669E-3,-8.882774270E-1,4.746286687E0,4.828694708E0
3.701946417E0,3.070887494E-1,-2.528388673E-1,3.295217677E0,3.319140029E0
3.711892417E0,1.054042482E-1,-2.257598269E-1,2.295298192E0,2.308781355E0
3.721838417E0,6.131156445E-2,-7.043860030E-1,1.413969011E0,1.580894403E0
3.731784417E0,-3.405593812E-2,-1.336416221E0,5.176463638E-1,1.433571024E0
3.741730417E0,1.057053798E-1,-9.611080062E-1,-5.891970241E-1,1.132278835E0
3.751676417E0,-2.443902254E-2,-4.319630563E-1,-1.064452207E0,1.149020387E0
3.761622417E0,-8.021403390E-1,1.133032519E-1,-5.691918721E-1,9.900738041E-1
3.771568417E0,-1.982780887E0,3.818986112E-1,-3.257725038E-2,2.019487032E0
3.781514417E0,-2.644500343E0,2.358866197E-1,-7.429347955E-2,2.656039171E0
3.791461417E0,-2.888513423E0,3.136727142E-1,-6.043155849E-1,2.967675469E0
3.801407417E0,-2.913992080E0,7.408925092E-1,-9.464625583E-1,3.152152110E0
3.811353417E0,-2.652994008E0,9.789999014E-1,-1.234791028E0,3.085697149E0
3.821299417E0,-2.353698428E0,1.221903180E0,-1.269504193E0,2.940167438E0
3.831245417E0,-1.976533138E0,1.461051961E0,-1.025437830E0,2.663245918E0
3.841191417E0,-1.288489518E0,1.266662446E0,-6.691641301E-1,1.926764029E0
3.851137417E0,-9.217767102E-1,1.607314214E0,4.764600020E-2,1.853483592E0
3.861083417E0,-1.548526892E0,1.930424919E0,2.968251318E-1,2.492504977E0
3.871029417E0,-2.212743108E0,2.477407385E0,4.868192581E-1,3.357197105E0
3.880975417E0,-2.335162169E0,2.547212030E0,1.097231187E0,3.625629291E0
3.890921417E0,-1.798710539E0,2.399196782E0,2.404742281E0,3.843733893E0
3.900867417E0,-1.563630250E0,2.820983929E0,1.866262252E0,3.726368833E0
3.910813417E0,-1.459348083E0,2.625475257E0,5.333170114E-1,3.050777636E0
3.920759417E0,-9.086865485E-1,2.424360859E0,2.013797881E-1,2.596880944E0
3.930705417E0,-4.882085931E-1,2.747344680E0,-6.795073429E-1,2.871929778E0
3.940651417E0,-1.309799695E-1,2.745395803E0,-1.797144801E0,3.283912803E0
3.950597417E0,3.499745679E-1,2.567777857E0,-2.687186771E0,3.733220870E0
3.960543417E0,7.387506741E-1,2.743758582E0,-2.331390715E0,3.675506276E0
3.970489417E0,6.448619324E-1,3.049759750E0,-3.131825421E0,4.418734198E0
3.980435417E0,4.174362338E-1,2.414241083E0,-3.184683082E0,4.018086528E0
3.990381417E0,4.057763010E-1,1.229162498E0,-2.293180915E0,2.633281900E0
4.000327417E0,1.620421332E-1,2.141338080E-1,-1.440997766E0,1.465805410E0
4.010273417E0,-9.349931717E-2,-2.937629449E-1,-4.885857385E-1,5.777151669E-1
4.020219417E0,4.033526301E-2,-5.093439388E-1,-1.008620142E0,1.130651481E0
4.030165417E0,4.288002974E-1,-6.716000801E-1,-2.060872791E0,2.209550412E0
4.040112417E0,1.300832990E0,-8.970131671E-1,-2.385568677E0,2.861422199E0
4.050058417E0,2.246558726E0,-6.509711033E-1,-1.748993418E0,2.920576563E0
4.060004417E0,2.973829561E0,-3.330977494E-1,-9.885010421E-1,3.151468020E0
4.069950417E0,3.322774435E0,-3.710912025E-1,-8.905286050E-1,3.459997084E0
4.079896417E0,3.763734602E0,-9.282636112E-1,-1.631669621E0,4.205914554E0
4.089842417E0,4.007932454E0,-1.576141537E0,-2.666037977E0,5.065126177E0
4.099788417E0,3.693507788E0,-1.968838786E0,-3.343435571E0,5.356947579E0
4.109734417E0,3.167382925E0,-2.269681540E0,-3.069820377E0,4.960601378E0
4.119680417E0,2.479464435E0,-1.709276206E0,-2.499941969E0,3.913959489E0
4.129626417E0,2.268776976E0,-9.682217288E-1,-1.619946538E0,2.951106414E0
4.139572417E0,3.045167931E0,-7.016044825E-1,2.527751327E-2,3.125049685E0
4.149518417E0,3.816393456E0,-9.281770724E-1,2.173033497E0,4.488702070E0
4.159464417E0,4.085243754E0,-1.348434588E0,3.511571088E0,5.553253450E0
4.169410417E0,3.537194172E0,-1.706430951E0,3.737144973E0,5.421245406E0
4.179356417E0,2.899338958E0,-2.148735977E0,4.014162662E0,5.397845364E0
4.189302542E0,2.318729739E0,-2.785784860E0,4.916192740E0,6.107868364E0
4.199248542E0,1.070548003E0,-2.718398623E0,5.530543317E0,6.254812026E0
4.209194542E0,-7.258148789E-1,-2.205607751E0,4.974722199E0,5.489933857E0
4.219140542E0,-2.703032725E0,-1.925976357E0,4.101826458E0,5.276433562E0
4.229086542E0,-4.001823283E0,-1.430243567E0,4.091053548E0,5.898890182E0
4.239032542E0,-4.603181931E0,-1.169333788E0,3.952745848E0,6.179063451E0
4.248978542E0,-4.803019881E0,-1.296176267E0,3.258894188E0,5.947223237E0
4.258924542E0,-4.673924469E0,-2.170796353E0,1.393612515E0,5.338546861E0
4.268870542E0,-3.630057312E0,-3.082024686E0,6.877144217E-1,4.811355669E0
4.278817542E0,-2.374873534E0,-3.354828286E0,1.019336846E0,4.234848845E0
4.288763542E0,-5.995249611E-1,-3.264045001E0,8.161052442E-1,3.417520697E0
4.298709542E0,9.356006974E-1,-2.735974184E0,2.754401100E-1,2.904611963E0
4.308655542E0,1.460081323E0,-2.010708944E0,-4.316835594E-1,2.522129779E0
4.318601542E0,1.644131207E0,-1.188275258E0,-9.424273948E-1,2.236813561E0
4.328547542E0,1.606149448E0,-3.066198027E-1,-9.848372499E-1,1.908831098E0
4.338493542E0,9.422138983E-1,2.257914019E-1,-4.556535987E-1,1.070686224E0
4.348439542E0,2.789285588E-1,5.462854779E-1,4.083936609E-2,6.147331275E-1
4.358385542E0,9.426822603E-2,8.839376235E-1,4.041794264E-1,9.765209826E-1
4.368331542E0,-3.313517708E-1,1.599042158E0,4.140332273E-1,1.684681967E0
4.378277542E0,-6.648026919E-1,2.125939438E0,3.757970417E-1,2.258938806E0
4.388223542E0,-9.887589043E-1,2.330775588E0,4.448737085E-1,2.570616975E0
4.398169542E0,-1.173551969E0,2.521188412E0,5.331854125E-1,2.831589998E0
4.408115542E0,-1.536397428E0,2.303751512E0,5.361955225E-1,2.820513025E0
4.418061542E0,-2.018954687E0,1.883208652E0,6.237072909E-1,2.830488234E0
4.428007542E0,-2.597080593E0,1.299757102E0,7.501112294E-1,2.999477119E0
4.437953542E0,-3.101599410E0,1.592158231E0,5.351383460E-1,3.527217002E0
4.447899542E0,-3.297667075E0,1.839042293E0,2.577573258E-2,3.775890502E0
4.457845542E0,-3.427088762E0,1.792844027E0,-7.343728638E-1,3.936817317E0
4.467791542E0,-3.034506703E0,1.657995540E0,-1.119589770E0,3.634647355E0
4.477737542E0,-2.934507036E0,1.423898753E0,-1.133109702E0,3.452934520E0
4.487683542E0,-2.965910093E0,1.102124721E0,-1.540974044E0,3.519361104E0
4.497629542E0,-2.633813387E0,1.088198993E0,-1.659121714E0,3.297549827E0
4.507576542E0,-1.978294319E0,1.319362231E0,-1.403979628E0,2.761435117E0
4.517522542E0,-1.517791588E0,1.516825043E0,-1.148487879E0,2.433818794E0
4.527468542E0,-1.179255928E0,1.680559945E0,-1.097299014E0,2.327872720E0
4.537414542E0,-1.065219435E0,1.781084692E0,-1.302978333E0,2.450450502E0
4.547360542E0,-8.151644272E-1,1.556379703E0,-1.522809083E0,2.325028672E0
4.557306542E0,-8.831634521E-2,9.415303588E-1,-1.226573936E0,1.548793987E0
4.567252542E0,-1.511797607E-1,6.811099917E-1,-9.185297513E-1,1.153456997E0
4.577198542E0,2.555589920E-1,6.424312449E-1,-1.477151685E0,1.630952299E0
4.587144542E0,6.780530673E-1,9.374957800E-1,-1.712844762E0,2.067000599E0
4.597090542E0,8.538653934E-1,8.088921189E-1,-2.025781896E0,2.342474090E0
4.607036542E0,1.059741179E0,1.289536169E0,-2.202206426E0,2.763271257E0
4.616982542E0,1.550758774E0,1.391923839E0,-2.212934897E0,3.039635769E0
4.626928542E0,1.988315862E0,3.061578727E-1,-1.917665709E0,2.779311854E0
4.636874542E0,1.611730031E0,-1.308891622E0,-1.308510969E0,2.454194761E0
4.646820542E0,1.018359849E0,-1.934788696E0,-1.488774780E0,2.645168128E0
4.656766542E0,1.080150885E0,-2.115227339E0,-2.789933460E0,3.663965248E0
4.666712542E0,1.519767362E0,-1.972817232E0,-4.283698254E0,4.954974409E0
4.676658542E0,1.963729489E0,-1.491908888E0,-5.498757852E0,6.026471899E0
4.686604542E0,2.606179445E0,-1.260321726E0,-5.236263478E0,5.983229677E0
4.696550542E0,2.885405627E0,-1.119562288E0,-4.285223207E0,5.286030958E0
4.706496542E0,2.770441766E0,-1.252095863E0,-3.539274026E0,4.665785278E0
4.716443542E0,1.967774009E0,-1.457736005E0,-2.476369504E0,3.482748157E0
4.726389542E0,7.902687371E-1,-2.042936457E0,-1.105671058E0,2.453695689E0
4.736335542E0,3.766612601E-1,-2.255699093E0,3.601885207E-1,2.315121568E0
4.746281542E0,2.546526736E-1,-2.415174884E0,1.427298324E0,2.816930636E0
4.756227542E0,-2.114750791E-1,-3.142771409E0,1.722580376E0,3.590127712E0
4.766173542E0,-1.982890230E-1,-3.869915360E0,1.552701219E0,4.174499312E0
4.776119542E0,5.779504895E-2,-4.230093904E0,1.856441853E0,4.619892971E0
4.786065542E0,5.376918250E-1,-4.328752220E0,2.962887082E0,5.273130772E0
4.796011542E0,1.301504250E0,-4.388956906E0,3.938741766E0,6.039084594E0
4.805957542E0,1.943156061E0,-2.724625323E0,5.728601375E0,6.634479056E0
4.815903542E0,1.459749786E0,-6.076689631E-1,6.591762671E0,6.778751074E0
4.825849542E0,2.706646889E-1,-2.087192863E-1,6.364697746E0,6.373868567E0
4.835795542E0,-1.953262389E-1,-3.244251591E-1,5.457074221E0,5.470197719E0
4.845741542E0,1.254876798E-1,-3.477806926E-1,4.535108646E0,4.550154833E0
4.855687542E0,9.633796495E-1,-3.889754963E-1,3.908381853E0,4.044113128E0
4.865633542E0,1.872380193E0,-5.152238989E-1,2.996586925E0,3.570825738E0
4.875579542E0,2.269867482E0,-7.993944865E-1,1.767534939E0,2.985885076E0
4.885525542E0,2.415642661E0,-9.677533668E-1,6.532041550E-1,2.683011687E0
4.895471542E0,2.092952955E0,-1.132178240E0,-3.239567606E-1,2.401505283E0
4.905417542E0,1.140352648E0,-1.326361933E0,-9.186526159E-1,1.975743599E0
4.915363542E0,-4.330798745E-2,-1.200093066E0,-9.058412933E-1,1.504209891E0
4.925310542E0,-1.113346113E0,-1.005147480E0,-6.165502989E-1,1.621726024E0
4.935256542E0,-1.987680854E0,-6.907853794E-1,-2.656074321E-1,2.120991968E0
4.945202542E0,-2.511249899E0,-1.878704542E-1,4.777642965E-2,2.518720697E0
4.955148542E0,-2.654085683E0,4.589327538E-1,4.797850943E-1,2.735869848E0
4.965094542E0,-2.520403715E0,1.144994168E0,8.797603726E-1,2.904724573E0
4.975040542E0,-2.393283493E0,1.877821028E0,1.069079182E0,3.224429870E0
4.984986542E0,-2.421613837E0,2.563896475E0,1.071219263E0,3.685822760E0
4.994932542E0,-2.332011105E0,3.142077345E0,8.543390179E-1,4.005099373E0
5.004878542E0,-2.134167640E0,3.664313225E0,6.616323316E-1,4.291808507E0
5.014824542E0,-2.021645576E0,4.002581082E0,4.600092262E-1,4.507695047E0
5.024770542E0,-2.029627025E0,4.118592764E0,2.190495622E-1,4.596757001E0
5.034716542E0,-1.921012071E0,4.068272796E0,1.744774250E-1,4.502396394E0
5.044662542E0,-1.877482474E0,3.768645093E0,1.792405303E-1,4.214232249E0
5.054608542E0,-1.980858908E0,3.360477281E0,1.175834137E-1,3.902619047E0
5.064554542E0,-2.107639407E0,2.862427239E0,-1.255315705E-1,3.556879496E0
5.074500542E0,-2.040200545E0,2.301862861E0,-4.004208362E-1,3.101826517E0
5.084446542E0,-1.659925706E0,1.847366974E0,-6.405887872E-1,2.564853228E0
5.094392542E0,-1.236477365E0,1.549156637E0,-8.923383182E-1,2.173713467E0
5.104338542E0,-4.513927692E-1,1.400516322E0,-1.109584014E0,1.842926500E0
5.114284542E0,4.565921134E-1,1.448738894E0,-1.220682281E0,1.948688270E0
5.124231542E0,7.777124262E-1,1.779976645E0,-1.781081184E0,2.635413375E0
5.134177542E0,5.488488972E-1,1.903696711E0,-2.582672469E0,3.255071944E0
5.144123542E0,1.452372354E-1,1.731207358E0,-3.137549261E0,3.586417172E0
5.154069542E0,-9.078854799E-2,1.391136804E0,-3.408299319E0,3.682391671E0
5.164015542E0,-1.870407343E-2,8.526129198E-1,-3.481684799E0,3.584609836E0
5.173961542E0,2.544316489E-1,-6.461874962E-2,-3.499700071E0,3.509531540E0
5.183906667E0,8.284066164E-1,-9.655226541E-1,-3.440594076E0,3.668266500E0
5.193852667E0,1.981316160E0,-1.353305903E0,-3.069670104E0,3.896142341E0
5.203798667E0,3.204653077E0,-1.443351855E0,-2.261821128E0,4.179581407E0
5.213744667E0,4.052812173E0,-1.341433716E0,-1.342187423E0,4.475064022E0
5.223690667E0,4.270453725E0,-1.187283570E0,-1.010884768E0,4.546240789E0
5.233636667E0,4.077006197E0,-9.234542763E-1,-1.401023861E0,4.408811086E0
5.243582667E0,3.777938073E0,-5.505451745E-1,-2.303773731E0,4.459068230E0
5.253528667E0,3.210005618E0,-2.316900730E-2,-2.897440367E0,4.324330417E0
5.263474667E0,2.488067443E0,6.572176838E-1,-2.585802484E0,3.648121321E0
5.273420667E0,2.082757750E0,7.214300519E-1,-1.813545510E0,2.854345543E0
5.283366667E0,2.244950157E0,1.909034050E-1,-4.945294333E-1,2.306686948E0
5.293312667E0,3.011618362E0,7.334104121E-2,1.538045758E0,3.382426469E0
5.303258667E0,3.899002919E0,3.062508434E-1,3.258792447E0,5.090750589E0
5.313205667E0,4.624031932E0,1.555259961E-1,4.263807195E0,6.291733580E0
5.323151667E0,4.938864734E0,-2.612594426E-2,4.691388348E0,6.811915447E0
5.333097667E0,4.583744617E0,-2.748366773E-2,5.202803371E0,6.934019972E0
5.343043667E0,4.197376394E0,2.882332331E-1,6.132930490E0,7.437330393E0
5.352989667E0,3.087156202E0,2.561600858E-1,6.073950795E0,6.818286417E0
5.362935667E0,1.475018620E-2,-3.551399982E-1,4.829698972E0,4.842761005E0
5.372881667E0,-2.722101665E0,-9.976542735E-1,3.540000835E0,4.575670163E0
5.382827667E0,-2.950093959E0,-1.159430358E0,2.805970618E0,4.233297088E0
5.392773667E0,-2.652965941E0,-1.085629726E0,2.543839356E0,3.832484684E0
5.402719667E0,-2.427185065E0,-1.437264318E0,1.687385400E0,3.286978179E0
5.412665667E0,-2.282122076E0,-2.541746637E0,2.854265330E-1,3.427831012E0
5.422611667E0,-1.516127470E0,-4.098283630E0,-2.924561471E-1,4.379509312E0
5.432557667E0,-1.448834789E-1,-5.320464553E0,4.767556518E-1,5.343746834E0
5.442503667E0,7.945781350E-1,-5.569164176E0,2.201947979E0,6.041152120E0
5.452449667E0,7.045666820E-1,-4.431862605E0,3.008453264E0,5.402648555E0
5.462395667E0,1.597634733E-1,-2.649106779E0,2.680640813E0,3.772151410E0
5.472341667E0,-1.111912376E-1,-1.096683303E0,2.303256837E0,2.553442738E0
5.482287667E0,-2.894605637E-1,1.605160099E-1,2.023506160E0,2.050397519E0
5.492233667E0,-8.834908962E-2,1.315637555E0,1.710645039E0,2.159864391E0
5.502180667E0,4.324384350E-1,2.319772298E0,1.196059656E0,2.645544408E0
5.512126667E0,6.501039612E-1,2.829661197E0,5.737322351E-1,2.959524679E0
5.522072667E0,4.731473351E-1,2.786892908E0,2.554016288E-1,2.838286538E0
5.532018667E0,-4.630936325E-2,2.514518493E0,2.933535668E-1,2.531996075E0
5.541964667E0,-7.990038925E-1,2.284673216E0,6.277161419E-1,2.500433259E0
5.551910667E0,-1.445917028E0,2.043653326E0,1.072677486E0,2.723569709E0
5.561856667E0,-2.056724192E0,1.678100606E0,1.350130280E0,2.978084589E0
5.571802667E0,-2.909090359E0,1.212402624E0,1.444471596E0,3.466875399E0
5.581748667E0,-3.675558005E0,8.731085801E-1,1.438999772E0,4.042618654E0
5.591694667E0,-4.146493338E0,7.453784931E-1,1.379395595E0,4.433026992E0
5.601640667E0,-4.255548588E0,7.379496056E-1,1.312560750E0,4.514097820E0
5.611586667E0,-4.155554184E0,7.657250494E-1,1.158052754E0,4.381329890E0
5.621532667E0,-3.894868938E0,8.825915945E-1,9.314450812E-1,4.100800154E0
5.631478667E0,-3.666077330E0,1.095729037E0,5.182656205E-1,3.861262017E0
5.641424667E0,-3.457341086E0,1.363036255E0,-5.714249969E-2,3.716764787E0
5.651370667E0,-3.173366965E0,1.589262105E0,-5.828188447E-1,3.596621990E0
5.661316667E0,-2.875277081E0,1.718445809E0,-1.013117820E0,3.499525969E0
5.671262667E0,-2.536468940E0,1.905542092E0,-1.240417804E0,3.406376620E0
5.681208667E0,-2.111307950E0,1.947276594E0,-1.502691153E0,3.241541006E0
5.691154667E0,-1.689423155E0,2.050195191E0,-1.377405202E0,2.992439809E0
5.701101667E0,-1.224328605E0,2.133091167E0,-1.177452646E0,2.726802742E0
5.711047667E0,-7.360726494E-1,2.112587906E0,-1.316843251E0,2.595940437E0
5.720993667E0,-1.977867472E-1,2.170818572E0,-1.676408422E0,2.749894192E0
5.730939667E0,4.133034217E-1,2.184988130E0,-2.126497847E0,3.076846752E0
5.740885667E0,1.036793781E0,2.102851122E0,-2.529844630E0,3.449208320E0
5.750831667E0,1.761663165E0,2.111462901E0,-2.741806197E0,3.883198928E0
5.760777667E0,2.203995674E0,2.057806512E0,-2.755353026E0,4.084621753E0
5.770723667E0,2.023341853E0,1.700778447E0,-2.379838990E0,3.556711009E0
5.780669667E0,1.713342944E0,6.014691603E-1,-1.981061806E0,2.687362104E0
5.790615667E0,1.565603685E0,-1.444877978E0,-2.224271479E0,3.079962805E0
5.800561667E0,1.382101101E0,-3.531998920E0,-3.163676959E0,4.939035506E0
5.810507667E0,1.803569575E0,-4.564219594E0,-3.837305439E0,6.229757358E0
5.820453667E0,2.867523673E0,-3.492305682E0,-4.134251608E0,6.124616506E0
5.830399667E0,3.169793732E0,-1.231433557E0,-4.769321208E0,5.857511903E0
5.840345667E0,3.723967103E0,6.252936405E-1,-5.287690909E0,6.497584033E0
5.850291667E0,4.966025636E0,2.036086444E0,-4.999701505E0,7.335126022E0
5.860237667E0,5.337296932E0,2.422396195E0,-3.660459909E0,6.910405821E0
5.870183667E0,3.910192151E0,5.404750997E-1,-1.989837892E0,4.420539654E0
5.880129667E0,2.850397763E0,-1.532575103E0,-2.624031214E-1,3.246907644E0
5.890076667E0,2.848607345E0,-2.989005425E0,1.189253497E0,4.296864103E0
5.900022667E0,3.007908888E0,-4.116351526E0,2.190847625E0,5.549025057E0
5.909968667E0,2.420930298E0,-5.266768987E0,2.796948949E0,6.436045563E0
5.919914667E0,1.203948720E0,-5.289446828E0,4.009260356E0,6.745510275E0
5.929860667E0,-5.764150107E-1,-3.782999423E0,5.906092436E0,7.037419042E0
5.939806667E0,-2.091360759E0,-2.416854204E0,7.118306780E0,7.802901094E0
5.949752667E0,-2.854774988E0,-1.471707342E0,7.387259989E0,8.055263675E0
5.959698667E0,-2.658930101E0,-1.036488556E0,6.745035151E0,7.323914049E0
5.969644667E0,-1.519472662E0,-7.376812184E-1,5.376152850E0,5.635245355E0
5.979590667E0,4.430265731E-1,-2.697519386E-1,4.460828542E0,4.490882979E0
5.989536667E0,2.616200404E0,1.173161960E-1,4.375124733E0,5.099017951E0
5.999482667E0,3.743994986E0,1.463224787E-1,4.839063873E0,6.120085611E0
6.009428667E0,3.903034574E0,-2.400322956E-1,5.102271023E0,6.428410689E0
6.019374667E0,3.763523517E0,-5.739352065E-1,4.784518121E0,6.114337621E0
6.029320667E0,3.199613947E0,-4.028480154E-1,3.998340681E0,5.136783442E0
6.039266667E0,2.285104741E0,2.063862473E-1,2.650793701E0,3.505853135E0
6.049212667E0,1.186835089E0,5.523677516E-1,9.609834605E-1,1.623938691E0
6.059158667E0,1.875640601E-1,5.180235457E-1,-5.680862367E-2,5.538554778E-1
6.069104667E0,-7.248571050E-1,4.790594548E-1,-1.723047276E-1,8.857791503E-1
6.079050667E0,-1.587733642E0,5.026909769E-1,-1.093037564E-1,1.668994802E0
6.088997667E0,-2.103206633E0,5.634394544E-1,-1.629472822E-1,2.183459177E0
6.098943667E0,-2.501264024E0,6.058990109E-1,-4.711049026E-1,2.616366786E0
6.108889667E0,-2.771163313E0,8.087096858E-1,-8.553929054E-1,3.010822892E0
6.118835667E0,-2.715712413E0,1.367432776E0,-1.196613387E0,3.267544935E0
6.128781667E0,-2.578799858E0,2.152124439E0,-1.351260109E0,3.620462980E0
6.138727667E0,-2.726377149E0,2.979817695E0,-1.258421381E0,4.230374715E0
6.148673667E0,-2.912340826E0,3.761731346E0,-9.974098599E-1,4.860779591E0
6.158619667E0,-3.139693435E0,4.254199635E0,-6.085179788E-1,5.322234825E0
6.168565667E0,-3.161832163E0,4.437755429E0,-1.965904800E-1,5.452476840E0
6.178511667E0,-2.986306350E0,4.327939457E0,-3.029150069E-2,5.258327028E0
6.188458417E0,-2.800749639E0,3.917880070E0,-2.288981006E-1,4.821449691E0
6.198404417E0,-2.384193996E0,3.218330884E0,-8.407109123E-1,4.092533388E0
6.208350417E0,-1.888804438E0,2.551593348E0,-1.317630286E0,3.437202407E0
6.218296417E0,-1.430733563E0,1.992319450E0,-1.730467100E0,3.001808073E0
6.228242417E0,-1.022679772E0,1.651908588E0,-2.070682080E0,2.839436595E0
6.238188417E0,-6.373313034E-1,1.437373661E0,-2.219604816E0,2.720088192E0
6.248134417E0,-3.788867104E-1,1.262331414E0,-2.298574972E0,2.649619338E0
6.258080417E0,-1.619965249E-1,1.065924609E0,-2.232782686E0,2.479467013E0
6.268026417E0,-1.386579484E-1,9.047303224E-1,-1.975252597E0,2.177013047E0
6.277972417E0,-2.426442468E-1,6.921109432E-1,-1.433812707E0,1.610500750E0
6.287919417E0,-4.120310676E-1,1.243305159E-1,-9.364157993E-1,1.030583440E0
6.297865417E0,-5.667308521E-1,-7.874199736E-1,-7.922643918E-1,1.252556162E0
6.307811417E0,-2.729316545E-1,-1.709691358E0,-9.821065271E-1,1.990494777E0
6.317757417E0,7.695608228E-1,-2.207093529E0,-1.469083697E0,2.760741316E0
6.327703417E0,2.773990442E0,-1.880331822E0,-1.563714450E0,3.698090536E0
6.337649417E0,4.799537280E0,-6.786120611E-1,-7.732276118E-1,4.908559195E0
6.347595417E0,5.941197950E0,7.080568850E-1,-1.476580010E-1,5.985063117E0
6.357541417E0,6.381712559E0,1.850635568E0,-5.323199880E-1,6.665918673E0
6.367487417E0,6.147675998E0,2.695164712E0,-1.694603788E0,6.923114545E0
6.377433417E0,5.657336680E0,3.404088447E0,-2.674664959E0,7.123700520E0
6.387379417E0,5.260249926E0,3.845218183E0,-2.640679187E0,7.030584522E0
6.397325417E0,4.558301042E0,3.780065290E0,-1.964044070E0,6.238947916E0
6.407271417E0,3.427496313E0,3.183372720E0,-1.312577122E0,4.858441268E0
6.417217417E0,2.903457152E0,2.129757962E0,-3.626408064E-1,3.619038652E0
6.427163417E0,3.190294654E0,1.190452761E0,1.212383913E0,3.614558411E0
6.437109417E0,3.941743142E0,3.686116907E-1,2.108287863E0,4.485319530E0
6.447055417E0,5.238345087E0,-3.388423464E-1,2.182967917E0,5.685105303E0
6.457001417E0,6.015408472E0,-3.145489195E-1,2.717335600E0,6.608176213E0
6.466947417E0,5.559130939E0,2.204675120E-1,4.084671312E0,6.901962217E0
6.476893417E0,3.662965441E0,2.344616532E-1,4.733556129E0,5.989894967E0
6.486839417E0,1.064374512E0,-5.448306906E-1,3.982352639E0,4.157988231E0
6.496786417E0,-1.620434196E0,-1.418843250E0,3.802252550E0,4.369902471E0
6.506732417E0,-3.642660985E0,-2.137888223E0,3.932916185E0,5.771254181E0
6.516678417E0,-4.372780584E0,-2.452224011E0,3.946673514E0,6.380505032E0
6.526624417E0,-4.184952815E0,-2.617442352E0,4.010229240E0,6.359777754E0
6.536570417E0,-3.059768429E0,-3.065546647E0,3.162364844E0,5.362864020E0
6.546516417E0,-1.542319488E0,-3.799005591E0,1.280266578E0,4.295378376E0
6.556462417E0,-3.733254236E-1,-4.822736692E0,1.954758545E-1,4.841112670E0
6.566408417E0,2.393785769E-1,-5.595127568E0,9.662428848E-1,5.682990402E0
6.576354417E0,-2.537054247E-1,-5.563169611E0,3.027312874E0,6.338599671E0
6.586300417E0,-7.264750296E-1,-4.629341204E0,3.581918355E0,5.898195067E0
6.596246417E0,-1.116514719E0,-2.892217634E0,2.445405135E0,3.948611684E0
6.606192417E0,-1.369468192E0,-1.145823888E0,1.454875109E0,2.303262272E0
6.616138417E0,-1.640765550E0,6.581158161E-2,5.855237301E-1,1.743353318E0
6.626084417E0,-1.747659668E0,8.134166944E-1,-9.762979031E-2,1.930153520E0
6.636030417E0,-1.545288704E0,1.366825835E0,-2.862599440E-1,2.082804551E0
6.645976417E0,-1.207300344E0,1.779099562E0,-6.583146214E-2,2.151070234E0
6.655922417E0,-1.080991715E0,2.198192312E0,4.068001485E-1,2.483159054E0
6.665868417E0,-1.211243121E0,2.474975528E0,6.123034662E-1,2.822681224E0
6.675814417E0,-1.201913888E0,2.524638854E0,2.769885258E-1,2.809825792E0
6.685761417E0,-1.178449597E0,2.384571726E0,-1.307074893E-1,2.663082841E0
6.695707417E0,-1.186736856E0,2.120866393E0,-4.363940763E-1,2.469181729E0
6.705653417E0,-1.242627466E0,1.793780751E0,-7.973333430E-1,2.323254800E0
6.715599417E0,-1.359856539E0,1.512298713E0,-1.148822340E0,2.335818908E0
6.725545417E0,-1.629772784E0,1.356081576E0,-1.293580688E0,2.483639983E0
6.735491417E0,-2.159563851E0,1.258610246E0,-1.035670531E0,2.705629174E0
6.745437417E0,-2.752386149E0,1.228487729E0,-6.879015326E-1,3.091604783E0
6.755383417E0,-3.436261289E0,1.275516300E0,-4.713417149E-1,3.695537375E0
6.765329417E0,-4.066606339E0,1.437380678E0,-2.394809031E-1,4.319803402E0
6.775275417E0,-4.203417737E0,1.605048417E0,4.510658185E-2,4.499659509E0
6.785221417E0,-4.050682032E0,1.681027138E0,6.459477603E-2,4.386120113E0
6.795167417E0,-3.570661295E0,1.883779340E0,3.481080453E-2,4.037258783E0
6.805113417E0,-3.090162840E0,2.123144469E0,-2.775965631E-2,3.749349199E0
6.815059417E0,-2.646398349E0,2.337437321E0,-1.758164191E-1,3.535243819E0
6.825005417E0,-2.217865269E0,2.494399393E0,-4.203323597E-1,3.364169136E0
6.834951417E0,-1.791272880E0,2.582490036E0,-6.536426961E-1,3.210165431E0
6.844897417E0,-1.302043363E0,2.424046279E0,-9.019277519E-1,2.895650351E0
6.854843417E0,-8.272377580E-1,1.918935724E0,-1.377057878E0,2.502583669E0
6.864789417E0,-3.889445060E-1,1.337482753E0,-1.931661605E0,2.381481576E0
6.874735417E0,-3.313909471E-2,5.362849849E-1,-2.539503061E0,2.595722554E0
6.884681417E0,4.581860644E-1,-3.451529539E-1,-3.027273113E0,3.081143867E0
6.894628417E0,1.200304735E0,-7.296956760E-1,-3.394498136E0,3.673663680E0
6.904574417E0,2.241057081E0,-5.056455749E-1,-3.983413324E0,4.598434081E0
6.914520417E0,3.002031267E0,-5.750105095E-1,-4.505743929E0,5.444681549E0
6.924466417E0,2.841191322E0,-1.834586130E0,-4.668602918E0,5.764887476E0
6.934412417E0,2.319056599E0,-3.313265693E0,-4.462112006E0,6.022142194E0
6.944358417E0,2.299777159E0,-3.882685094E0,-4.484904453E0,6.362278403E0
6.954304417E0,2.282213293E0,-3.103619623E0,-5.036300397E0,6.340762885E0
6.964250417E0,2.263519744E0,-1.222796634E0,-5.314819651E0,5.904749035E0
6.974196417E0,2.651463792E0,2.072218144E-1,-5.312438664E0,5.940976829E0
6.984142417E0,3.509685361E0,1.186743287E0,-4.777982104E0,6.046103203E0
6.994088417E0,4.393499608E0,1.455116453E0,-3.563385605E0,5.841054670E0
7.004034417E0,4.462075168E0,1.839265072E-1,-1.963252941E0,4.878350734E0
7.013980417E0,3.817098046E0,-1.908247014E0,-8.778225323E-1,4.356858565E0
7.023926417E0,3.585261793E0,-3.646122537E0,-2.230011106E-2,5.113590614E0
7.033872417E0,3.348319750E0,-4.953990896E0,8.138015143E-1,6.034529299E0
7.043818417E0,2.213049502E0,-6.081819978E0,1.983588388E0,6.769102247E0
7.053764417E0,7.966106272E-1,-6.011737005E0,4.060128794E0,7.297959724E0
7.063710417E0,-2.970847481E-1,-4.100609068E0,6.087781799E0,7.346042561E0
7.073656417E0,-1.535760081E0,-1.716391683E0,6.705619655E0,7.090126543E0
7.083603417E0,-2.611358324E0,-1.600026244E-1,6.778488826E0,7.265858786E0
7.093549417E0,-2.847778210E0,1.923190159E-1,6.751181159E0,7.329752682E0
7.103495417E0,-2.356750674E0,8.401805699E-2,6.229913578E0,6.661317885E0
7.113441417E0,-1.242264939E0,-2.598034859E-2,5.345981217E0,5.488479965E0
7.123387417E0,6.807913184E-1,-2.555543143E-1,5.027155352E0,5.079475933E0
7.133333417E0,2.543095005E0,-3.835960579E-1,5.355488205E0,5.941021129E0
7.143279417E0,3.752459416E0,-4.587637693E-1,5.681085731E0,6.823939547E0
7.153225417E0,4.502265421E0,-5.269826496E-1,5.473786733E0,7.107070130E0
7.163171417E0,4.650856619E0,-3.152350903E-2,4.402197341E0,6.403967712E0
7.173117417E0,4.038925620E0,8.719426453E-1,3.085054128E0,5.156623228E0
7.183063000E0,2.288572140E0,1.306853283E0,1.308601016E0,2.942424946E0
7.193009000E0,1.237525186E0,1.194729999E0,1.934381729E-1,1.730972757E0
7.202955000E0,1.990614402E-1,9.334261179E-1,2.662593967E-1,9.908601520E-1
7.212901000E0,-1.044271785E0,5.477116138E-1,6.040108719E-1,1.324885167E0
7.222847000E0,-1.940709001E0,1.195334601E-1,8.597435993E-1,2.125981828E0
7.232793000E0,-2.667070595E0,-1.897234368E-1,8.349982557E-1,2.801157373E0
7.242739000E0,-3.206565117E0,-1.188990372E-1,6.420406508E-1,3.272371163E0
7.252685000E0,-3.617872299E0,1.702598101E-1,1.535864381E-1,3.625131331E0
7.262631000E0,-3.770748922E0,6.148201078E-1,-2.875070455E-1,3.831345912E0
7.272577000E0,-3.897823536E0,1.076663606E0,-3.492939520E-1,4.058847016E0
7.282524000E0,-3.921396001E0,1.514663912E0,-2.671662998E-1,4.212235890E0
7.292470000E0,-4.085425603E0,1.892764757E0,-1.947176168E-1,4.506792177E0
7.302416000E0,-4.184527722E0,2.172267512E0,-8.394796349E-2,4.715513298E0
7.312362000E0,-3.980034803E0,2.503180742E0,-7.176116008E-2,4.702312253E0
7.322308000E0,-3.567547653E0,2.760430748E0,-2.397902209E-1,4.517175392E0
7.332254000E0,-3.132055217E0,2.885957020E0,-6.170736247E-1,4.303405356E0
7.342200000E0,-2.579644196E0,2.974425393E0,-9.504245585E-1,4.050318190E0
7.352146000E0,-2.023268763E0,3.026849774E0,-1.229898078E0,3.842926661E0
7.362092000E0,-1.564980957E0,2.997497921E0,-1.575685455E0,3.730542029E0
7.372038000E0,-1.042339865E0,2.983979743E0,-1.873777093E0,3.674458885E0
7.381984000E0,-7.108688110E-1,2.919406602E0,-2.000297391E0,3.609634196E0
7.391930000E0,-4.503139579E-1,2.666915059E0,-1.969541037E0,3.345789965E0
7.401876000E0,-3.735920566E-1,2.566918316E0,-1.753438472E0,3.131004174E0
7.411822000E0,-2.000402641E-1,2.444683442E0,-1.538598320E0,2.895475441E0
7.421768000E0,1.051083791E-1,1.806314843E0,-1.496335230E0,2.347943824E0
7.431714000E0,5.162997866E-1,6.943697226E-1,-1.742567913E0,1.945573877E0
7.441660000E0,1.055412485E0,-5.199233061E-1,-2.151783546E0,2.452424961E0
7.451607000E0,2.019379195E0,-1.217917133E0,-2.451277932E0,3.401467033E0
7.461553000E0,3.632901982E0,-8.381147486E-1,-2.233634040E0,4.346209172E0
7.471499000E0,4.893188040E0,3.571385765E-1,-1.206647794E0,5.052408936E0
7.481445000E0,5.379278187E0,1.477363646E0,-3.606317031E-1,5.590106652E0
7.491391000E0,5.610853654E0,2.098373032E0,-5.801110357E-1,6.018419803E0
7.501337000E0,5.634278769E0,2.264156798E0,-1.939254214E0,6.374339979E0
7.511283000E0,5.689968236E0,2.350750554E0,-3.003738654E0,6.850125006E0
7.521229000E0,5.589468632E0,2.318329497E0,-3.052467595E0,6.777489924E0
7.531175000E0,4.732491351E0,1.861329248E0,-2.019180390E0,5.471572937E0
7.541121000E0,3.012134086E0,8.549439123E-1,-1.184035442E0,3.347509638E0
7.551067000E0,1.653795485E0,-3.678024361E-1,-7.431156206E-1,1.850010531E0
7.561013000E0,1.624199803E0,-1.004580593E0,4.664242065E-1,1.965898957E0
7.570959000E0,2.234746765E0,-1.158250390E0,1.528636419E0,2.944888177E0
7.580905000E0,3.502675134E0,-1.204725814E0,2.083740667E0,4.249949711E0
7.590851000E0,4.606161672E0,-9.971522900E-1,2.233310689E0,5.215238698E0
7.600797000E0,4.513478041E0,-4.907182181E-1,2.665804673E0,5.264864951E0
7.610743000E0,3.772598981E0,-2.331042221E-1,3.601376134E0,5.220799815E0
7.620689000E0,2.272079483E0,-2.614085466E-1,3.611982399E0,4.275172096E0
7.630635000E0,2.534417152E-2,-1.062517437E0,3.035683163E0,3.216357862E0
7.640582000E0,-2.415550860E0,-2.043362135E0,3.573766167E0,4.773051370E0
7.650528000E0,-4.243030284E0,-2.810766797E0,4.041345198E0,6.498937374E0
7.660474000E0,-4.872393002E0,-3.450175031E0,3.943275697E0,7.154952448E0
7.670420000E0,-4.333061033E0,-4.001582378E0,3.496680568E0,6.856737886E0
7.680366000E0,-2.768649010E0,-4.599725057E0,2.311349968E0,5.845102789E0
7.690312000E0,-1.055755132E0,-5.490069475E0,7.480507437E-1,5.640484168E0
7.700258000E0,1.006101161E-1,-5.988807734E0,5.363937432E-1,6.013622761E0
7.710204000E0,-7.834918141E-2,-5.447749667E0,1.934676429E0,5.781616375E0
7.720150000E0,1.375914162E-1,-3.797057884E0,2.897381310E0,4.778221262E0
7.730096000E0,3.944210082E-1,-1.692918620E0,2.277709767E0,2.865223058E0
7.740042000E0,2.889647198E-1,1.546945220E-1,1.404805840E0,1.442536118E0
7.749988000E0,-1.209900016E-1,1.418322848E0,7.364579078E-1,1.602700387E0
7.759934000E0,-6.513008863E-1,2.087238472E0,3.367978674E-1,2.212281647E0
7.769880000E0,-8.905490702E-1,2.346468930E0,3.058982198E-1,2.528352786E0
7.779826000E0,-9.104658562E-1,2.499398178E0,6.252720058E-1,2.732563706E0
7.789772000E0,-1.300588576E0,2.625540746E0,1.016578787E0,3.101358941E0
7.799718000E0,-1.563413903E0,2.684696442E0,1.101773888E0,3.296325791E0
7.809664000E0,-1.789744418E0,2.690512667E0,8.934808642E-1,3.352663352E0
7.819611000E0,-1.950500164E0,2.546677009E0,3.837293744E-1,3.230675303E0
7.829557000E0,-2.230303466E0,2.274482689E0,-7.905201674E-2,3.186498749E0
7.839503000E0,-2.694359550E0,1.816944496E0,-5.155665457E-1,3.290390486E0
7.849449000E0,-3.150264616E0,1.163708181E0,-1.017285715E0,3.509024666E0
7.859395000E0,-3.482147899E0,4.992112988E-1,-1.335047972E0,3.762568139E0
7.869341000E0,-3.564735727E0,-1.712649465E-2,-1.459821707E0,3.852105078E0
7.879287000E0,-3.628662166E0,-2.272368336E-1,-1.332627225E0,3.872301772E0
7.889233000E0,-3.620864904E0,-2.318818617E-1,-1.046107811E0,3.776079104E0
7.899179000E0,-3.627848818E0,-8.763222098E-2,-9.367490906E-1,3.747861432E0
7.909125000E0,-3.675971988E0,2.949399894E-1,-9.274128413E-1,3.802611501E0
7.919071000E0,-3.570499327E0,6.869993073E-1,-9.434488302E-1,3.756398433E0
7.929017000E0,-3.210875684E0,1.039450756E0,-8.923383182E-1,3.490909367E0
7.938963000E0,-2.762248063E0,1.390865493E0,-8.259443539E-1,3.201047525E0
7.948909000E0,-2.345080217E0,1.736829455E0,-8.302192533E-1,3.034014138E0
7.958855000E0,-1.933981195E0,1.905155007E0,-8.755328357E-1,2.852447477E0
7.968801000E0,-1.469377812E0,1.971742514E0,-8.780635107E-1,2.611098470E0
7.978747000E0,-9.809622270E-1,1.903060534E0,-9.151950842E-1,2.328413264E0
7.988693000E0,-4.359678143E-1,1.828310314E0,-9.394569361E-1,2.101277201E0
7.998639000E0,6.686466515E-2,1.796783881E0,-1.065936888E0,2.090245117E0
8.008585000E0,5.454300302E-1,1.772196339E0,-1.349039190E0,2.293050483E0
8.018532000E0,1.233535631E0,1.761426938E0,-1.704462193E0,2.743980025E0
8.028478000E0,2.108512396E0,1.978095514E0,-1.955427028E0,3.490326811E0
8.038424000E0,2.992956389E0,2.165385924E0,-2.482609652E0,4.450846530E0
8.048370000E0,3.221904117E0,1.210383580E0,-3.177599180E0,4.684317570E0
8.058316000E0,2.801223264E0,-9.521021247E-1,-3.304280276E0,4.435269820E0
8.068262000E0,2.365962963E0,-3.142831635E0,-3.203043923E0,5.072934240E0
8.078208000E0,2.089826449E0,-4.684148911E0,-3.862719777E0,6.420999118E0
8.088154000E0,1.999063629E0,-5.335677254E0,-4.862780764E0,7.490817306E0
8.098100000E0,2.128927365E0,-4.440926959E0,-5.265679650E0,7.209822894E0
8.108046000E0,2.003347884E0,-2.830442385E0,-5.519282749E0,6.518227435E0
8.117992000E0,2.193638501E0,-1.964766201E0,-5.269964490E0,6.036959650E0
8.127938000E0,3.186324395E0,-2.415766622E0,-4.251379523E0,5.836336126E0
8.137884000E0,4.322664099E0,-3.403508695E0,-3.178728862E0,6.354023413E0
8.147830000E0,4.412691924E0,-4.252688715E0,-1.417235266E0,6.290132520E0
8.157776000E0,3.985365125E0,-5.138193392E0,5.067009243E-1,6.522339484E0
8.167722000E0,3.709202299E0,-5.683033438E0,1.727782059E0,7.002876666E0
8.177668000E0,2.798892564E0,-4.430320694E0,2.715760360E0,5.902278829E0
8.187613792E0,6.490912235E-1,-1.937652077E0,3.370034555E0,3.941186102E0
8.197559792E0,-1.140795867E0,1.496068597E-1,3.593089460E0,3.772809204E0
8.207506792E0,-2.124670007E0,1.413855575E0,3.948139411E0,4.701171666E0
8.217452792E0,-2.406067261E0,1.703576925E0,4.683188213E0,5.533858133E0
8.227398792E0,-2.072867185E0,1.402547645E0,5.188094115E0,5.760229059E0
8.237344792E0,-1.377270716E0,1.040882739E0,5.552427106E0,5.814615918E0
8.247290792E0,-2.335418862E-1,5.320632952E-1,5.998252741E0,6.026331314E0
8.257236792E0,1.297236952E0,-2.532534349E-1,6.458396453E0,6.592256500E0
8.267182792E0,2.908482249E0,-1.067264791E0,6.585453526E0,7.277810197E0
8.277128792E0,3.936847853E0,-1.414357266E0,5.964358186E0,7.285104396E0
8.287074792E0,4.345650673E0,-7.346435899E-1,4.336564685E0,6.183055413E0
8.297020792E0,3.784130859E0,4.358947241E-1,2.387633328E0,4.495602683E0
8.306966792E0,2.363160977E0,1.212450571E0,8.731892717E-1,2.795894435E0
8.316912792E0,8.785815740E-1,1.182996392E0,5.127635367E-2,1.474454241E0
8.326858792E0,-3.004644388E-1,5.661204028E-1,1.569030154E-1,6.598406972E-1
8.336804792E0,-1.192103430E0,-2.468612587E-1,5.298991676E-1,1.327721430E0
8.346750792E0,-1.989822689E0,-8.033676696E-1,9.220578881E-1,2.335590867E0
8.356696792E0,-2.509807391E0,-1.009836947E0,1.140774817E0,2.936029800E0
8.366642792E0,-2.963218619E0,-9.698507631E-1,8.489560711E-1,3.231408594E0
8.376588792E0,-3.036091298E0,-5.547920072E-1,3.156011990E-1,3.102458487E0
8.386534792E0,-3.050973632E0,-1.074718237E-3,-4.800926578E-1,3.088515860E0
8.396480792E0,-3.321914309E0,4.485948765E-1,-1.014971972E0,3.502359226E0
8.406427792E0,-3.629496564E0,8.477901363E-1,-1.037045869E0,3.868779854E0
8.416373792E0,-4.011015691E0,1.153772593E0,-5.239193664E-1,4.206415287E0
8.426319792E0,-4.351071627E0,1.297500077E0,1.302736259E-1,4.542279380E0
8.436265792E0,-4.564055872E0,1.442148498E0,6.958765501E-1,4.836800850E0
8.446211792E0,-4.675302073E0,1.629343598E0,9.247628832E-1,5.036704918E0
8.456157792E0,-4.556700075E0,1.856803503E0,7.343453819E-1,4.974987232E0
8.466103792E0,-4.199648037E0,2.232123120E0,4.028958895E-1,4.773022350E0
8.476049792E0,-3.602969500E0,2.683053082E0,-7.676809430E-2,4.492889538E0
8.485995792E0,-3.095595489E0,3.081872950E0,-5.665033954E-1,4.404722285E0
8.495941792E0,-2.700034858E0,3.325611796E0,-8.278488652E-1,4.362936602E0
8.505887792E0,-2.191477954E0,3.418970780E0,-9.158623246E-1,4.163020612E0
8.515833792E0,-1.659056810E0,3.377871578E0,-1.007537237E0,3.895846145E0
8.525779792E0,-1.115146471E0,3.198588053E0,-1.172084756E0,3.584452519E0
8.535725792E0,-5.754952437E-1,2.938913790E0,-1.379746428E0,3.297288166E0
8.545671792E0,-9.919216633E-2,2.669957073E0,-1.780443837E0,3.210683746E0
8.555617792E0,2.953066099E-1,2.108581393E0,-2.263609791E0,3.107611748E0
8.565563792E0,5.455411273E-1,1.050701968E0,-2.446593727E0,2.717979142E0
8.575509792E0,9.285290748E-1,-1.619228500E-1,-2.499730300E0,2.671523315E0
8.585455792E0,1.864356644E0,-1.091931855E0,-2.943294232E0,3.651180879E0
8.595402792E0,3.888952140E0,-1.067969673E0,-3.329236193E0,5.229562276E0
8.605348792E0,5.830900751E0,8.168940336E-2,-2.946261109E0,6.533493036E0
8.615294792E0,6.500547277E0,1.527726007E0,-2.067131066E0,6.990285580E0
8.625240792E0,6.530662776E0,2.608113412E0,-1.813356645E0,7.262236170E0
8.635186792E0,6.151846817E0,2.877570359E0,-2.527890490E0,7.246782787E0
8.645132792E0,5.898021525E0,2.636581166E0,-3.790682665E0,7.490493523E0
8.655078792E0,5.521072581E0,2.180888354E0,-4.554647702E0,7.482201023E0
8.665024792E0,4.838308412E0,1.442889340E0,-3.941460721E0,6.405175295E0
8.674970792E0,3.837731701E0,4.078810063E-1,-1.842834213E0,4.276749871E0
8.684916792E0,2.836741590E0,-6.008958408E-1,2.095911062E-1,2.907250779E0
8.694862792E0,2.972091184E0,-9.218638337E-1,2.013080574E0,3.706164100E0
8.704808792E0,3.544088039E0,-6.866575375E-1,3.101783012E0,4.759529016E0
8.714754792E0,4.191693485E0,-2.693628064E-1,2.966498907E0,5.142272490E0
8.724700792E0,5.097942329E0,7.061682343E-2,2.846178412E0,5.839069641E0
8.734646792E0,5.779936420E0,4.560003752E-1,3.511880990E0,6.778562491E0
8.744592792E0,4.947726774E0,6.630520356E-1,4.388555202E0,6.646732656E0
8.754538792E0,3.170033467E0,4.386762446E-1,3.894506995E0,5.040707665E0
8.764484792E0,9.448416370E-1,-4.803215763E-1,2.581759719E0,2.790863268E0
8.774430792E0,-1.649073274E0,-1.697534412E0,1.830444548E0,2.991921286E0
8.784377792E0,-3.719605080E0,-2.596352322E0,2.178742719E0,5.032238783E0
8.794323792E0,-4.189282678E0,-3.016483830E0,3.321027287E0,6.138280402E0
8.804269792E0,-3.768123522E0,-3.276071554E0,4.011519136E0,6.404973496E0
8.814215792E0,-3.087542703E0,-3.948753076E0,3.734424849E0,6.250719939E0
8.824161792E0,-1.828761134E0,-5.094717005E0,2.693136898E0,6.045948643E0
8.834107792E0,-6.706107312E-1,-5.734566119E0,2.387579534E0,6.247839896E0
8.844053792E0,-5.846169001E-1,-5.467050741E0,2.956407782E0,6.242657102E0
8.853999792E0,-1.782646483E-1,-4.062367693E0,3.219969274E0,5.186792041E0
8.863945792E0,-9.220298946E-2,-1.940239470E0,2.275729900E0,2.991985490E0
8.873891792E0,-3.570906293E-1,-3.989555240E-2,1.609507650E0,1.649127117E0
8.883837792E0,-1.033754398E0,1.148406603E0,1.137261956E0,1.918554309E0
8.893783792E0,-1.706381834E0,1.696093658E0,6.865075564E-1,2.501952295E0
8.903729792E0,-1.930545371E0,1.832854185E0,5.075600995E-1,2.709977334E0
8.913675792E0,-1.780777713E0,1.799309878E0,5.823662337E-1,2.597659664E0
8.923621792E0,-1.846470011E0,1.745637116E0,6.852755481E-1,2.631787040E0
8.933567792E0,-1.937273178E0,1.799771224E0,6.445204550E-1,2.721692569E0
8.943513792E0,-2.061799575E0,1.967157127E0,4.354170066E-1,2.882761284E0
8.953459792E0,-2.271021137E0,2.135813631E0,2.128731483E-1,3.124828291E0
8.963405792E0,-2.502158064E0,2.177583216E0,-4.382140953E-2,3.317315775E0
8.973352792E0,-2.649802598E0,2.154398421E0,-2.891951366E-1,3.427319680E0
8.983298792E0,-2.668762195E0,2.056948725E0,-6.076087002E-1,3.423816298E0
8.993244792E0,-2.765848778E0,1.798066176E0,-9.808312494E-1,3.441655325E0
9.003190792E0,-2.880078229E0,1.479270131E0,-1.147050633E0,3.434940448E0
9.013136792E0,-3.021949807E0,1.136929688E0,-1.153507129E0,3.428610280E0
9.023082792E0,-3.261283945E0,8.481269360E-1,-1.145391778E0,3.559103061E0
9.033028792E0,-3.537771876E0,6.266770917E-1,-1.175579199E0,3.780283122E0
9.042974792E0,-3.757648820E0,4.604202855E-1,-1.198645222E0,3.970977444E0
9.052920792E0,-3.758226525E0,3.426836747E-1,-1.241891887E0,3.972907521E0
9.062866792E0,-3.509178992E0,2.859130579E-1,-1.301650431E0,3.753715135E0
9.072812792E0,-3.037044979E0,4.389171499E-1,-1.443560600E0,3.391188240E0
9.082758792E0,-2.484849136E0,7.359206218E-1,-1.560003222E0,3.024841226E0
9.092704792E0,-1.955271492E0,1.029784139E0,-1.596099839E0,2.726000124E0
9.102650792E0,-1.512695739E0,1.234093455E0,-1.699832953E0,2.588564684E0
9.112596792E0,-1.131549665E0,1.379269295E0,-1.895859688E0,2.603281081E0
9.122542792E0,-8.058357793E-1,1.446323410E0,-1.976599796E0,2.578404441E0
9.132488792E0,-4.922022414E-1,1.411057683E0,-1.997734557E0,2.494852739E0
9.142435792E0,-1.446010584E-1,1.204825217E0,-1.837857063E0,2.202324193E0
9.152381792E0,3.285509545E-1,1.042769051E0,-1.356256993E0,1.742052253E0
9.162327792E0,1.156611416E0,1.139543978E0,-8.956016493E-1,1.854295758E0
9.172273792E0,2.295553131E0,1.360023769E0,-8.419511068E-1,2.797876068E0
9.182219792E0,3.227537910E0,6.533637840E-1,-1.435090324E0,3.592126032E0
9.192169167E0,3.689175586E0,-1.080740284E0,-2.536537353E0,4.605652810E0
9.202115167E0,3.857100602E0,-2.881897298E0,-3.579824467E0,5.999808356E0
9.212061167E0,3.749211872E0,-3.956129631E0,-4.508694434E0,7.073604232E0
9.222007167E0,3.438849267E0,-3.965909684E0,-5.118208194E0,7.331451358E0
9.231953167E0,3.085908406E0,-2.926478809E0,-5.357986135E0,6.840696188E0
9.241899167E0,2.898739033E0,-1.729922140E0,-5.429131547E0,6.393026509E0
9.251845167E0,3.088208116E0,-8.282504958E-1,-5.450875003E0,6.319419796E0
9.261791167E0,3.584665961E0,1.471597999E-1,-4.981687403E0,6.139111942E0
9.271737167E0,3.116815619E0,3.225008404E-1,-3.842786618E0,4.958382336E0
9.281683167E0,1.604478314E0,-1.216554732E0,-2.040284160E0,2.866551156E0
9.291629167E0,9.650420129E-1,-3.282177216E0,-7.937748007E-1,3.511989721E0
9.301575167E0,7.343348569E-1,-4.828253540E0,2.251319090E-1,4.888963521E0
9.311522167E0,6.711720639E-1,-6.130151893E0,1.122617458E0,6.268134023E0
9.321468167E0,7.728849649E-1,-7.109297390E0,2.009588617E0,7.428183288E0
9.331414167E0,9.176503301E-1,-6.792306966E0,3.283596336E0,7.599968483E0
9.341360167E0,7.818007994E-1,-4.344616885E0,4.835466081E0,6.547414802E0
9.351306167E0,7.365386724E-2,-1.075023462E0,5.468637675E0,5.573786716E0
9.361252167E0,-9.770855230E-1,1.564347119E0,5.519219599E0,5.819249351E0
9.371198167E0,-1.986780383E0,2.493483719E0,5.241544683E0,6.135026325E0
9.381144167E0,-2.389901463E0,1.882856065E0,4.865326642E0,5.738308052E0
9.391090167E0,-1.826286592E0,9.142267853E-1,4.753595122E0,5.173760713E0
9.401036167E0,-3.572970361E-1,4.657541156E-2,5.304411022E0,5.316634907E0
9.410982167E0,1.706639696E0,-7.847366863E-1,6.457102464E0,6.724775309E0
9.420928167E0,3.221100710E0,-1.420669920E0,7.416073313E0,8.209259175E0
9.430874167E0,4.010972421E0,-1.733106533E0,7.088905225E0,8.327312611E0
9.440820167E0,4.335740227E0,-1.172058590E0,4.996567982E0,6.718486158E0
9.450766167E0,3.940837408E0,3.329112232E-2,1.917713072E0,4.382799471E0
9.460713167E0,2.271701753E0,8.391660780E-1,-1.318775536E-1,2.425328895E0
9.470659167E0,6.995690668E-1,9.534732968E-1,-7.720920825E-1,1.412315259E0
9.480605167E0,-7.628143054E-1,6.909204501E-1,-8.349800563E-1,1.325310691E0
9.490551167E0,-1.836932033E0,3.033436078E-1,-5.870323849E-1,1.952163841E0
9.500497167E0,-2.552628306E0,-2.890103281E-2,-2.540697062E-1,2.565404052E0
9.510443167E0,-3.024897974E0,-2.901259768E-1,-6.268215179E-2,3.039425914E0
9.520389167E0,-3.172930178E0,-3.676641494E-1,-4.083461523E-2,3.194421749E0
9.530335167E0,-3.300698272E0,-2.867813694E-1,5.160402159E-2,3.313535214E0
9.540281167E0,-3.375300558E0,-1.186090153E-1,5.542693575E-2,3.377838673E0
9.550227167E0,-3.647938097E0,-2.325554609E-2,-3.598540235E-1,3.665717951E0
9.560173167E0,-3.680328164E0,3.376951227E-1,-4.380593634E-1,3.721659494E0
9.570119167E0,-3.505971209E0,9.804228213E-1,-1.493852502E-1,3.643539348E0
9.580065167E0,-3.464723781E0,1.724926279E0,3.335023767E-1,3.884701453E0
9.590011167E0,-3.487165979E0,2.392530079E0,7.218639153E-1,4.290176483E0
9.599957167E0,-3.428040689E0,2.988156702E0,7.791420704E-1,4.613849348E0
9.609904167E0,-3.210086895E0,3.392441963E0,6.348947686E-1,4.713428870E0
9.619850167E0,-2.861438475E0,3.669692955E0,2.850313343E-1,4.662158234E0
9.629796167E0,-2.498684818E0,3.886204534E0,-6.645773549E-2,4.620652348E0
9.639742167E0,-2.199734808E0,4.015593183E0,-4.218818718E-1,4.598021983E0
9.649688167E0,-1.931128923E0,3.916922004E0,-7.083650333E-1,4.424174265E0
9.659634167E0,-1.867990689E0,3.685898806E0,-9.048110139E-1,4.230120825E0
9.669580167E0,-1.605371184E0,3.460951157E0,-1.241578476E0,4.012096293E0
9.679526167E0,-1.257397533E0,2.924195764E0,-1.687698811E0,3.602817883E0
9.689472167E0,-1.131384773E0,2.179040927E0,-2.086088324E0,3.221803123E0
9.699418167E0,-9.919783813E-1,1.448703811E0,-2.401459070E0,2.974856216E0
9.709364167E0,-7.815990704E-1,6.875735039E-1,-2.649337744E0,2.846514520E0
9.719310167E0,-3.776500243E-1,-3.306623840E-1,-2.958820344E0,3.001095630E0
9.729256167E0,6.557395077E-1,-1.220736953E0,-3.177554741E0,3.466561285E0
9.739202167E0,2.264362328E0,-1.722708430E0,-3.394518601E0,4.429200562E0
9.749148167E0,3.933167616E0,-1.804061618E0,-3.329785831E0,5.460029258E0
9.759094167E0,5.062242154E0,-1.342270453E0,-2.406905751E0,5.763781822E0
9.769041167E0,5.479249787E0,-3.763148126E-1,-1.383364100E0,5.663699082E0
9.778987167E0,5.586366684E0,4.580048007E-1,-1.545068264E0,5.814163488E0
9.788933167E0,5.418581416E0,9.048446354E-1,-2.791529750E0,6.162175486E0
9.798879167E0,4.709959690E0,9.743545809E-1,-4.160347731E0,6.359369495E0
9.808825167E0,4.176303613E0,7.145350152E-1,-4.486175637E0,6.170724755E0
9.818771167E0,3.919743578E0,-7.427718043E-2,-3.473578219E0,5.237905351E0
9.828717167E0,2.931575827E0,-1.223350950E0,-1.867417077E0,3.684829835E0
9.838663167E0,2.074206782E0,-1.912926541E0,-1.228172565E-1,2.824306252E0
9.848609167E0,2.600837429E0,-1.631022626E0,1.545551244E0,3.437050885E0
9.858555167E0,3.540122457E0,-8.887741479E-1,2.586504149E0,4.473521008E0
9.868501167E0,4.869179957E0,-1.380024755E-1,3.146085026E0,5.798776520E0
9.878447167E0,5.754452500E0,7.330356055E-1,3.539224910E0,6.795379146E0
9.888393167E0,5.493761991E0,1.656251608E0,4.573769267E0,7.337844064E0
9.898339167E0,4.263928818E0,2.365367131E0,6.076580873E0,7.791077315E0
9.908285167E0,2.029248126E0,1.762121294E0,5.183343837E0,5.838661897E0
9.918232167E0,-3.625700551E-1,-2.047314852E-2,3.403705747E0,3.423023372E0
9.928178167E0,-2.371395026E0,-1.615558495E0,3.213441442E0,4.308102775E0
9.938124167E0,-3.166670149E0,-2.496942055E0,3.916580234E0,5.621576308E0
9.948070167E0,-3.316679882E0,-2.887790999E0,4.360390919E0,6.192956585E0
9.958016167E0,-2.692724669E0,-3.170356818E0,3.961830082E0,5.744390838E0
9.967962167E0,-1.626060972E0,-3.943022220E0,2.422698496E0,4.905197908E0
9.977908167E0,-3.608708543E-1,-5.184129703E0,4.454653005E-1,5.215732728E0
9.987854167E0,9.734859771E-1,-6.034389703E0,-2.993189692E-1,6.119732501E0
9.997800167E0,1.030985157E0,-5.279767932E0,1.735536636E0,5.652518662E0
1.000774617E1,2.780076224E-1,-3.335272858E0,3.160204298E0,4.603066856E0
1.001769217E1,-3.431134450E-1,-1.433684653E0,2.498492444E0,2.900972770E0
1.002763817E1,-8.073940623E-1,1.200594172E-1,1.785294687E0,1.963052866E0
1.003758417E1,-1.074951541E0,1.148293751E0,9.013061929E-1,1.812857470E0
1.004753017E1,-1.248628464E0,1.852786174E0,2.550712977E-1,2.248766554E0
1.005747617E1,-1.151575794E0,2.328421791E0,2.408772182E-1,2.608773022E0
1.006742317E1,-1.073320168E0,2.761167790E0,4.184647590E-1,2.991851684E0
1.007736917E1,-1.097259838E0,3.258776075E0,6.971477348E-1,3.508506181E0
1.008731517E1,-1.014149854E0,3.620298893E0,8.495267594E-1,3.854446746E0
1.009726117E1,-6.634712809E-1,3.757387449E0,7.719166660E-1,3.892815167E0
1.010720717E1,-5.576349235E-1,3.607556933E0,3.018239164E-1,3.662857001E0
1.011715317E1,-8.394637012E-1,3.163200996E0,-4.285067672E-1,3.300629924E0
1.012709917E1,-1.385887758E0,2.618411236E0,-1.016905062E0,3.132228948E0
1.013704517E1,-2.140627643E0,2.085132304E0,-1.318888607E0,3.266424742E0
1.014699117E1,-2.860122267E0,1.674801022E0,-1.220177082E0,3.531867772E0
1.015693717E1,-3.457260979E0,1.324704832E0,-9.207353210E-1,3.815134323E0
1.016688317E1,-3.999951589E0,9.638719851E-1,-5.020185471E-1,4.144958931E0
1.017682917E1,-4.458096138E0,6.104183239E-1,-2.326747441E-1,4.505704079E0
1.018677204E1,-4.828407322E0,1.742961431E-1,-2.188793717E-1,4.836507479E0
1.019671804E1,-5.160696402E0,-3.750895286E-1,-3.418282270E-1,5.185588302E0
1.020666504E1,-5.117074419E0,-6.534129006E-1,-6.160562092E-1,5.195279038E0
1.021661104E1,-4.832365302E0,-5.379683983E-1,-9.838291168E-1,4.960754393E0
1.022655704E1,-4.493465361E0,-3.076863348E-2,-1.140345631E0,4.636007530E0
1.023650304E1,-4.022414253E0,5.054333210E-1,-1.025242606E0,4.181674505E0
1.024644904E1,-3.306390536E0,9.189887577E-1,-9.339172840E-1,3.556537672E0
1.025639504E1,-2.507387813E0,1.321540319E0,-8.282575125E-1,2.952875373E0
1.026634104E1,-1.752281308E0,1.547733425E0,-8.890439969E-1,2.501273229E0
1.027628704E1,-9.287921995E-1,1.576339758E0,-1.223393635E0,2.200952968E0
1.028623304E1,-1.017637718E-1,1.446833287E0,-1.577484058E0,2.142927525E0
1.029617904E1,6.418506163E-1,1.289101136E0,-1.764724767E0,2.277719793E0
1.030612504E1,1.483371953E0,1.240025163E0,-1.970844966E0,2.760848535E0
1.031607104E1,2.250659378E0,1.262034375E0,-2.303058032E0,3.458652151E0
1.032601704E1,2.693584210E0,9.990959045E-1,-3.011037734E0,4.161722811E0
1.033596304E1,2.581246333E0,-6.553193852E-1,-4.107066733E0,4.894923214E0
1.034590904E1,2.612805510E0,-2.994031984E0,-4.269385439E0,5.832549373E0
1.035585604E1,3.018288281E0,-4.262840651E0,-4.538386595E0,6.919452829E0
1.036580204E1,3.873012630E0,-4.079732169E0,-5.209091467E0,7.666751288E0
1.037574804E1,4.077127819E0,-2.609339281E0,-5.805900396E0,7.559107232E0
1.038569404E1,2.828162556E0,-8.699709642E-1,-5.794296012E0,6.506090930E0
1.039564004E1,2.608862148E0,7.201401561E-1,-5.440692662E0,6.076668511E0
1.040558604E1,3.396441751E0,2.308852623E0,-4.436498863E0,6.045588404E0
1.041553204E1,4.153593028E0,2.836271474E0,-2.706687820E0,5.711648612E0
1.042547804E1,4.814737701E0,1.559617306E0,-1.109964083E0,5.181324690E0
1.043542404E1,5.041222583E0,-5.718816644E-1,-1.808099413E-1,5.076777128E0
1.044537004E1,4.572017441E0,-2.912225052E0,7.155565238E-1,5.467761824E0
1.045531604E1,3.289653466E0,-4.948583976E0,1.814809531E0,6.213198607E0
1.046526204E1,1.632834386E0,-5.958201653E0,3.051322711E0,6.890347259E0
1.047520804E1,1.428609270E-1,-4.977741702E0,4.118839517E0,6.462442314E0
1.048515404E1,-1.381048018E0,-2.396218795E0,4.151180466E0,4.988131655E0
1.049510104E1,-2.858593220E0,-1.666380447E-1,3.492292818E0,4.516130264E0
1.050504704E1,-3.584984635E0,5.624910361E-1,3.238089795E0,4.863510719E0
1.051499304E1,-3.177468787E0,1.737155145E-1,3.560162035E0,4.775064260E0
1.052493904E1,-2.063191797E0,-6.555605829E-1,3.823659207E0,4.393960605E0
1.053488504E1,-3.597277236E-1,-1.402071682E0,4.463658594E0,4.692489434E0
1.054483104E1,1.683132135E0,-1.717283968E0,5.736514412E0,6.220096109E0
1.055477704E1,3.604127249E0,-1.567947834E0,7.264919280E0,8.259978559E0
1.056472304E1,4.824341168E0,-1.371790706E0,7.822799202E0,9.292591932E0
1.057466904E1,5.362090881E0,-1.149924540E0,6.582683115E0,8.567733776E0
1.058461504E1,5.004940025E0,-2.424360859E-1,4.575710542E0,6.785670702E0
1.059456104E1,3.755467224E0,8.234119248E-1,2.448315148E0,4.558046547E0
1.060450704E1,2.108334056E0,1.221504984E0,1.001259082E0,2.634324708E0
1.061445304E1,5.192450291E-1,8.712433183E-1,4.495501654E-1,1.109403295E0
1.062439904E1,-5.278842902E-1,1.288662010E-1,3.513591886E-1,6.470870119E-1
1.063434604E1,-1.139490768E0,-6.650090986E-1,4.338512684E-1,1.388849609E0
1.064429204E1,-1.569232467E0,-1.252982885E0,5.224745925E-1,2.074954541E0
1.065423804E1,-1.789878904E0,-1.466881050E0,5.775312442E-1,2.385151745E0
1.066418404E1,-1.922297289E0,-1.260294828E0,3.372935651E-1,2.323216923E0
1.067413004E1,-2.149978511E0,-8.311255717E-1,-2.488615181E-1,2.318428211E0
1.068407604E1,-2.418455756E0,-1.834353411E-1,-7.434781480E-1,2.536796509E0
1.069402204E1,-2.754670656E0,6.592738572E-1,-7.301926893E-1,2.925069881E0
1.070396804E1,-3.070725526E0,1.540720567E0,-3.387186047E-1,3.452231947E0
1.071391404E1,-3.626394031E0,2.332859828E0,1.581350968E-1,4.314855195E0
1.072386004E1,-4.200243284E0,2.966357405E0,8.096891675E-1,5.205469858E0
1.073380604E1,-4.385696499E0,3.509162912E0,1.342624210E0,5.775049601E0
1.074375204E1,-4.544475886E0,3.770736350E0,1.458420714E0,6.082573853E0
1.075369804E1,-4.529312301E0,3.802790202E0,1.173142664E0,6.029274164E0
1.076364504E1,-4.298944284E0,3.761155980E0,4.737460899E-1,5.731636033E0
1.077359104E1,-3.679655734E0,3.617970825E0,-3.858647776E-1,5.174791864E0
1.078353704E1,-2.696883793E0,3.363994674E0,-1.204093730E0,4.476548232E0
1.079348304E1,-2.062319393E0,2.997894070E0,-1.777425504E0,4.049663141E0
1.080342904E1,-1.757138590E0,2.626989686E0,-1.915775889E0,3.695782473E0
1.081337504E1,-1.559996790E0,2.280885682E0,-1.771126884E0,3.282212656E0
1.082332104E1,-1.482051651E0,1.904059531E0,-1.660884064E0,2.929241484E0
1.083326704E1,-1.349601107E0,1.548043620E0,-1.527113804E0,2.559284815E0
1.084321304E1,-1.215580586E0,1.211550392E0,-1.473178502E0,2.261801364E0
1.085315904E1,-1.010646787E0,8.160754234E-1,-1.612365623E0,2.070533488E0
1.086310504E1,-8.201801687E-1,2.350241554E-1,-1.748702812E0,1.945737235E0
1.087305104E1,-4.407560992E-1,-5.084022447E-1,-1.889876817E0,2.006084037E0
1.088299704E1,3.698346359E-1,-1.171330904E0,-2.120262376E0,2.450368602E0
1.089294404E1,1.794605209E0,-1.342423942E0,-2.439509241E0,3.312690030E0
1.090289004E1,3.350192029E0,-1.010297416E0,-2.998111879E0,4.607945566E0
1.091283604E1,4.304252386E0,-1.467920101E-1,-3.180339185E0,5.353755115E0
1.092278204E1,4.790381125E0,1.209573156E0,-2.697980146E0,5.629379665E0
1.093272804E1,5.210473748E0,2.680365702E0,-2.113020015E0,6.228824172E0
1.094267404E1,5.432206013E0,3.787672226E0,-1.817746149E0,6.867279237E0
1.095262004E1,5.320271595E0,4.327332223E0,-2.138253089E0,7.183538145E0
1.096256604E1,5.051135952E0,4.328178900E0,-2.749868338E0,7.197838764E0
1.097251204E1,4.443278709E0,3.710609724E0,-2.676446021E0,6.377673048E0
1.098245804E1,3.590233095E0,2.443272217E0,-1.897755940E0,4.739285854E0
1.099240404E1,2.734142836E0,1.180230951E0,-6.779425550E-1,3.054191915E0
1.100235004E1,2.587330946E0,5.281608635E-1,8.339439297E-1,2.769241376E0
1.101229604E1,3.117773393E0,2.599692544E-1,2.176534810E0,3.811220109E0
1.102224304E1,4.103018705E0,4.096354634E-2,3.020319604E0,5.094975075E0
1.103218904E1,5.545751925E0,1.084658504E-3,3.283298128E0,6.444797295E0
1.104213504E1,6.008281301E0,2.208446574E-1,3.230917016E0,6.825470043E0
1.105208104E1,4.988007073E0,5.070111921E-1,3.601705332E0,6.173293790E0
1.106202704E1,3.759667863E0,3.323419967E-1,3.733920234E0,5.309210295E0
1.107197304E1,1.688058414E0,-5.382706994E-1,3.269812694E0,3.718998738E0
1.108191904E1,-1.036117843E0,-1.751542512E0,3.102329727E0,3.710241379E0
1.109186504E1,-2.663324284E0,-2.669575250E0,3.394960066E0,5.074020310E0
1.110181104E1,-2.546232036E0,-2.720290782E0,4.193136578E0,5.609427233E0
1.111175704E1,-1.982667452E0,-2.596297943E0,4.520926809E0,5.577679845E0
1.112170304E1,-1.471476377E0,-3.146810958E0,3.722139848E0,5.091363961E0
1.113164904E1,-5.701789552E-1,-4.284715962E0,2.389567587E0,4.939020972E0
1.114159504E1,8.451852018E-1,-5.171214958E0,2.001993669E0,5.609258491E0
1.115154104E1,1.621215384E0,-5.289309418E0,2.547742957E0,6.090659046E0
1.116148804E1,1.309413194E0,-4.190332253E0,3.070991575E0,5.357652149E0
1.117143404E1,1.404436880E-1,-2.062250103E0,2.771191964E0,3.457181629E0
1.118138004E1,-9.626920170E-1,-7.011425525E-2,2.405972536E0,2.592372614E0
1.119132567E1,-1.474456118E0,1.133500296E0,1.974745644E0,2.712648913E0
1.120127167E1,-1.803787676E0,1.659581597E0,1.405109895E0,2.825277840E0
1.121121767E1,-1.670285802E0,1.805707902E0,9.928945669E-1,2.652597842E0
1.122116367E1,-1.387482294E0,1.910299679E0,8.418265611E-1,2.506596086E0
1.123110967E1,-1.238215157E0,2.060519912E0,1.076921395E0,2.634137197E0
1.124105567E1,-1.219496466E0,2.179632080E0,1.295098625E0,2.813405069E0
1.125100167E1,-1.265512299E0,2.369442641E0,1.327205102E0,2.996206466E0
1.126094767E1,-1.311817569E0,2.541972632E0,1.122041507E0,3.072697079E0
1.127089367E1,-1.399822842E0,2.632670256E0,8.394151694E-1,3.097591725E0
1.128083967E1,-1.604469543E0,2.553608884E0,4.039332587E-1,3.042762384E0
1.129078567E1,-1.996703693E0,2.380985629E0,1.999511124E-2,3.107461666E0
1.130073267E1,-2.482820152E0,2.205728788E0,-1.772665103E-1,3.325817014E0
1.131067867E1,-2.947841027E0,1.876979029E0,-2.479260184E-1,3.503467469E0
1.132062467E1,-3.247298575E0,1.283360340E0,-5.474861305E-2,3.492128178E0
1.133057067E1,-3.422499282E0,6.226729184E-1,1.602645797E-1,3.482370979E0
1.134051667E1,-3.567540051E0,8.516294181E-2,1.692008793E-1,3.572565420E0
1.135046267E1,-3.651079221E0,-1.803222835E-2,-5.451187391E-2,3.651530663E0
1.136040867E1,-3.850046521E0,1.323365235E-1,-4.788045527E-1,3.881961485E0
1.137035467E1,-4.001797555E0,2.826725310E-1,-8.443092889E-1,4.099651889E0
1.138030067E1,-3.979862895E0,5.423011851E-1,-1.086831914E0,4.161081932E0
1.139024667E1,-3.868892097E0,9.055156034E-1,-1.008307900E0,4.099386465E0
1.140019267E1,-3.574450291E0,1.261942574E0,-6.938323635E-1,3.853647271E0
1.141013867E1,-2.974027197E0,1.583677429E0,-3.588576579E-1,3.388458468E0
1.142008467E1,-2.172435912E0,1.989526235E0,-1.409442828E-1,2.949162207E0
1.143003067E1,-1.262579336E0,2.373113523E0,-1.245088559E-1,2.690962063E0
1.143997767E1,-4.441854912E-1,2.491635999E0,-3.641915246E-1,2.556987714E0
1.144992367E1,4.189418918E-1,2.438475453E0,-8.583309120E-1,2.618856010E0
1.145986967E1,1.131309929E0,2.258199363E0,-1.606783286E0,2.993506146E0
1.146981567E1,1.718729399E0,1.792449925E0,-2.136890688E0,3.276157703E0
1.147976167E1,1.931413098E0,1.269869644E0,-2.266979542E0,3.237610494E0
1.148970767E1,2.221725016E0,7.680423009E-1,-2.320203238E0,3.302922053E0
1.149965367E1,2.439957138E0,3.711853427E-1,-2.567988356E0,3.561703748E0
1.150959967E1,2.255369895E0,-4.174724865E-1,-3.088199930E0,3.846811075E0
1.151954567E1,1.646731464E0,-2.617123094E0,-3.373857465E0,4.576458456E0
1.152949167E1,1.553660747E0,-5.000639398E0,-3.209788102E0,6.141904897E0
1.153943767E1,1.857508970E0,-5.886958593E0,-3.300610564E0,7.000046510E0
1.154938367E1,1.997492482E0,-5.050943579E0,-3.984176971E0,6.736146776E0
1.155932967E1,1.484941345E0,-3.265109779E0,-4.872496498E0,6.050389639E0
1.156927567E1,1.097698964E0,-1.180229489E0,-5.348155797E0,5.585754657E0
1.157922267E1,1.604549650E0,8.168115878E-1,-5.038956202E0,5.350966301E0
1.158916867E1,2.867542384E0,2.086445004E0,-4.004383779E0,5.348938355E0
1.159911467E1,4.580567240E0,1.619489871E0,-2.568557875E0,5.495619459E0
1.160906067E1,6.176602174E0,-2.711020607E-1,-1.674744158E0,6.405363279E0
1.161900667E1,7.305989538E0,-1.738380722E0,-5.714273357E-1,7.531665146E0
1.162895267E1,7.924689274E0,-2.656514617E0,8.161039285E-1,8.397844701E0
1.163889867E1,7.311200577E0,-2.960435345E0,2.005010247E0,8.138666807E0
1.164884467E1,4.617225773E0,-1.807900023E0,2.979538783E0,5.784887872E0
1.165879067E1,1.161121958E0,-8.933259130E-2,3.811472440E0,3.985411732E0
1.166873667E1,-1.376215294E0,1.084514662E0,4.190339270E0,4.541925119E0
1.167868267E1,-2.942196710E0,1.827225655E0,4.626184292E0,5.779001313E0
1.168862867E1,-3.401430010E0,1.744727874E0,5.720907024E0,6.880594352E0
1.169857467E1,-3.050594147E0,9.910094976E-1,6.721305980E0,7.447427647E0
1.170852067E1,-2.487675095E0,2.281665409E-1,7.296981318E0,7.712750722E0
1.171846767E1,-1.743413420E0,-3.857261986E-1,7.795792667E0,7.997665807E0
1.172841367E1,-5.710952139E-1,-6.870034003E-1,8.190994279E0,8.239569812E0
1.173835967E1,6.933581543E-1,-3.913213992E-1,7.812231529E0,7.852696316E0
1.174830567E1,1.676632370E0,1.012995028E-1,6.438667363E0,6.654156228E0
1.175825167E1,2.170975862E0,4.130022901E-1,4.387624910E0,4.912734416E0
1.176819767E1,2.235567130E0,4.779210019E-1,2.182111884E0,3.160345100E0
1.177814367E1,1.856927172E0,4.264906472E-1,2.967385930E-1,1.928244431E0
1.178808967E1,1.165458838E0,1.489665896E-1,-8.267642067E-1,1.436671292E0
1.179803567E1,5.781364310E-1,-2.456725198E-1,-7.020893629E-1,9.420860859E-1
1.180798167E1,1.606224293E-1,-5.832205850E-1,-3.895625567E-1,7.195170611E-1
1.181792767E1,-4.548163140E-1,-7.935349917E-1,-7.089807451E-2,9.173778935E-1
1.182787367E1,-7.877953649E-1,-5.965767950E-1,2.383517693E-1,1.016531837E0
1.183781967E1,-9.537913853E-1,-4.452947080E-2,3.501131104E-1,1.016995610E0
1.184776567E1,-1.193710830E0,5.797075778E-1,1.407594377E-1,1.334473544E0
1.185771267E1,-1.414992859E0,1.117152650E0,-1.402998465E-1,1.808291703E0
1.186765867E1,-1.832899793E0,1.671672762E0,-3.856975472E-1,2.510532628E0
1.187760467E1,-2.255129575E0,2.215679580E0,-5.679038036E-1,3.212064777E0
1.188755067E1,-2.400859146E0,2.712774771E0,-4.044372886E-1,3.645111949E0
1.189749667E1,-2.384893323E0,3.110794156E0,-3.975923918E-2,3.919991995E0
1.190744267E1,-2.300848954E0,3.436431735E0,3.807852648E-1,4.153067107E0
1.191738867E1,-2.471529179E0,3.535864515E0,8.011392957E-1,4.387780591E0
1.192733467E1,-2.442433434E0,3.429570613E0,9.940822095E-1,4.326157083E0
1.193728067E1,-2.175030906E0,3.122652310E0,7.960405967E-1,3.887852559E0
1.194722667E1,-1.760974948E0,2.618795398E0,2.088543570E-1,3.162711217E0
1.195717267E1,-1.356918313E0,2.089941055E0,-4.543672478E-1,2.532889756E0
1.196711867E1,-1.144779575E0,1.724636841E0,-8.913426105E-1,2.253748912E0
1.197706467E1,-1.032532915E0,1.504727154E0,-1.046468072E0,2.103669046E0
1.198701067E1,-1.037297226E0,1.434047473E0,-1.151577621E0,2.111541784E0
1.199695767E1,-9.704740763E-1,1.492980975E0,-1.286312014E0,2.196681753E0
1.200690367E1,-9.189501661E-1,1.663132611E0,-1.391543185E0,2.355179808E0
1.201684967E1,-9.279542935E-1,1.895798000E0,-1.434438944E0,2.552011816E0
1.202679567E1,-8.327774101E-1,2.089150511E0,-1.487332857E0,2.696335865E0
1.203674167E1,-7.158231568E-1,2.088428672E0,-1.390673119E0,2.609196971E0
1.204668767E1,-4.782999015E-1,1.915342318E0,-1.113061354E0,2.266321374E0
1.205663367E1,-2.159400129E-1,1.514266886E0,-9.631978011E-1,1.807590743E0
1.206657967E1,1.062380612E-1,7.477048078E-1,-1.200748538E0,1.418501342E0
1.207652567E1,7.864218539E-1,-2.675940236E-1,-1.966813311E0,2.135045783E0
1.208647167E1,2.219786664E0,-8.030913886E-1,-2.830334796E0,3.685539807E0
1.209641767E1,3.646151188E0,-6.858009204E-1,-3.105120018E0,4.838027668E0
1.210636367E1,4.631104140E0,7.674499780E-2,-2.284986042E0,5.164704886E0
1.211630967E1,5.320878536E0,1.323971592E0,-1.251506463E0,5.624137053E0
1.212625567E1,5.527452478E0,2.539607726E0,-3.068495983E-1,6.090689204E0
1.213620267E1,5.519544704E0,3.468801337E0,4.643385047E-1,6.535561697E0
1.214614867E1,5.468754035E0,3.944659733E0,3.817541850E-1,6.753765421E0
1.215609467E1,5.004187489E0,3.788498437E0,-1.089341539E0,6.370343618E0
1.216604067E1,4.463509490E0,3.125490548E0,-2.500999730E0,5.995548998E0
1.217598667E1,4.169369400E0,2.513497861E0,-1.960193678E0,5.248206546E0
1.218593267E1,3.664980977E0,1.922963871E0,-1.164274192E-1,4.140462650E0
1.219587879E1,3.515301611E0,1.196953988E0,9.997510850E-1,3.845717943E0
1.220582479E1,3.819774317E0,7.028648499E-1,1.192218620E0,4.062767538E0
1.221577079E1,4.252709765E0,5.426388618E-1,9.596005940E-1,4.393271057E0
1.222571679E1,4.433618524E0,8.358492449E-1,1.204632844E0,4.669770601E0
1.223566279E1,3.921099547E0,1.349687646E0,1.982780887E0,4.596531132E0
1.224560879E1,2.723906701E0,1.497203541E0,2.781615211E0,4.171171219E0
1.225555479E1,9.609483773E-1,9.536200619E-1,2.845841027E0,3.151447947E0
1.226550079E1,-1.187095290E0,2.788858742E-2,2.362785001E0,2.644376289E0
1.227544679E1,-3.510358375E0,-1.144476397E0,1.998956040E0,4.198603029E0
1.228539379E1,-4.642082287E0,-2.127235473E0,2.455379169E0,5.665946133E0
1.229533979E1,-4.229068887E0,-2.729490499E0,3.517388483E0,6.140615912E0
1.230528579E1,-3.306862407E0,-3.338835567E0,3.971495529E0,6.152717989E0
1.231523179E1,-2.521120584E0,-4.311590642E0,3.345786737E0,6.011667967E0
1.232517779E1,-1.076724417E0,-5.284738065E0,2.251282107E0,5.844318866E0
1.233512379E1,6.844171768E-1,-5.564709182E0,1.834104905E0,5.899013134E0
1.234506979E1,6.417149609E-1,-4.471449425E0,2.827918727E0,5.329426083E0
1.235501579E1,1.221600294E-1,-2.895200883E0,3.824653818E0,4.798446421E0
1.236496179E1,8.923728168E-2,-1.422585468E0,2.944166052E0,3.271058918E0
1.237490779E1,-3.789802659E-1,-1.563206327E-1,1.560057601E0,1.613022598E0
1.238485379E1,-6.766883272E-1,5.774558151E-1,6.738278693E-1,1.115977736E0
1.239479979E1,-6.498268032E-1,1.024176659E0,2.971583500E-1,1.248805745E0
1.240474579E1,-5.506328827E-1,1.337220798E0,3.846841882E-1,1.496441765E0
1.241469279E1,-6.083109874E-1,1.570351040E0,6.394842482E-1,1.801384120E0
1.242463879E1,-8.296813095E-1,1.777272307E0,8.866980940E-1,2.152510497E0
1.243458479E1,-1.122159621E0,1.898549992E0,1.003416705E0,2.422927851E0
1.244453079E1,-1.229292891E0,2.007561387E0,1.068898503E0,2.585344802E0
1.245447679E1,-1.333280359E0,1.934501597E0,8.610258937E-1,2.502258687E0
1.246442279E1,-1.514187949E0,1.700345169E0,4.996352220E-1,2.331002830E0
1.247436879E1,-1.662724768E0,1.356820664E0,2.017184150E-1,2.155529236E0
1.248431479E1,-1.733774285E0,1.091382217E0,-1.635764426E-1,2.055199666E0
1.249426079E1,-1.817388300E0,8.918769729E-1,-4.662207234E-1,2.077427864E0
1.250420679E1,-1.827764184E0,9.094501948E-1,-5.458785117E-1,2.113245116E0
1.251415279E1,-1.986192153E0,1.043055564E0,-3.994537067E-1,2.278703018E0
1.252409879E1,-2.338292184E0,1.110050622E0,-2.202067262E-1,2.597751667E0
1.253404479E1,-2.570157673E0,1.128507358E0,-1.813935300E-1,2.812853167E0
1.254399079E1,-2.786027520E0,1.049873418E0,-2.806149324E-1,2.990472918E0
1.255393779E1,-2.929383121E0,9.165007675E-1,-4.416179423E-1,3.101013630E0
1.256388379E1,-2.994969585E0,8.580607706E-1,-5.335344912E-1,3.160817957E0
1.257382979E1,-2.889370624E0,1.008285096E0,-6.316852319E-1,3.124760418E0
1.258377579E1,-2.598099763E0,1.313091093E0,-7.121493512E-1,2.996912961E0
1.259372179E1,-2.082135022E0,1.624085197E0,-6.569808716E-1,2.721132640E0
1.260366779E1,-1.463171577E0,1.898806685E0,-6.569703466E-1,2.485547812E0
1.261361379E1,-9.208943653E-1,2.153126652E0,-8.060684985E-1,2.476640312E0
1.262355979E1,-5.349617600E-1,2.320165815E0,-1.063215010E0,2.607638712E0
1.263350579E1,-3.034003258E-1,2.407658288E0,-1.369917258E0,2.786672475E0
1.264345179E1,-6.845627725E-2,2.371130147E0,-1.681533507E0,2.907662183E0
1.265339779E1,2.172918892E-1,2.228504863E0,-1.802810022E0,2.874643224E0
1.266334379E1,3.004737943E-1,1.916744188E0,-1.778530043E0,2.631988203E0
1.267328979E1,4.164042002E-1,9.702939820E-1,-1.884785646E0,2.160388808E0
1.268323579E1,7.708302534E-1,-5.025787103E-1,-2.066546345E0,2.262162336E0
1.269318279E1,1.341316772E0,-2.343496206E0,-2.290298238E0,3.540702073E0
1.270312879E1,2.239876528E0,-4.097046944E0,-2.445978016E0,5.271209441E0
1.271307479E1,3.097864208E0,-5.020118228E0,-2.715504252E0,6.494021328E0
1.272302079E1,3.219659371E0,-4.816451520E0,-3.482131526E0,6.759412081E0
1.273296679E1,2.786102949E0,-3.531873790E0,-4.493513893E0,6.358314967E0
1.274291279E1,2.146048012E0,-1.516722717E0,-5.205124716E0,5.830891285E0
1.275285879E1,1.620078101E0,4.566301203E-1,-5.083530697E0,5.354946168E0
1.276280479E1,1.742915822E0,2.005737641E0,-4.167887131E0,4.942875902E0
1.277275079E1,2.614471382E0,3.130085290E0,-3.029795601E0,5.080605861E0
1.278269679E1,3.528967139E0,3.630078362E0,-2.188412844E0,5.515453631E0
1.279264279E1,3.848521568E0,2.962739732E0,-1.519858578E0,5.089097668E0
1.280258879E1,3.865891891E0,6.118789583E-1,-6.012738633E-1,3.959930079E0
1.281253479E1,4.116364975E0,-1.931715399E0,3.065075362E-1,4.557404070E0
1.282248179E1,4.266689288E0,-3.460727209E0,1.476293314E0,5.688647664E0
1.283242779E1,3.786785495E0,-4.120300736E0,2.743161582E0,6.232299576E0
1.284237379E1,2.331794173E0,-4.092166858E0,3.549361643E0,5.897547094E0
1.285231979E1,1.003192756E0,-3.063217117E0,4.528688403E0,5.558661122E0
1.286226579E1,-3.101918668E-1,-1.365506119E0,5.619992852E0,5.791817125E0
1.287221179E1,-1.432588300E0,3.860811245E-1,6.374385413E0,6.544780918E0
1.288215779E1,-1.729473658E0,2.134982741E0,6.897380846E0,7.424492776E0
1.289210379E1,-1.395459650E0,3.033233179E0,6.804208973E0,7.579252661E0
1.290204979E1,-7.064225882E-1,3.308023664E0,6.805636863E0,7.599917535E0
1.291199579E1,1.015328068E-1,3.304222389E0,6.884421662E0,7.636979516E0
1.292194179E1,1.146268861E0,3.076890246E0,7.076377566E0,7.801045144E0
1.293188779E1,2.100646722E0,2.688763180E0,7.084183599E0,7.863066918E0
1.294183379E1,2.626770415E0,2.128049113E0,6.193514076E0,7.056070610E0
1.295177979E1,2.732647703E0,1.370416026E0,4.246985925E0,5.232809284E0
1.296172679E1,2.858691453E0,5.625793290E-1,1.968343527E0,3.516104175E0
1.297167279E1,2.583411557E0,-2.803418308E-1,-2.504401933E-1,2.610618146E0
1.298161879E1,1.744573508E0,-1.017765772E0,-1.549216279E0,2.545477356E0
1.299156479E1,8.513078213E-1,-1.471846506E0,-1.575118275E0,2.317769342E0
1.300151079E1,2.523687512E-1,-1.712701505E0,-1.239161822E0,2.128980613E0
1.301145679E1,-6.103990281E-1,-1.705063872E0,-6.303701931E-1,1.917601721E0
1.302140279E1,-1.450059196E0,-1.369482225E0,-1.041826918E-1,1.997249927E0
1.303134879E1,-1.995989748E0,-8.114099300E-1,1.252537912E-1,2.158251528E0
1.304129479E1,-2.444840147E0,-1.406664670E-2,8.543958820E-2,2.446373058E0
1.305124079E1,-2.737161169E0,7.381589359E-1,-2.928075099E-1,2.850029143E0
1.306118679E1,-2.940247833E0,1.326469522E0,-6.552622287E-1,3.291496210E0
1.307113279E1,-2.942078011E0,1.893765215E0,-7.592795905E-1,3.580317753E0
1.308107879E1,-2.611061286E0,2.470096611E0,-5.642177919E-1,3.638318296E0
1.309102579E1,-2.278534225E0,2.932286264E0,-1.834353411E-1,3.718019563E0
1.310097179E1,-1.971012781E0,3.189699115E0,1.110994363E-1,3.751188467E0
1.311091779E1,-1.592814288E0,3.348561825E0,4.018884873E-1,3.729804018E0
1.312086379E1,-1.355857043E0,3.360962015E0,4.262152433E-1,3.649119541E0
1.313080979E1,-1.191538589E0,3.126364999E0,4.534296468E-2,3.346039196E0
1.314075579E1,-1.099678246E0,2.732986257E0,-5.691135925E-1,3.000399375E0
1.315070179E1,-8.289977700E-1,2.408551158E0,-1.008904316E0,2.739752526E0
1.316064779E1,-4.775537968E-1,2.353931439E0,-1.058889313E0,2.624937604E0
1.317059379E1,-4.013721782E-1,2.126913292E0,-1.111024768E0,2.432947967E0
1.318053979E1,-4.620656919E-1,1.855139093E0,-1.551625916E0,2.462232472E0
1.319048575E1,-3.217383635E-1,1.966953644E0,-2.499869463E0,3.197150223E0
1.320043175E1,-7.562087059E-2,2.185561742E0,-3.287637931E0,3.948539199E0
1.321037775E1,1.802579641E-1,2.362475683E0,-3.758651617E0,4.443112227E0
1.322032475E1,3.184937435E-1,2.559132456E0,-3.489963872E0,4.339406067E0
1.323027075E1,6.319565427E-1,2.653379632E0,-2.273496848E0,3.550856300E0
1.324021675E1,1.144706485E0,2.578537610E0,-6.775081068E-1,2.901417995E0
1.325016275E1,1.409449114E0,2.208112113E0,5.069109124E-1,2.668195005E0
1.326010875E1,1.708071679E0,1.579588179E0,7.056501710E-1,2.431162241E0
1.327005475E1,2.113017676E0,8.941702509E-1,3.385358792E-2,2.294674313E0
1.328000075E1,2.384972845E0,2.163440555E-1,-3.174605771E-1,2.415715513E0
1.328994675E1,2.524038929E0,-3.906366903E-1,-1.438596680E-1,2.558137046E0
1.329989275E1,2.638801062E0,-6.659773976E-1,-3.439631917E-2,2.721760468E0
1.330983875E1,2.693186014E0,-6.083121568E-1,-6.242253542E-1,2.830715789E0
1.331978475E1,2.695844159E0,-3.396910697E-1,-1.751056901E0,3.232516979E0
1.332973075E1,2.834626068E0,3.537039220E-2,-2.720396617E0,3.928983808E0
1.333967675E1,3.287343816E0,6.699964812E-1,-2.743172107E0,4.333649485E0
1.334962375E1,3.680847396E0,1.436019154E0,-1.752768381E0,4.322381931E0
1.335956975E1,3.670452801E0,2.294366438E0,-6.645623714E-1,4.379267549E0
1.336951575E1,3.664579273E0,3.424011665E0,4.014195406E-1,5.031315412E0
1.337946175E1,3.682099285E0,4.388966554E0,1.260131106E0,5.865902570E0
1.338940775E1,3.898952048E0,4.757304887E0,1.666861088E0,6.372770414E0
1.339935375E1,4.648062235E0,4.215526736E0,1.299751255E0,6.408158981E0
1.340929975E1,5.310840620E0,3.169772389E0,9.064347857E-1,6.250928660E0
1.341924575E1,5.519559907E0,2.453225639E0,1.614164227E0,6.252150330E0
1.342919175E1,4.861774458E0,1.868000629E0,2.824434371E0,5.924838120E0
1.343913775E1,3.171612800E0,8.920064887E-1,3.306101099E0,4.667451961E0
1.344908375E1,9.209388041E-1,-4.513945234E-1,2.918854040E0,3.093799315E0
1.345902975E1,-1.598346924E0,-1.568937768E0,2.899553550E0,3.663835340E0
1.346897675E1,-3.239026519E0,-2.156340574E0,3.493403204E0,5.229241188E0
1.347892275E1,-3.227912716E0,-2.176866347E0,4.076943632E0,5.637343078E0
1.348886875E1,-2.594873269E0,-2.011733668E0,4.114413174E0,5.263918256E0
1.349881475E1,-2.153358786E0,-2.269509047E0,3.298554098E0,4.546216505E0
1.350876075E1,-1.367838573E0,-3.289432734E0,1.883346062E0,4.029682675E0
1.351870675E1,-5.099707603E-2,-4.115225937E0,1.383458825E0,4.341847940E0
1.352865275E1,7.624476850E-1,-4.125160649E0,1.927136298E0,4.616506381E0
1.353859875E1,6.144879860E-1,-3.729965470E0,2.620204577E0,4.599533663E0
1.354854475E1,2.475266719E-1,-3.039553727E0,2.880995073E0,4.195269827E0
1.355849075E1,-4.456391090E-1,-2.032443629E0,2.645977349E0,3.366098254E0
1.356843675E1,-1.084064426E0,-1.185672078E0,2.052298288E0,2.606327343E0
1.357838275E1,-1.157008442E0,-6.002868533E-1,1.536718440E0,2.015072307E0
1.358832975E1,-1.204156880E0,-2.101182327E-1,1.061564341E0,1.618969522E0
1.359827575E1,-1.172977188E0,1.287182665E-1,8.334287900E-1,1.444661698E0
1.360822175E1,-1.084867249E0,7.222615260E-1,8.619520926E-1,1.562549222E0
1.361816775E1,-1.042980135E0,1.285458613E0,8.971255068E-1,1.882829144E0
1.362811375E1,-1.024539186E0,1.687353533E0,8.296503923E-1,2.141299200E0
1.363805975E1,-9.695519704E-1,1.954903410E0,6.367407346E-1,2.273129369E0
1.364800575E1,-9.084339488E-1,2.162121423E0,4.604992229E-1,2.389995988E0
1.365795175E1,-7.077095604E-1,2.273017669E0,1.470388357E-1,2.385179776E0
1.366789775E1,-4.814281619E-1,2.242886674E0,-3.562351086E-1,2.321468751E0
1.367784375E1,-5.596633226E-1,2.094816463E0,-7.145027824E-1,2.282979035E0
1.368778975E1,-7.639340472E-1,2.051691493E0,-6.943791512E-1,2.296779401E0
1.369773575E1,-1.083613606E0,1.920773504E0,-6.559119274E-1,2.300828059E0
1.370768275E1,-1.511042731E0,1.619228500E0,-5.551165277E-1,2.283266395E0
1.371762875E1,-2.070923570E0,1.331628520E0,-4.431229059E-1,2.501662819E0
1.372757475E1,-2.693403531E0,1.015131601E0,-2.950241894E-1,2.893432912E0
1.373752075E1,-3.268253242E0,7.174059981E-1,-9.949695244E-2,3.347543915E0
1.374746675E1,-3.676674238E0,4.525148499E-1,-5.168185808E-2,3.704777208E0
1.375741275E1,-3.897732319E0,2.901166213E-1,-1.298397624E-1,3.910670435E0
1.376735875E1,-3.913119852E0,2.995750773E-1,-2.507940960E-1,3.932575477E0
1.377730475E1,-3.833504164E0,5.309482312E-1,-5.423244278E-1,3.907911972E0
1.378725075E1,-3.692387461E0,8.498331535E-1,-8.864811623E-1,3.891245354E0
1.379719675E1,-3.295810000E0,1.089245059E0,-1.021312693E0,3.618272788E0
1.380714275E1,-2.748425245E0,1.369728978E0,-9.869452442E-1,3.225532470E0
1.381708875E1,-2.183672506E0,1.626298369E0,-9.478759034E-1,2.883008971E0
1.382703575E1,-1.674088247E0,1.699896687E0,-9.715475520E-1,2.576067711E0
1.383698175E1,-1.194862731E0,1.748191765E0,-1.097792519E0,2.385166621E0
1.384692775E1,-6.730993062E-1,1.740612019E0,-1.339167920E0,2.296990117E0
1.385687375E1,1.276757079E-1,1.612265051E0,-1.663744084E0,2.320289649E0
1.386681975E1,1.017572814E0,1.419426802E0,-1.850550199E0,2.544555544E0
1.387676575E1,1.998154387E0,1.501724316E0,-2.088540646E0,3.257268627E0
1.388671175E1,3.162245561E0,1.951053603E0,-2.467056643E0,4.460131795E0
1.389665775E1,3.924814868E0,2.204828025E0,-2.953295310E0,5.383994015E0
1.390660375E1,4.062529076E0,1.269729019E0,-3.445556023E0,5.476149247E0
1.391654975E1,4.173258968E0,-4.616587257E-1,-3.911740494E0,5.738547977E0
1.392649575E1,4.158471360E0,-1.927946576E0,-4.318978014E0,6.297891166E0
1.393644175E1,4.022755730E0,-2.783288099E0,-4.846471710E0,6.886039816E0
1.394638875E1,3.847025850E0,-2.869302980E0,-5.376782595E0,7.207100565E0
1.395633475E1,3.379539789E0,-2.780555111E0,-5.714442927E0,7.197752001E0
1.396628075E1,2.840604261E0,-2.382276109E0,-5.422885551E0,6.569015127E0
1.397622675E1,2.258492893E0,-1.792524769E0,-4.427387731E0,5.283530762E0
1.398617275E1,2.450779749E0,-1.918881345E0,-2.816644710E0,4.197846403E0
1.399611875E1,3.634363201E0,-2.848338958E0,-1.130786018E0,4.753978094E0
1.400606475E1,4.293056138E0,-3.863348352E0,5.619900028E-1,5.802725588E0
1.401601075E1,4.360122532E0,-4.193509630E0,1.848759781E0,6.325670260E0
1.402595675E1,3.613599154E0,-3.834327452E0,2.597157776E0,5.874129243E0
1.403590275E1,1.707038476E0,-2.760061789E0,2.947202511E0,4.383825279E0
1.404584875E1,-1.363570690E-1,-1.088900074E0,3.121417962E0,3.308707711E0
1.405579575E1,-1.434426665E0,8.123168331E-1,3.227910962E0,3.624478952E0
1.406574175E1,-2.651976008E0,2.046141901E0,3.583329872E0,4.905091885E0
1.407568775E1,-3.283238486E0,2.112900732E0,4.609287593E0,6.040656966E0
1.408563375E1,-2.880847723E0,1.413716412E0,5.882915828E0,6.701236925E0
1.409557975E1,-2.113653853E0,5.794082004E-1,7.184506032E0,7.511349639E0
1.410552575E1,-1.160012156E0,-1.106275660E-1,8.479644418E0,8.559336196E0
1.411547175E1,3.003422320E-1,-6.436381102E-1,9.046237861E0,9.074078185E0
1.412541775E1,1.972247128E0,-8.448554188E-1,8.439841837E0,8.708298895E0
1.413536375E1,3.149151306E0,-7.154729086E-1,6.739074499E0,7.472896395E0
1.414530975E1,3.530043027E0,7.614010334E-2,4.339666048E0,5.594613704E0
1.415525575E1,2.927600890E0,1.206265679E0,1.618613812E0,3.556098217E0
1.416520275E1,1.652446532E0,1.647142231E0,-6.282195872E-1,2.416260938E0
1.417514875E1,4.975822645E-1,1.303154334E0,-1.298314009E0,1.905628137E0
1.418509475E1,-4.631515199E-1,4.788472009E-1,-9.000158586E-1,1.119746631E0
1.419504079E1,-1.095234362E0,-3.356392416E-1,-3.530838248E-1,1.198691035E0
1.420498679E1,-1.586929066E0,-8.690859881E-1,2.637590542E-1,1.828448291E0
1.421493279E1,-1.892995722E0,-1.146971111E0,3.562452681E-1,2.241848840E0
1.422487879E1,-2.111122009E0,-1.085469512E0,1.448969275E-1,2.378250474E0
1.423482479E1,-2.143374665E0,-6.877728939E-1,-3.332912922E-1,2.275559183E0
1.424477079E1,-2.277577620E0,-2.250034896E-1,-8.893919794E-1,2.455403119E0
1.425471679E1,-2.459066423E0,2.627917054E-1,-1.120695478E0,2.715147419E0
1.426466279E1,-2.684278951E0,7.081682745E-1,-1.081367179E0,2.979297025E0
1.427460979E1,-3.043316118E0,1.044811775E0,-8.443215680E-1,3.326602404E0
1.428455579E1,-3.315649018E0,1.482465342E0,-5.293420011E-1,3.670345332E0
1.429450179E1,-3.355435227E0,2.003440270E0,-1.299416502E-1,3.910192235E0
1.430444779E1,-3.186558284E0,2.660997384E0,6.023026809E-2,4.151949959E0
1.431439379E1,-3.004481251E0,3.209286118E0,4.695869654E-2,4.396433793E0
1.432433979E1,-2.679997619E0,3.683263466E0,-1.251134580E-1,4.556804843E0
1.433428579E1,-2.293107825E0,4.023789518E0,-4.197686881E-1,4.650315186E0
1.434423179E1,-1.713064617E0,4.271627554E0,-8.655884761E-1,4.683015669E0
1.435417779E1,-1.072352453E0,4.232138968E0,-1.336497497E0,4.565869642E0
1.436412379E1,-6.041594642E-1,3.948989596E0,-1.769202565E0,4.369165276E0
1.437407079E1,-3.980673319E-1,3.564444535E0,-2.144329516E0,4.178740422E0
1.438401679E1,-4.225490391E-1,3.203816925E0,-2.435437679E0,4.046522861E0
1.439396279E1,-4.333874381E-1,2.685395477E0,-2.708243179E0,3.838457328E0
1.440390879E1,-4.331371772E-1,2.055711454E0,-2.958741406E0,3.628733678E0
1.441385479E1,-4.449023598E-1,1.413304768E0,-3.061146033E0,3.400879814E0
1.442380079E1,-5.105046111E-1,6.255441937E-1,-2.836316498E0,2.949001826E0
1.443374679E1,-5.278918916E-1,-3.969727331E-1,-2.313860178E0,2.406284714E0
1.444369279E1,-5.468789703E-1,-1.650203833E0,-2.133281202E0,2.751933499E0
1.445363879E1,5.487319529E-2,-2.526074930E0,-2.322336302E0,3.431808782E0
1.446358479E1,1.746513614E0,-2.245855598E0,-2.021158503E0,3.489879491E0
1.447353179E1,3.397560908E0,-9.136233526E-1,-4.077772182E-1,3.541808861E0
1.448347779E1,4.130985938E0,4.893473384E-1,9.672254363E-1,4.270834893E0
1.449342379E1,4.323309631E0,1.450644502E0,7.653818178E-1,4.623979343E0
1.450336979E1,4.712115558E0,1.981405622E0,-8.441244438E-1,5.180979382E0
1.451331579E1,4.982596060E0,2.229859078E0,-2.346554884E0,5.941788858E0
1.452326179E1,4.946036344E0,2.191158989E0,-3.110112956E0,6.239972422E0
1.453320779E1,4.800762271E0,1.926666036E0,-2.568703471E0,5.775603685E0
1.454315379E1,4.433642498E0,1.380155733E0,-1.168344439E0,4.788219332E0
1.455309979E1,3.618635945E0,8.848038885E-1,-3.738996202E-1,3.743955789E0
1.456304579E1,3.057088650E0,7.969088352E-1,9.128621913E-2,3.160567651E0
1.457299179E1,3.448731061E0,9.087175387E-1,5.170517385E-1,3.603728069E0
1.458293879E1,4.133401423E0,1.072730476E0,6.462922344E-1,4.318964187E0
1.459288479E1,4.805614876E0,1.227121235E0,5.637628786E-1,4.991752141E0
1.460283079E1,5.311648706E0,1.547231149E0,9.388184202E-1,5.611498572E0
1.461277679E1,5.291942419E0,1.919962788E0,1.894099091E0,5.939572632E0
1.462272279E1,4.193097401E0,1.620752285E0,2.397836720E0,5.094950904E0
1.463266879E1,2.021570731E0,4.413431597E-1,1.726058300E0,2.694588885E0
1.464261479E1,-6.959262514E-1,-1.075536262E0,1.118051367E0,1.700332456E0
1.465256079E1,-3.107369442E0,-2.320620436E0,1.686807841E0,4.229225077E0
1.466250679E1,-3.912368485E0,-3.192318376E0,2.946616620E0,5.846372660E0
1.467245279E1,-3.704279528E0,-3.620036353E0,4.269215870E0,6.712119946E0
1.468239979E1,-2.902263150E0,-3.615436934E0,4.397378066E0,6.389949098E0
1.469234579E1,-1.923466732E0,-3.932798364E0,2.956732303E0,5.282886820E0
1.470229179E1,-8.391239780E-1,-4.848045196E0,8.099615747E-1,4.986352276E0
1.471223779E1,2.516992450E-1,-5.347257664E0,-1.739722073E-2,5.353206488E0
1.472218379E1,-4.517488647E-1,-5.015085529E0,1.048061658E0,5.143305663E0
1.473212979E1,-4.575504720E-1,-3.918271249E0,2.643985203E0,4.748985130E0
1.474207579E1,-1.804023904E-1,-2.370097821E0,2.168551607E0,3.217533958E0
1.475202179E1,-3.077377903E-1,-9.117882040E-1,1.455645479E0,1.744982532E0
1.476196779E1,-4.134718215E-1,8.405314028E-2,1.068643565E0,1.148922515E0
1.477191379E1,-4.815275645E-1,6.584760046E-1,8.490151280E-1,1.177406528E0
1.478186079E1,-3.823523551E-1,1.238035648E0,7.932274282E-1,1.519254864E0
1.479180679E1,-3.866559058E-1,1.882109376E0,7.554981230E-1,2.064610352E0
1.480175279E1,-6.281973678E-1,2.348171639E0,8.528785296E-1,2.576032563E0
1.481169879E1,-8.588174003E-1,2.582850224E0,9.083738686E-1,2.869464357E0
1.482164479E1,-1.011085913E0,2.654020194E0,8.116607025E-1,2.953796034E0
1.483159079E1,-1.150845476E0,2.729254272E0,6.223144110E-1,3.026639955E0
1.484153679E1,-1.508599765E0,2.705948147E0,5.175609579E-1,3.141002701E0
1.485148279E1,-1.989005833E0,2.486458290E0,2.740315157E-1,3.195889908E0
1.486142879E1,-2.519635976E0,2.033348778E0,-9.362729810E-2,3.239110800E0
1.487137479E1,-2.912416255E0,1.481570426E0,-3.751860076E-1,3.289070372E0
1.488132179E1,-3.116719725E0,1.107663789E0,-4.104399671E-1,3.333064937E0
1.489126779E1,-3.216904163E0,7.858289462E-1,-2.385312422E-1,3.320074801E0
1.490121379E1,-3.382863346E0,6.473873448E-1,-1.958232522E-2,3.444308096E0
1.491115979E1,-3.491825625E0,5.939677674E-1,2.175091133E-3,3.541983715E0
1.492110579E1,-3.553286294E0,6.593858314E-1,-9.842917778E-2,3.615289956E0
1.493105179E1,-3.737389387E0,7.376864809E-1,-3.743979491E-1,3.827849866E0
1.494099779E1,-3.956683363E0,8.915653163E-1,-6.492299487E-1,4.107521330E0
1.495094379E1,-3.999170401E0,9.758827507E-1,-8.671005660E-1,4.206848515E0
1.496088979E1,-3.656709505E0,9.913240778E-1,-9.545630716E-1,3.907101034E0
1.497083579E1,-3.055236252E0,1.117175454E0,-8.785979462E-1,3.369641509E0
1.498078279E1,-2.362954570E0,1.293219915E0,-8.755018455E-1,2.832397488E0
1.499072879E1,-1.685984992E0,1.449304905E0,-9.782502153E-1,2.428992298E0
1.500067479E1,-9.274765760E-1,1.543681889E0,-1.187980631E0,2.157420811E0
1.501062079E1,-2.418121880E-1,1.639845783E0,-1.395402347E0,2.166729110E0
1.502056679E1,3.064379543E-1,1.796817210E0,-1.629351200E0,2.444839798E0
1.503051279E1,8.792376316E-1,1.829219848E0,-1.850226263E0,2.746350540E0
1.504045879E1,1.495034809E0,1.765188451E0,-2.044212320E0,3.087041198E0
1.505040479E1,2.250457065E0,1.764292073E0,-2.359642707E0,3.707451581E0
1.506035079E1,3.072956824E0,1.715411689E0,-2.771427022E0,4.479565676E0
1.507029779E1,3.495239815E0,8.427106601E-1,-3.031472583E0,4.702838360E0
1.508024379E1,3.450141410E0,-1.096345333E0,-3.205530159E0,4.835377177E0
1.509018979E1,3.619561560E0,-2.883091592E0,-3.702926483E0,5.926643869E0
1.510013579E1,3.520641289E0,-3.893189617E0,-4.325518125E0,6.801613597E0
1.511008179E1,3.157577144E0,-3.849306849E0,-4.889185621E0,6.977936132E0
1.512002779E1,2.765245346E0,-2.637309437E0,-5.260535270E0,6.501939266E0
1.512997379E1,2.292151220E0,-1.311703548E0,-5.486878649E0,6.089364558E0
1.513991979E1,2.234114681E0,-4.338674945E-1,-5.408467487E0,5.867796006E0
1.514986579E1,2.316930551E0,5.177212447E-1,-4.693597426E0,5.259853540E0
1.515981179E1,2.254162445E0,6.445245481E-1,-3.854223772E0,4.511285971E0
1.516975879E1,2.235603383E0,-9.730579609E-1,-2.925699960E0,3.808475356E0
1.517970479E1,2.870665966E0,-3.135636637E0,-1.828729559E0,4.627871218E0
1.518965113E1,3.337265589E0,-4.931228271E0,-2.969965283E-1,5.961758198E0
1.519959712E1,3.683804333E0,-6.363307278E0,1.340188844E0,7.473834359E0
1.520954313E1,3.197045850E0,-7.078090215E0,2.997071074E0,8.324836232E0
1.521948913E1,2.166875795E0,-6.321273984E0,4.621733977E0,8.124917257E0
1.522943513E1,6.421090633E-1,-3.825458980E0,5.343931183E0,6.603335592E0
1.523938113E1,-1.423953717E0,-9.431003362E-1,5.135991915E0,5.412531329E0
1.524932713E1,-3.109126530E0,8.246760929E-1,4.903472123E0,5.864366743E0
1.525927413E1,-3.821207469E0,1.358930340E0,5.241638238E0,6.627449707E0
1.526922013E1,-3.571565859E0,8.554640222E-1,5.671348947E0,6.756633797E0
1.527916613E1,-2.938163885E0,7.665933609E-2,5.855885319E0,6.552104741E0
1.528911212E1,-1.923372592E0,-5.837550205E-1,6.202819335E0,6.520360400E0
1.529905813E1,-3.537179554E-1,-8.969441700E-1,6.479523613E0,6.550866468E0
1.530900413E1,9.971011269E-1,-6.863806719E-1,6.316276368E0,6.431226652E0
1.531895013E1,2.024697822E0,-4.229712081E-1,5.304767118E0,5.693756237E0
1.532889613E1,2.961250446E0,-3.009328008E-2,3.775667599E0,4.798497227E0
1.533884213E1,3.353565288E0,5.908877465E-1,2.090119248E0,3.995515854E0
1.534878813E1,2.990423959E0,1.267715237E0,9.616575714E-1,3.387406481E0
1.535873513E1,1.842336615E0,1.409888532E0,1.887509718E-1,2.327577454E0
1.536868113E1,4.572394001E-1,1.126747639E0,-1.737631693E-2,1.216112679E0
1.537862712E1,-4.838471550E-1,7.808769393E-1,-2.799581073E-2,9.190542036E-1
1.538857313E1,-9.398574704E-1,4.510521689E-1,5.264533304E-2,1.043815910E0
1.539851913E1,-1.574458124E0,4.052111676E-1,3.129055595E-1,1.655603927E0
1.540846513E1,-1.973273900E0,4.851461139E-1,3.438589650E-1,2.060925914E0
1.541841113E1,-2.234294191E0,5.751011413E-1,1.351449412E-1,2.311076807E0
1.542835713E1,-2.424281922E0,9.151930377E-1,-1.803121971E-1,2.597543767E0
1.543830313E1,-2.704117384E0,1.178999820E0,-5.668998367E-1,3.003941881E0
1.544825013E1,-2.898999234E0,1.414647581E0,-7.242535262E-1,3.306050137E0
1.545819613E1,-3.069252613E0,1.732845163E0,-6.660189128E-1,3.587010615E0
1.546814212E1,-3.210181035E0,1.930102152E0,-4.968174487E-1,3.778542599E0
1.547808813E1,-3.397373212E0,1.904846858E0,-2.607625754E-1,3.903662820E0
1.548803413E1,-3.559931070E0,1.922169527E0,-8.675923169E-2,4.046649488E0
1.549798013E1,-3.585165898E0,1.930198047E0,6.100093111E-2,4.072198439E0
1.550792613E1,-3.312811364E0,1.930452985E0,-5.449268773E-2,3.834623491E0
1.551787213E1,-2.746997940E0,2.091600202E0,-4.021880110E-1,3.475995438E0
1.552781813E1,-2.189129128E0,2.277902725E0,-7.948225486E-1,3.257740022E0
1.553776513E1,-1.751643376E0,2.386981656E0,-1.238361923E0,3.209279701E0
1.554771113E1,-1.362645661E0,2.494609308E0,-1.600415230E0,3.262086404E0
1.555765712E1,-1.158117074E0,2.580282127E0,-1.912275746E0,3.414072281E0
1.556760313E1,-1.131879448E0,2.619639151E0,-2.044391829E0,3.510441328E0
1.557754913E1,-1.045863982E0,2.546272090E0,-2.053587307E0,3.434319998E0
1.558749513E1,-8.590121126E-1,2.365482614E0,-2.012063743E0,3.222081674E0
1.559744113E1,-6.156451499E-1,2.121647289E0,-1.975702248E0,2.963748563E0
1.560738713E1,-4.002933669E-1,1.716665625E0,-1.868485948E0,2.568738092E0
1.561733313E1,-6.058475554E-2,1.060803910E0,-1.631031690E0,1.946596985E0
1.562728013E1,3.487969387E-1,3.551709884E-1,-1.172470161E0,1.273770785E0
1.563722613E1,1.020275981E0,-3.720603785E-1,-1.152497315E0,1.583553619E0
1.564717212E1,2.255661086E0,-8.291939440E-1,-1.683293665E0,2.934117771E0
1.565711813E1,3.553109123E0,-9.001425970E-1,-2.364514607E0,4.361854017E0
1.566706413E1,4.448534771E0,-4.702699202E-1,-2.194310346E0,4.982530813E0
1.567701013E1,4.642478144E0,3.006813705E-1,-1.380097260E0,4.852595290E0
1.568695613E1,4.695487831E0,9.344692612E-1,-1.061822861E0,4.903907275E0
1.569690213E1,4.710474830E0,1.230887719E0,-1.800123811E0,5.190770986E0
1.570684813E1,4.789340320E0,1.284839101E0,-2.885313826E0,5.737040012E0
1.571679413E1,4.796441764E0,1.042266775E0,-3.355449845E0,5.945688966E0
1.572674113E1,4.771438485E0,7.156880862E-1,-2.366804962E0,5.374067396E0
1.573668712E1,3.994002632E0,3.640944242E-1,-8.564633113E-1,4.100993926E0
1.574663313E1,2.634529086E0,2.214048207E-1,7.648624023E-2,2.644922257E0
1.575657913E1,2.036712096E0,4.882881153E-1,1.022585047E0,2.330729848E0
1.576652513E1,2.475482481E0,9.982068354E-1,1.802839258E0,3.220971870E0
1.577647113E1,3.565861900E0,1.295784211E0,1.475063644E0,4.070656037E0
1.578641713E1,5.148867484E0,1.519857117E0,1.045267566E0,5.469313148E0
1.579636313E1,6.062836407E0,1.957824094E0,1.522106248E0,6.550409752E0
1.580631013E1,5.716465479E0,2.360762741E0,2.490264242E0,6.667277877E0
1.581625613E1,3.877706190E0,1.891942931E0,2.703540848E0,5.091678159E0
1.582620212E1,1.468918805E0,4.915227950E-1,2.227091591E0,2.712794513E0
1.583614813E1,-1.238506933E0,-1.140684185E0,2.123685336E0,2.710184356E0
1.584609413E1,-3.324313422E0,-2.486049277E0,2.848171143E0,5.034240717E0
1.585604013E1,-3.691557741E0,-3.366095578E0,3.993310322E0,6.395680208E0
1.586598613E1,-2.983554651E0,-4.046051914E0,4.319622962E0,6.628067364E0
1.587593213E1,-2.120213259E0,-4.613622134E0,3.541931001E0,6.190806787E0
1.588587813E1,-1.349775939E0,-5.315066988E0,1.926538274E0,5.812347365E0
1.589582513E1,-2.341961896E-1,-5.703526760E0,5.265188192E-1,5.732563774E0
1.590577113E1,2.333401573E-1,-5.541836629E0,3.500001495E-1,5.557778419E0
1.591571712E1,5.560000420E-2,-4.427831535E0,1.308261877E0,4.617394568E0
1.592566313E1,1.072665864E-1,-2.661556963E0,1.732893110E0,3.177783838E0
1.593560913E1,-2.787426174E-1,-1.186500043E0,1.262354072E0,1.754712968E0
1.594555513E1,-8.245989096E-1,-1.553748456E-1,8.511574017E-1,1.195229529E0
1.595550113E1,-1.296280348E0,4.293923280E-1,6.231721245E-1,1.501020988E0
1.596544713E1,-1.382657756E0,8.396598753E-1,6.634063768E-1,1.748393319E0
1.597539313E1,-1.431272092E0,1.373801856E0,9.143694574E-1,2.184477705E0
1.598534013E1,-1.384328306E0,2.035887347E0,9.484489305E-1,2.638324756E0
1.599528613E1,-1.472984374E0,2.547952580E0,6.878793132E-1,3.022403557E0
1.600523212E1,-1.605929593E0,2.915376116E0,5.029206263E-1,3.366208091E0
1.601517813E1,-1.753712706E0,3.185190912E0,3.895558324E-1,3.656870677E0
1.602512413E1,-1.998042705E0,3.196274017E0,2.497363347E-1,3.777659392E0
1.603507013E1,-2.156564814E0,3.071482448E0,9.678077459E-2,3.754216662E0
1.604501613E1,-2.276425134E0,2.699314481E0,-2.612775689E-1,3.540716880E0
1.605496213E1,-2.410600022E0,2.174199140E0,-5.382332772E-1,3.290566733E0
1.606490913E1,-2.397729131E0,1.739656877E0,-7.417573855E-1,3.053803375E0
1.607485513E1,-2.479501272E0,1.240698470E0,-8.618947899E-1,2.903467217E0
1.608480113E1,-2.611901531E0,8.252330402E-1,-9.414028895E-1,2.896425137E0
1.609474712E1,-2.838726135E0,6.123876661E-1,-9.711921144E-1,3.062123258E0
1.610469313E1,-3.201271632E0,4.336850613E-1,-1.017108106E0,3.386846866E0
1.611463913E1,-3.777443399E0,-1.126173735E-1,-8.568254001E-1,3.875036912E0
1.612458513E1,-4.106114221E0,-4.304041886E-1,-5.344039357E-1,4.163052886E0
1.613453113E1,-4.163908101E0,-4.978950906E-1,-3.601551551E-1,4.209007238E0
1.614447713E1,-3.914341920E0,-2.122188449E-1,-4.946225502E-1,3.951172101E0
1.615442413E1,-3.452790783E0,2.652408117E-1,-6.988855273E-1,3.532783302E0
1.616437013E1,-2.831137619E0,6.866882354E-1,-8.091751242E-1,3.023515393E0
1.617431613E1,-2.147726163E0,1.132810324E0,-9.055525871E-1,2.591527039E0
1.618426212E1,-1.449642289E0,1.616293490E0,-9.490240042E-1,2.369496566E0
1.619420838E1,-6.375529128E-1,1.936303417E0,-1.105336524E0,2.318946629E0
1.620415438E1,1.430591476E-1,2.013721137E0,-1.055304385E0,2.277982897E0
1.621410038E1,7.130691183E-1,1.971751285E0,-1.217996217E0,2.424826897E0
1.622404638E1,1.327740707E0,1.641863072E0,-1.776922644E0,2.759721691E0
1.623399238E1,2.033496128E0,1.443155973E0,-2.469548727E0,3.509483805E0
1.624393938E1,2.747782636E0,1.408177052E0,-3.259238005E0,4.489532759E0
1.625388538E1,3.407249744E0,1.480513834E0,-3.952338881E0,5.424228486E0
1.626383138E1,3.449022837E0,8.123609796E-1,-4.144173163E0,5.452509523E0
1.627377737E1,3.117813739E0,-9.422861114E-1,-3.946745435E0,5.117173551E0
1.628372338E1,3.101046263E0,-2.680389090E0,-4.029725611E0,5.748013753E0
1.629366938E1,3.507348813E0,-3.887455545E0,-4.556526997E0,6.940874915E0
1.630361538E1,4.087329456E0,-3.985815068E0,-5.225749015E0,7.739601838E0
1.631356138E1,3.737630877E0,-3.033607986E0,-5.722268840E0,7.477768562E0
1.632350838E1,2.538757541E0,-1.742481082E0,-5.909073347E0,6.663233298E0
1.633345438E1,1.525098853E0,-1.718449903E-1,-5.125959263E0,5.350786445E0
1.634340038E1,7.093713391E-1,9.670511162E-1,-3.915991420E0,4.095532243E0
1.635334638E1,4.109019703E-1,2.061348170E-1,-2.680000835E0,2.719142598E0
1.636329237E1,1.060911791E0,-2.000129869E0,-1.564726457E0,2.752166820E0
1.637323838E1,1.555390939E0,-3.965417349E0,2.130244450E-1,4.264874574E0
1.638318438E1,1.845540304E0,-5.688039240E0,2.126518897E0,6.346801716E0
1.639313038E1,2.440541275E0,-6.976389593E0,3.425505921E0,8.146185873E0
1.640307738E1,2.481301045E0,-6.538046640E0,4.513277482E0,8.323015221E0
1.641302338E1,2.028938223E0,-4.524167336E0,5.146250271E0,7.146227833E0
1.642296938E1,1.167041094E0,-1.907433667E0,5.207950090E0,5.667718434E0
1.643291538E1,-3.973188883E-1,5.305640692E-1,4.977899576E0,5.021836788E0
