"Time (s)","Linear Acceleration x (m/s^2)","Linear Acceleration y (m/s^2)","Linear Acceleration z (m/s^2)","Absolute acceleration (m/s^2)"
9.000512000E-3,-6.035194397E-1,1.159978151E0,1.482269764E-1,1.315962105E0
2.581698000E-2,1.053771973E-1,1.798160791E0,9.413838387E-2,1.803704139E0
4.262492300E-2,7.873487473E-1,5.998008847E-1,-6.658022404E-1,1.192883806E0
5.943319100E-2,9.537973404E-1,-3.173105717E-1,-1.357262492E0,1.688957323E0
7.622408500E-2,5.120182037E-1,-5.032553077E-1,-1.328889728E0,1.510422608E0
9.305365600E-2,-1.817722321E-1,-1.452670097E-1,-1.030310869E0,1.056259502E0
1.098646810E-1,-8.070249557E-1,1.792943478E-2,-2.332998514E-1,8.402616048E-1
1.266668660E-1,-1.264522552E0,5.582755804E-2,-3.622338772E-1,1.316566513E0
1.434699170E-1,-1.508092880E0,1.355435252E-1,-4.130413532E-1,1.569496525E0
1.602792120E-1,-1.525894165E0,3.936455846E-1,-8.148785830E-1,1.774073548E0
1.770950190E-1,-1.316576958E0,5.396251678E-1,-1.430265903E0,2.017481292E0
1.938874290E-1,-7.759618759E-1,4.456369281E-1,-2.026083946E0,2.214887189E0
2.107147500E-1,8.370208740E-2,2.731084824E-4,-2.064236879E0,2.065933205E0
2.275141680E-1,8.639631271E-1,-1.425317228E-1,-1.557176471E0,1.786489893E0
2.443259370E-1,1.160856247E0,7.305989265E-1,-1.346380472E0,1.922004785E0
2.611211030E-1,1.115217209E0,1.988268852E0,-2.204450130E0,3.171202111E0
2.779411620E-1,1.247021675E0,2.127134323E0,-2.465901852E0,3.487181588E0
2.947484650E-1,1.545672417E0,3.752220869E-1,-1.342050552E0,2.081104159E0
3.115594690E-1,1.966650963E0,-1.434748530E0,-1.872467995E-1,2.441573411E0
3.283655810E-1,2.202181816E0,-2.775045872E0,-1.914148211E0,4.026716742E0
3.451754980E-1,2.419544220E0,-3.821673393E0,-4.523904324E0,6.397272238E0
3.619826990E-1,3.326504707E0,-4.494818687E0,-3.847131252E0,6.787447788E0
3.787908040E-1,4.040998459E0,-4.124726772E0,-4.948205948E-1,5.795505751E0
3.956002740E-1,4.159195900E0,-2.328291416E0,2.752397776E0,5.504138894E0
4.124129270E-1,2.515666962E0,-2.357497513E-1,1.974781275E0,3.206855047E0
4.292168920E-1,-2.025051117E-1,9.679366350E-1,-7.170531154E-2,9.914894358E-1
4.460125780E-1,-2.070117474E0,1.011538982E0,-7.390163541E-1,2.419657546E0
4.628331850E-1,-2.990297794E0,1.288405895E0,1.005118728E0,3.407658185E0
4.796413210E-1,-3.565863609E0,9.878886938E-1,1.737976313E0,4.088015290E0
4.964514120E-1,-3.750936508E0,1.386392593E0,1.905664206E0,4.429804192E0
5.132599950E-1,-2.944274902E0,1.236256123E0,1.001974463E0,3.346794993E0
5.300528220E-1,-1.451944351E0,5.868412852E-1,3.251283169E-1,1.599447878E0
5.468737460E-1,-5.230960846E-1,1.618587375E-1,1.006232023E0,1.145570011E0
5.636786060E-1,6.726741791E-2,-3.601337969E-1,1.863283396E0,1.898959260E0
5.804966910E-1,3.671369553E-1,-9.382456541E-1,2.628917217E0,2.815368570E0
5.972867510E-1,-2.002716064E-5,-1.365946412E0,1.356058121E0,1.924760564E0
6.141020280E-1,-5.518436432E-1,-1.566219211E0,6.760311127E-2,1.661969977E0
6.309229220E-1,-7.620668411E-1,-1.515802622E0,-4.011902809E-1,1.743375204E0
6.477240790E-1,-1.009106636E0,-1.447210789E0,-1.969916821E-1,1.775252374E0
6.645242310E-1,-1.143340111E0,-1.011746645E0,-1.700220108E-1,1.536152781E0
6.813357140E-1,-1.147792816E0,-5.906167030E-1,-1.085782051E-1,1.295394019E0
6.981489770E-1,-1.179340363E0,-3.060061336E-1,-4.393702149E-1,1.295194823E0
7.149558120E-1,-1.193025589E0,-4.152372479E-1,-3.164319396E-1,1.302252357E0
7.317694300E-1,-1.275382996E0,-2.123420238E-1,-5.267716646E-1,1.396130118E0
7.485741480E-1,-1.132943153E0,2.897236943E-1,-4.778646827E-1,1.263271413E0
7.653866600E-1,-1.089215279E0,8.309467435E-1,-5.919232965E-1,1.492392577E0
7.821901680E-1,-1.045433044E0,1.299462438E0,-9.260964990E-1,1.907665485E0
7.989978660E-1,-9.508762360E-1,1.655636072E0,-1.153284550E0,2.230551876E0
8.158077730E-1,-6.428546906E-1,1.800301313E0,-1.230142236E0,2.273234896E0
8.326168870E-1,-1.680097580E-1,1.635586023E0,-1.042862415E0,1.947031314E0
8.494296920E-1,4.853658676E-1,7.764650583E-1,-1.800341845E0,2.019828896E0
8.662303520E-1,1.329022408E0,4.445030093E-1,-3.424473047E0,3.700121503E0
8.830435540E-1,2.188511848E0,3.737708330E-1,-4.376952171E0,4.907850757E0
8.998508150E-1,2.637394905E0,-5.512697697E-1,-4.160841942E0,4.957051130E0
9.166584740E-1,2.802235603E0,-1.115014791E0,-4.121727467E0,5.107290835E0
9.334660710E-1,3.058905602E0,-1.404185772E0,-4.985550404E0,6.015343214E0
9.502590900E-1,3.834526062E0,-9.319645166E-1,-2.145239353E0,4.491569866E0
9.670855480E-1,4.792483330E0,1.060573101E0,3.854185104E0,6.240789580E0
9.838830940E-1,4.939399719E0,8.892256021E-1,4.175280571E0,6.528503627E0
1.000698189E0,4.472523689E0,-3.690404594E-1,3.258212805E0,5.545774039E0
1.017497994E0,3.106673241E0,-6.556846499E-1,2.244966507E0,3.888600725E0
1.034315682E0,1.398018837E0,-5.889326930E-1,5.235643387E-1,1.604810893E0
1.051111531E0,-1.278276443E-1,-6.983260512E-1,-1.087990522E0,1.299123765E0
1.067933481E0,-1.140195847E0,-8.805010319E-1,-1.535888910E-1,1.448764364E0
1.084740844E0,-1.986642838E0,-1.399394393E0,1.476502657E0,2.843433581E0
1.101550609E0,-2.726783276E0,-2.143860102E0,1.189299822E0,3.666867496E0
1.118357321E0,-3.197542191E0,-2.313624382E0,2.211037874E-1,3.952976186E0
1.135165651E0,-3.739339352E0,-5.281883478E-1,3.670114040E0,5.266059132E0
1.151975710E0,-3.896539211E0,4.264749289E-1,3.566035986E0,5.299199123E0
1.168781659E0,-3.851026058E0,5.766864419E-1,2.597138405E0,4.680608598E0
1.185590518E0,-3.521804333E0,5.157499313E-1,5.237158537E-1,3.597691210E0
1.202388736E0,-2.889243126E0,1.389395595E0,6.633651257E-2,3.206640998E0
1.219211805E0,-2.044720650E0,1.577981114E0,-7.025365829E-1,2.676651749E0
1.236015670E0,-1.442156792E0,1.197556257E0,-1.174543738E0,2.212127979E0
1.252823887E0,-8.831024170E-1,6.398637295E-1,-1.436989665E0,1.803949769E0
1.269636946E0,-5.912475586E-1,-1.430113614E-1,-1.140581965E0,1.292653529E0
1.286430191E0,-8.118495941E-1,-7.886462212E-1,-5.919703245E-1,1.277298513E0
1.303253209E0,-1.388387680E0,-1.041368723E0,-4.403542280E-1,1.790525346E0
1.320053584E0,-1.672661781E0,-1.229535580E0,-6.699162722E-2,2.077027456E0
1.336865648E0,-1.715319633E0,-1.131641746E0,6.806761026E-2,2.056104979E0
1.353673804E0,-1.362249374E0,-9.883979559E-1,-3.303888440E-1,1.715170739E0
1.370484921E0,-5.172338486E-1,-9.845477343E-1,-5.600915551E-1,1.245217911E0
1.387290686E0,4.928112030E-1,-5.674442053E-1,-1.271358728E0,1.476891609E0
1.404114083E0,1.482289314E0,3.331337273E-1,-2.600023031E0,3.011358407E0
1.420909625E0,2.566098213E0,7.445179224E-1,-3.857077599E0,4.692143921E0
1.437712848E0,3.461903572E0,8.458594084E-1,-2.195351839E0,4.185668905E0
1.454512368E0,3.298580170E0,1.111278057E0,-3.824107647E-1,3.501686458E0
1.471333638E0,1.701755524E0,3.264522851E-1,-4.876867294E0,5.175555773E0
1.488143381E0,3.475275040E-1,-9.652819633E-1,-9.108984947E0,9.166577955E0
1.504945323E0,1.426329613E0,-1.036932707E0,-4.943551064E0,5.248651514E0
1.521762787E0,3.856429100E0,-1.576018572E0,3.655677319E0,5.542549648E0
1.538553620E0,5.098397255E0,-2.412403107E0,7.341222763E0,9.257801844E0
1.555374209E0,4.146283150E0,-1.336093903E0,5.191830635E0,6.777308921E0
1.572182914E0,2.193298340E0,-1.701246381E0,3.167466819E-2,2.775932301E0
1.588992800E0,-6.359672546E-2,-3.096731186E0,-3.883172035E0,4.967173606E0
1.605798190E0,-2.480427265E0,-2.060507536E0,-1.949267745E0,3.768004175E0
1.622606214E0,-3.012882710E0,-7.010754347E-1,1.077891350E0,3.275792843E0
1.639420607E0,-2.707965851E0,1.426558495E-1,2.629997492E0,3.777607252E0
1.656229659E0,-2.493460655E0,8.440214396E-1,4.724204063E0,5.408125578E0
1.673029922E0,-2.562818527E0,4.571380615E-1,4.195842266E0,4.937824048E0
1.689842036E0,-2.655534267E0,-8.389993310E-1,1.681880951E0,3.253383724E0
1.706648575E0,-2.827156544E0,-5.232445002E-1,1.374257326E0,3.186719650E0
1.723466467E0,-2.427914619E0,-8.624223471E-1,-2.111651897E-1,2.585175515E0
1.740267777E0,-1.871579647E0,-9.443658590E-1,-7.386270761E-1,2.222657690E0
1.757072608E0,-1.127792358E0,-1.117226720E0,-6.559137106E-1,1.717653616E0
1.773882128E0,-5.016317368E-1,-9.592249393E-1,-2.486265898E-1,1.110658392E0
1.790693824E0,-8.911609650E-2,-9.219509959E-1,-5.966013670E-1,1.101757010E0
1.807498929E0,-1.335887909E-1,-8.332611322E-1,-9.910808206E-1,1.301695538E0
1.824306283E0,-5.767517090E-1,-2.478595376E-1,-5.734776258E-1,8.502667061E-1
1.841116596E0,-1.031358719E0,3.157426119E-1,-6.514707208E-1,1.260082658E0
1.857912087E0,-1.423666000E0,7.473554611E-1,-9.376305938E-1,1.861321089E0
1.874732991E0,-1.545737267E0,1.235348821E0,-1.145576715E0,2.286424374E0
1.891540496E0,-1.154273033E0,1.726084948E0,-1.198926091E0,2.397736277E0
1.908349192E0,-5.076684952E-1,1.820243001E0,-1.023094773E0,2.148891528E0
1.925183025E0,2.549743652E-2,1.557833195E0,-8.219845295E-1,1.761576836E0
1.941967062E0,6.232233047E-1,6.647732258E-1,-1.154688835E0,1.470930670E0
1.958761811E0,1.522063255E0,3.972685337E-2,-1.990055799E0,2.505708854E0
1.975583854E0,2.445687294E0,-8.195853233E-1,-4.560768604E0,5.239629443E0
1.992378736E0,2.984951973E0,-1.182773352E0,-5.668317795E0,6.514500572E0
2.009206433E0,3.165441513E0,-1.452257395E0,-5.952490330E0,6.896463778E0
2.026001102E0,2.653414726E0,-2.398496628E0,-6.432007790E0,7.359627707E0
2.042813500E0,2.171489716E0,-2.249263525E0,-1.697141409E0,3.557364608E0
2.059629907E0,3.109477997E0,5.047609210E-1,1.004022598E0,3.306311900E0
2.076427871E0,4.221825600E0,2.793739796E0,2.300606489E0,5.560717909E0
2.093239364E0,4.481645584E0,1.804918528E0,3.579441071E0,6.012925778E0
2.110052007E0,2.935189247E0,2.939423919E-1,3.607420206E0,4.659959076E0
2.126858038E0,1.194687843E0,3.415573835E-1,3.100722313E0,3.340422032E0
2.143665381E0,2.790126801E-1,-7.350802422E-3,2.011266947E0,2.030541022E0
2.160473893E0,-2.228507996E-1,-1.817271560E-1,1.372077107E0,1.401885454E0
2.177282223E0,-6.068353653E-1,-6.851426959E-1,1.587829113E0,1.832722283E0
2.194092344E0,-1.105239868E0,-8.450124860E-1,2.892023087E0,3.209267642E0
2.210898679E0,-1.867974758E0,-1.300771087E-1,4.534645557E0,4.906043221E0
2.227706886E0,-2.768254757E0,1.839068979E-1,5.503005028E0,6.162801350E0
2.244516234E0,-3.336219311E0,5.841939449E-1,6.282253265E-1,3.444750922E0
2.261325743E0,-3.521530151E0,8.567408323E-1,-2.539018631E0,4.425132209E0
2.278131245E0,-3.475112915E0,1.344933510E0,-2.028308153E0,4.242556998E0
2.294942505E0,-3.228191853E0,9.166061878E-1,-2.475988865E-1,3.364921210E0
2.311753082E0,-3.015887260E0,6.682294607E-1,5.879095793E-1,3.144478375E0
2.328553660E0,-2.396575928E0,3.694841266E-1,8.139206171E-1,2.557843128E0
2.345364666E0,-2.306120396E0,-5.208584070E-1,6.939396262E-1,2.463947435E0
2.362175793E0,-2.540369511E0,-6.859222651E-1,6.783188581E-1,2.717366938E0
2.378971406E0,-2.799615383E0,-9.421321750E-1,8.252383471E-1,3.066998151E0
2.395791577E0,-3.025972366E0,-1.070474267E0,-1.279891655E-2,3.209764435E0
2.412593294E0,-2.676317692E0,-1.247636318E0,-4.932036996E-1,2.993747260E0
2.429412020E0,-1.831588745E0,-1.497122526E0,-1.187962055E0,2.647139406E0
2.446206089E0,-1.401624680E-1,-1.801858187E0,-1.841639280E0,2.580304959E0
2.463020543E0,1.884450912E0,-2.038038969E0,-2.855960846E0,3.982621051E0
2.479833561E0,3.231488228E0,-1.692916870E0,-3.831476688E0,5.290434510E0
2.496640132E0,3.446280479E0,1.281303763E-1,-4.451735497E0,5.631271212E0
2.513432602E0,3.138756752E0,2.465427876E0,-2.335702419E0,4.624460439E0
2.530253219E0,1.460791588E0,4.457588196E0,2.047207355E-1,4.695307782E0
2.547068661E0,-6.416778564E-1,4.255204201E0,-4.731287003E0,6.395591447E0
2.563871619E0,-4.141054153E-1,2.827386618E0,-9.901017189E0,1.030513172E1
2.580687364E0,6.267719269E-1,1.504554749E0,-6.665027618E0,6.861422680E0
2.597490068E0,2.572923660E0,4.168608785E-1,-3.139951229E-1,2.625319426E0
2.614299680E0,4.790894508E0,-1.420388818E0,6.391315460E0,8.112896394E0
2.631112943E0,5.635076523E0,-2.000101328E0,6.919515610E0,9.145172990E0
2.647915484E0,4.839712143E0,-2.497717857E0,5.863279343E0,8.002465418E0
2.664722981E0,2.725024223E0,-3.547072887E0,1.287510514E0,4.654585525E0
2.681533487E0,-3.030300140E-2,-4.768687248E0,-2.074614525E0,5.200511683E0
2.698340067E0,-2.430981159E0,-4.079221249E0,-1.009520769E0,4.854775749E0
2.715151469E0,-3.123607635E0,-2.387934208E0,2.151888847E0,4.482162430E0
2.731957235E0,-2.848340511E0,-1.062101483E0,2.859109879E0,4.173201712E0
2.748765178E0,-2.386544704E0,-9.971967936E-1,3.246188879E0,4.150631194E0
2.765574821E0,-2.488857746E0,-3.156256080E-1,2.645576000E0,3.645971034E0
2.782381350E0,-2.341199398E0,-3.004028797E-1,1.933417439E0,3.051157077E0
2.799193798E0,-2.149199963E0,-4.208635092E-1,1.290129185E0,2.541774948E0
2.815999840E0,-1.952991486E0,-4.117620587E-1,6.118716002E-1,2.087608821E0
2.832791893E0,-1.724344254E0,-2.440119982E-1,2.440046072E-1,1.758534392E0
2.849618228E0,-1.649616241E0,-4.431867599E-2,1.309607625E-1,1.655399834E0
2.866426935E0,-1.531864166E0,-1.995623708E-1,-1.190728545E-1,1.549390625E0
2.883231450E0,-1.286499977E0,-1.105917096E-1,-5.368009806E-1,1.398380495E0
2.900020288E0,-1.147005081E0,2.075604200E-1,-1.022178650E0,1.550339052E0
2.916848424E0,-1.385987282E0,7.991540432E-1,-9.368622303E-1,1.854000747E0
2.933645472E0,-1.562759399E0,1.248633862E0,-7.239902616E-1,2.127314119E0
2.950465490E0,-1.388653755E0,1.478024364E0,-4.393295944E-1,2.075072472E0
2.967274267E0,-1.042839050E0,1.645073295E0,-2.413215637E-1,1.962655224E0
2.984079017E0,-3.475284576E-1,2.021069288E0,-4.600137472E-1,2.101692115E0
3.000894264E0,3.188629150E-1,2.555938244E0,-1.277845383E0,2.875305668E0
3.017697700E0,9.138269424E-1,2.069103479E0,-3.127655745E0,3.859857426E0
3.034511168E0,8.527021408E-1,1.512591481E0,-7.124175072E0,7.332728304E0
3.051314970E0,1.726016045E0,1.064471245E0,-7.467247009E0,7.737700454E0
3.068124561E0,2.421669960E0,3.655812144E-1,-4.723060608E0,5.320285380E0
3.084933288E0,2.300960541E0,-1.378091931E0,-4.820507526E0,5.516416372E0
3.101739054E0,1.943992615E0,-2.276029587E0,-4.336943626E0,5.269582335E0
3.118548715E0,3.133363724E0,-9.883603454E-1,-1.819128394E0,3.755536248E0
3.135358165E0,4.640555382E0,1.443249345E0,1.365664959E0,5.048045533E0
3.152166586E0,4.637901306E0,1.564684153E0,2.331604719E0,5.421692133E0
3.168972505E0,2.816974640E0,7.665784955E-1,2.953982830E0,4.153191938E0
3.185787050E0,2.545480728E-1,1.387385726E-1,3.894944668E0,3.905718510E0
3.202591300E0,-1.291519165E0,-3.731407523E-1,3.598061323E0,3.841002611E0
3.219400606E0,-1.663031578E0,-8.905492425E-1,3.261231661E0,3.767543487E0
3.236209344E0,-7.412538528E-1,-1.544086933E0,4.348930836E0,4.674062595E0
3.253015862E0,-1.932239532E-2,-1.573726535E0,4.226169109E0,4.509711066E0
3.269825484E0,-1.470861435E-1,-1.300837398E0,3.461640835E0,3.700914689E0
3.286621200E0,-7.757215500E-1,-6.535312533E-1,2.349951506E0,2.559515404E0
3.303429590E0,-1.236255646E0,1.612784266E-1,6.682631969E-1,1.414536833E0
3.320246637E0,-1.506814003E0,7.407079935E-1,-1.455120802E0,2.221826573E0
3.337060136E0,-2.145360947E0,1.294189453E0,-9.954055548E-1,2.695984449E0
3.353851904E0,-2.627681255E0,2.082003117E0,6.912058592E-2,3.353240733E0
3.370674709E0,-2.838153362E0,2.146812439E0,2.853348553E-1,3.570060803E0
3.387471859E0,-2.655598640E0,1.006280780E0,6.120070815E-1,2.905057283E0
3.404288072E0,-2.532148361E0,1.253184676E-1,7.256582975E-1,2.637055177E0
3.421105618E0,-2.785523415E0,-1.442065239E-1,8.037118912E-1,2.902738193E0
3.437901416E0,-2.989727020E0,-2.637463212E-1,1.001744032E0,3.164098747E0
3.454721180E0,-2.949944973E0,-4.482575059E-1,1.124477983E0,3.188661297E0
3.471524656E0,-2.615837574E0,-7.762566805E-1,8.625207543E-1,2.861664323E0
3.488331511E0,-1.910891056E0,-1.173070908E0,-2.473931313E-1,2.255837615E0
3.505141418E0,-7.767162323E-1,-1.660252810E0,-1.972844243E0,2.692924415E0
3.521950835E0,6.307477951E-1,-1.799272537E0,-3.019700527E0,3.571248482E0
3.538756195E0,1.564180374E0,-6.500023603E-1,-2.288994789E0,2.847570975E0
3.555564017E0,1.962492943E0,7.751827240E-1,-1.733766794E0,2.730976767E0
3.572374645E0,2.282461166E0,1.848716021E0,-2.208085060E0,3.674645498E0
3.589183829E0,2.090458870E0,2.897144794E0,-1.542676687E0,3.891441585E0
3.605991508E0,6.221151352E-1,3.515209198E0,-2.659291983E0,4.451466814E0
3.622797823E0,-1.002903938E0,3.381613255E0,-7.329145432E0,8.133725916E0
3.639608177E0,-5.040760040E-1,1.431163788E0,-7.655048370E0,7.803978982E0
3.656417779E0,1.123484612E0,2.963341475E-1,-5.090126038E0,5.221054939E0
3.673225386E0,3.008353233E0,-3.475628495E-1,6.164150238E-1,3.090462197E0
3.690029932E0,4.902997971E0,-1.905802846E0,6.592215538E0,8.433787956E0
3.706840174E0,5.807806969E0,-2.736238003E0,8.435832977E0,1.060098572E1
3.723649897E0,4.795458794E0,-3.265063047E0,5.280040741E0,7.844481625E0
3.740444982E0,2.878867149E0,-4.589509487E0,-1.354953527E0,5.584565557E0
3.757265315E0,-1.951570511E-1,-4.767244339E0,-3.391412735E0,5.853749670E0
3.774056219E0,-2.385926723E0,-2.300653458E0,3.204387426E-2,3.314616037E0
3.790883236E0,-2.664868355E0,-3.822443485E-1,3.509465694E0,4.423119211E0
3.807689988E0,-2.235550880E0,3.879700899E-1,3.574115515E0,4.233498582E0
3.824498319E0,-1.957605362E0,3.787420392E-1,2.892107248E0,3.512826301E0
3.841295184E0,-2.356940269E0,5.867388248E-1,2.493362904E0,3.480845939E0
3.858117023E0,-2.596625805E0,1.370090246E-2,1.784672379E0,3.150826683E0
3.874914580E0,-2.860051632E0,-1.188817024E-1,9.123352766E-1,3.004394091E0
3.891730742E0,-2.900444508E0,-6.982946396E-2,5.907049775E-1,2.960808482E0
3.908539520E0,-2.608642101E0,-2.371284962E-1,5.375410318E-1,2.673984648E0
3.925345927E0,-2.047184467E0,-5.661181211E-1,8.539843559E-1,2.289266968E0
3.942160614E0,-1.270868301E0,-6.463878155E-1,4.731326103E-1,1.502257606E0
3.958962861E0,-1.089570999E0,-1.137245297E-1,-6.756716371E-1,1.287101547E0
3.975775087E0,-9.489679337E-1,3.279662132E-2,-1.714722037E0,1.960073321E0
3.992579174E0,-8.489866257E-1,6.293364763E-1,-2.095592737E0,2.346987774E0
4.009392762E0,-7.397623062E-1,1.127761960E0,-1.996749640E0,2.409585946E0
4.026201663E0,-8.629074097E-1,1.636635303E0,-1.022151828E0,2.113759370E0
4.043008558E0,-9.882841110E-1,1.880825996E0,9.000778198E-3,2.124686548E0
4.059814436E0,-1.037561417E0,2.329715729E0,3.397624493E-1,2.572848148E0
4.076623050E0,-9.506883621E-1,2.185617924E0,-2.658614635E0,3.570569401E0
4.093432519E0,2.068548203E-1,1.228301525E0,-7.070485592E0,7.179364878E0
4.110237370E0,1.209895134E0,1.227721334E0,-6.835840225E0,7.049812586E0
4.127051051E0,1.848021507E0,1.297459841E0,-3.397370577E0,4.079302927E0
4.143844925E0,2.874418259E0,4.743250608E-1,-2.051047802E0,3.562872672E0
4.160664404E0,3.032079697E0,-8.023107052E-2,-3.583791971E0,4.695051566E0
4.177478887E0,2.492468834E0,-6.101813316E-1,-4.214695930E0,4.934408164E0
4.194277462E0,3.064284325E0,2.918938398E-1,-1.588866591E0,3.464034856E0
4.211092434E0,4.298289299E0,2.368753433E0,1.321809769E0,5.082663159E0
4.227894508E0,4.787859917E0,2.854816437E0,1.599725246E0,5.799370684E0
4.244718991E0,3.123192787E0,1.381788492E0,1.749306440E0,3.837153326E0
4.261502958E0,2.869100571E-1,5.784131885E-1,2.608009338E0,2.686743737E0
4.278322335E0,-1.768905640E0,1.597332954E-1,2.673638821E0,3.209810965E0
4.295132801E0,-1.935196400E0,-3.479572535E-1,2.220181465E0,2.965681219E0
4.311938424E0,-5.322198868E-1,-3.296045959E-1,2.897748709E0,2.964598586E0
4.328762674E0,3.463687897E-1,-4.990598559E-1,3.890105486E0,3.937251931E0
4.345559622E0,6.758861542E-1,-9.000172019E-1,4.203794479E0,4.351866391E0
4.362363791E0,5.119647980E-1,-1.316062689E0,3.814910650E0,4.067883015E0
4.379174388E0,-2.050743103E-1,-1.794475079E0,3.066101313E0,3.558535308E0
4.395981213E0,-1.121393204E0,-1.536333442E0,-3.530383110E-1,1.934548839E0
4.412791566E0,-1.951319695E0,-5.872684121E-1,-2.568659544E0,3.278802310E0
4.429598523E0,-2.745607376E0,9.624686092E-2,-2.185900927E0,3.510809904E0
4.446403761E0,-3.498148441E0,1.893232465E-1,-2.911620140E-1,3.515346516E0
4.463221062E0,-3.883619785E0,5.557618141E-1,1.331829071E0,4.143083695E0
4.480025322E0,-3.776193619E0,6.514285803E-1,2.058217287E0,4.349742043E0
4.496828140E0,-3.360157013E0,3.230918050E-1,1.974680424E0,3.910806342E0
4.513640059E0,-2.721163273E0,5.094864964E-2,1.081437826E0,2.928623071E0
4.530461227E0,-2.136785030E0,-2.795402408E-1,1.107591987E0,2.422963685E0
4.547257534E0,-1.898787498E0,-3.431164026E-1,1.487132907E0,2.436121326E0
4.564063198E0,-1.938770294E0,2.471372485E-2,9.182732105E-1,2.145382649E0
4.580872381E0,-1.398070335E0,1.926861405E-1,-6.248338223E-1,1.543420201E0
4.597683691E0,-1.038055420E-1,-3.289607167E-1,-2.175655365E0,2.202831589E0
4.614496284E0,1.258957863E0,-6.601658463E-1,-3.234851599E0,3.533420257E0
4.631284675E0,2.146883965E0,-1.124713302E0,-2.546985626E0,3.515853602E0
4.648102770E0,1.903156281E0,-6.950603724E-1,-2.276147604E0,3.047287427E0
4.664919218E0,1.322342873E0,1.316025108E-1,-1.872529030E0,2.296143476E0
4.681723844E0,8.171777725E-1,1.788009405E0,-1.718568802E0,2.611175190E0
4.698529997E0,9.193944931E-1,3.258831978E0,-4.890572548E0,5.948358760E0
4.715337818E0,9.244079590E-1,3.150890350E0,-8.032014847E0,8.677321163E0
4.732144856E0,1.833263397E0,2.671724319E0,-8.958271980E0,9.526258573E0
4.748962657E0,3.858472824E0,2.035054207E0,-3.413111925E0,5.538825794E0
4.765762035E0,5.866244316E0,2.193890214E-1,5.176302910E0,7.826561552E0
4.782563610E0,6.841401100E0,-1.795376301E0,8.796633720E0,1.128755553E1
4.799382233E0,4.653869629E0,-1.922034979E0,6.581706524E0,8.286831828E0
4.816178092E0,4.255294800E-1,-1.807147861E0,-9.039149284E-1,2.064926373E0
4.832993644E0,-2.854490280E0,-2.111640215E0,-2.541463614E0,4.366483305E0
4.849809074E0,-4.039974213E0,-9.197540283E-1,-1.814501882E-1,4.147320012E0
4.866611433E0,-3.404695988E0,5.751003027E-1,2.631299496E0,4.341247766E0
4.883433099E0,-2.342720509E0,-3.238747120E-1,3.843344212E0,4.512707495E0
4.900224134E0,-1.882455349E0,-9.969096184E-1,3.746257782E0,4.309514392E0
4.917042597E0,-2.393551826E0,-5.894259214E-1,2.328562021E0,3.390975427E0
4.933845240E0,-2.639978409E0,-4.596095085E-1,1.239110231E0,2.952307752E0
4.950660618E0,-2.715943813E0,-3.500783443E-1,4.176276922E-1,2.770075547E0
4.967460271E0,-2.607492447E0,1.732938290E-1,4.033017159E-2,2.613555841E0
4.984274319E0,-2.148007870E0,3.048022985E-1,1.785337925E-3,2.169526547E0
5.001081467E0,-1.561940193E0,1.009509563E-1,1.628957689E-1,1.573652851E0
5.017888515E0,-9.580230713E-1,4.544210434E-2,-1.365718246E-2,9.591974294E-1
5.034696714E0,-7.252435684E-1,2.364501953E-1,-5.812408328E-1,9.590244179E-1
5.051508430E0,-7.912120819E-1,2.565096617E-1,-1.343054414E0,1.579749640E0
5.068312375E0,-8.644704819E-1,2.861905098E-1,-1.192196727E0,1.500182408E0
5.085122567E0,-1.346305847E0,2.696831226E-1,-2.480871677E-1,1.395283363E0
5.101930754E0,-2.012534618E0,6.160331964E-1,9.961011410E-1,2.328520984E0
5.118736631E0,-2.172463417E0,1.027480841E0,5.133031607E-1,2.457395839E0
5.135550435E0,-1.351005554E0,4.938884974E-1,-3.882971764E0,4.140846722E0
5.152342824E0,2.535581589E-1,-4.081631303E-1,-6.846809387E0,6.863649734E0
5.169171570E0,1.287202835E0,-3.505156040E-1,-6.869877815E0,6.998212166E0
5.185973380E0,1.386183739E0,9.034870863E-1,-3.986342669E0,4.316100340E0
5.202768231E0,1.992605209E0,1.348283172E0,-1.640537739E0,2.911993665E0
5.219588604E0,2.995756149E0,1.382642627E0,-1.688712478E0,3.706481535E0
5.236384026E0,2.960515976E0,1.144989491E0,-3.717606306E0,4.888379325E0
5.253208935E0,1.823064804E0,1.460523248E0,-3.594479561E0,4.286837617E0
5.270002261E0,2.586301804E0,2.777263641E0,-1.804386735E0,4.202137770E0
5.286818749E0,2.952013969E0,3.780340195E0,9.463768601E-1,4.888863633E0
5.303635827E0,1.948300362E0,2.693848610E0,1.922038078E0,3.840172523E0
5.320430454E0,1.976222992E-1,1.246026278E0,2.645348549E0,2.930785731E0
5.337245539E0,-8.296852112E-1,9.344638586E-1,2.889279842E0,3.147941909E0
5.354059962E0,-5.797481537E-1,9.377260804E-1,2.819576979E0,3.027449828E0
5.370863072E0,1.289691925E-1,3.982501030E-1,3.015332222E0,3.044251075E0
5.387669398E0,1.055208206E0,3.734024763E-1,3.784720898E0,3.946771597E0
5.404485999E0,1.814908981E0,6.891375184E-1,4.078986645E0,4.517403809E0
5.421288520E0,2.320869446E0,1.723808050E-1,4.521181583E0,5.085000790E0
5.438098262E0,1.433295250E0,-9.814507961E-1,4.804804802E0,5.109180964E0
5.454906817E0,-6.030082703E-2,-1.336722016E0,7.454416156E-1,1.531713139E0
5.471712338E0,-1.768877029E0,-6.440596581E-1,-1.406509876E0,2.349895491E0
5.488522163E0,-3.320269585E0,2.213519514E-1,-8.694620132E-1,3.439353281E0
5.505330880E0,-4.244406223E0,5.039913058E-1,4.621028304E-1,4.299131360E0
5.522141244E0,-4.416954041E0,5.190907121E-1,1.036152244E0,4.566459201E0
5.538945779E0,-4.115187645E0,1.529728174E-1,1.585026264E0,4.412536492E0
5.555756846E0,-3.818031788E0,-2.550785542E-1,1.591546059E0,4.144327528E0
5.572563721E0,-3.526948929E0,-4.822235107E-1,1.456337690E0,3.846144528E0
5.589373169E0,-3.535330296E0,-3.504343629E-1,1.609851837E0,3.900382991E0
5.606180492E0,-3.519088268E0,-3.845947981E-1,2.112117529E0,4.122248883E0
5.622989463E0,-2.942807198E0,-6.730346680E-1,1.780346394E0,3.504671618E0
5.639797823E0,-2.064517498E0,-7.310650349E-1,2.482564449E-1,2.204159669E0
5.656596478E0,-9.076023102E-1,-9.541990757E-1,-8.919812441E-1,1.590555994E0
5.673415357E0,3.825836182E-1,-9.792255759E-1,-1.927662373E0,2.195708354E0
5.690204308E0,1.602021217E0,-5.016431808E-1,-2.658353806E0,3.144036071E0
5.707028609E0,2.716326714E0,3.274673223E-2,-3.166654348E0,4.172194018E0
5.723833358E0,3.262049675E0,9.742424488E-1,-3.788377762E0,5.093321362E0
5.740647069E0,4.621946335E0,9.916647077E-1,-2.035949469E0,5.146928895E0
5.757442102E0,5.158346176E0,1.279248476E0,-1.844688177E0,5.625645421E0
5.774264156E0,3.899973869E0,3.593159199E0,-7.207820892E0,8.948366959E0
5.791076645E0,-1.129764557E0,3.119709015E0,-1.053490543E1,1.104505250E1
5.807879837E0,-2.511534691E0,3.196440697E0,-8.667596817E0,9.573519427E0
5.824691026E0,1.894455910E0,2.351441145E0,-5.182473660E-1,3.063791603E0
5.841494931E0,5.540772438E0,-3.021675050E-1,8.477228165E0,1.013187356E1
5.858306536E0,6.775290489E0,-1.419889450E0,9.485260010E0,1.174269154E1
5.875112313E0,6.045215607E0,-2.102484226E0,3.984925747E0,7.539542749E0
5.891925423E0,3.359630585E0,-3.845064402E0,-4.568441868E0,6.851445031E0
5.908729307E0,-5.636854172E-1,-3.845247507E0,-3.315862179E0,5.108680028E0
5.925537037E0,-3.771674156E0,2.275494337E-1,-1.210308075E-1,3.780469963E0
5.942347360E0,-4.463223934E0,2.461898565E0,7.465131283E-1,5.151562315E0
5.959157226E0,-3.426212311E0,9.731575251E-1,3.213939190E0,4.797433844E0
5.975963623E0,-2.693983555E0,6.354857683E-1,4.792842865E0,5.534684479E0
5.992770356E0,-2.873728275E0,4.841896892E-1,4.616910934E0,5.459727139E0
6.009564769E0,-2.804124832E0,-4.553898573E-1,2.994447231E0,4.127615561E0
6.026394095E0,-2.734387875E0,-1.189566731E0,1.780583978E0,3.473100252E0
6.043196484E0,-2.667743206E0,-1.319005132E0,1.317248225E0,3.254500152E0
6.060003990E0,-2.339676857E0,-4.705635905E-1,8.262360096E-1,2.525506648E0
6.076812757E0,-1.376872063E0,1.129859447E0,1.511237144E0,2.335850328E0
6.093622735E0,-1.310433388E0,4.003267288E-1,-1.271220922E0,1.869090631E0
6.110420678E0,-1.465730667E0,-2.178895175E-1,-3.368112087E0,3.679676788E0
6.127235122E0,-1.389706612E0,-2.780388296E-1,-3.607163429E0,3.875592608E0
6.144049076E0,-1.040998459E0,7.698300481E-1,-1.836390495E0,2.246919257E0
6.160856043E0,-1.048179626E0,9.965201020E-1,-7.358179688E-1,1.622701737E0
6.177651596E0,-9.731693268E-1,1.275995731E0,-9.203694463E-1,1.849946908E0
6.194473720E0,-6.596269608E-1,1.802013755E0,-1.416200876E0,2.384949941E0
6.211268275E0,1.851243973E-1,1.804479718E0,-2.430632830E0,3.032885433E0
6.228087744E0,9.346590042E-1,5.695781112E-1,-2.912445545E0,3.111325398E0
6.244895495E0,7.468051910E-1,1.018320203E0,-3.010277748E0,3.264424321E0
6.261706194E0,1.388112068E0,3.696803331E0,-7.634806633E0,8.595550146E0
6.278512143E0,2.265783310E0,4.850286007E0,-3.892064810E0,6.618702051E0
6.295317798E0,2.429318428E0,3.922209740E0,-7.615677714E-1,4.676034938E0
6.312132790E0,2.368161201E0,2.552185059E0,-3.976348877E0,5.285185564E0
6.328933592E0,2.591143608E0,1.553203702E0,-4.388857365E0,5.328089330E0
6.345749806E0,2.953339577E0,1.839266300E0,-5.683329701E-1,3.525353535E0
6.362555033E0,3.036692619E0,1.938890100E0,2.577388763E0,4.429867912E0
6.379361572E0,2.452309608E0,-2.311936617E-1,3.061494112E0,3.929378974E0
6.396173992E0,1.049088478E0,-1.364588618E0,2.671095133E0,3.177646604E0
6.412979412E0,-3.291549683E-1,-1.920343995E0,2.038311720E0,2.819712524E0
6.429787100E0,-4.596757889E-1,-1.836877823E0,1.583605170E0,2.468446334E0
6.446595288E0,4.774827957E-1,-2.596112490E0,2.203484058E0,3.438478134E0
6.463407920E0,1.327271461E0,-3.377665281E0,3.535719872E0,5.066713658E0
6.480215273E0,1.798216820E0,-3.898460627E0,5.277287483E0,6.803039186E0
6.497015313E0,8.413858414E-1,-3.742132425E0,3.177072763E0,4.980489591E0
6.513832828E0,-8.010845184E-1,-2.498660088E0,1.650102139E0,3.099657353E0
6.530643742E0,-1.953989983E0,-2.106928587E0,1.410590649E0,3.201092142E0
6.547438256E0,-2.441034317E0,-1.355730057E0,-1.877326131E0,3.364670255E0
6.564253901E0,-2.818106651E0,2.484249324E-1,3.635821342E-1,2.852302932E0
6.581058833E0,-3.328281403E0,7.107385397E-1,9.592505693E-1,3.535925342E0
6.597863968E0,-3.924946785E0,1.124337077E0,1.699656963E0,4.422462540E0
6.614680009E0,-4.521293640E0,1.305980206E0,1.851236463E0,5.057149090E0
6.631483821E0,-4.870193481E0,1.491481423E0,1.613393426E0,5.342877477E0
6.648291032E0,-4.580317497E0,1.316358089E0,5.624343157E-1,4.798795615E0
6.665096321E0,-3.580155849E0,1.313392222E-1,-1.059011817E-1,3.584129038E0
6.681910144E0,-2.712465286E0,-4.794281125E-1,-4.750820100E-1,2.795178377E0
6.698722562E0,-2.093530178E0,-5.375962853E-1,-5.049870014E-1,2.219659939E0
6.715529611E0,-1.238872528E0,-4.824675918E-1,-4.816756845E-1,1.414069158E0
6.732337625E0,8.267402649E-3,-1.269375920E0,-1.410832405E0,1.897849217E0
6.749147439E0,1.540996552E0,-1.540657282E0,-3.061541319E0,3.757835877E0
6.765954834E0,2.888610840E0,-1.221464396E0,-5.783854485E0,6.579439228E0
6.782759094E0,4.192793846E0,-8.686407804E-1,-6.925405025E0,8.142192076E0
6.799573975E0,4.873580933E0,-3.164992034E-1,-3.633171320E0,6.087026917E0
6.816377513E0,3.761398315E0,1.540529132E-1,3.862649441E0,5.393691713E0
6.833186474E0,-1.059376717E0,5.294528604E-2,-6.867623329E-1,1.263615738E0
6.849998475E0,-2.512019634E0,1.425698400E-1,-1.484320354E1,1.505494139E1
6.866802767E0,1.316910744E0,-2.259973764E0,-1.110493088E1,1.140882225E1
6.883610547E0,3.836870193E0,-2.218032360E0,6.058640480E-1,4.473065132E0
6.900428428E0,6.273560524E0,-3.202460766E0,9.825565338E0,1.208946032E1
6.917227258E0,6.205183029E0,-1.869871616E0,9.050361633E0,1.113147618E1
6.934037194E0,2.418112755E0,1.207243681E0,1.607414484E0,3.144596623E0
6.950844201E0,-5.147151947E-1,1.162838221E0,-2.583736897E0,2.879725822E0
6.967655349E0,-1.243912697E0,5.068120360E-1,-1.632033110E0,2.113695652E0
6.984462570E0,-2.334432602E-1,1.338178873E0,3.953794003E0,4.180634577E0
7.001271175E0,3.926448822E-1,1.560425520E0,4.396324158E0,4.681534354E0
7.018077021E0,1.520776749E-1,1.185066938E0,3.805420160E0,3.988575418E0
7.034887692E0,-1.038545609E0,6.819112301E-1,4.449395657E0,4.619599725E0
7.051684374E0,-2.083958149E0,-3.857880831E-1,3.443167448E0,4.043156698E0
7.068502000E0,-3.447557449E0,-9.220705032E-1,2.434683323E0,4.320133014E0
7.085299090E0,-4.158421040E0,-4.250111580E-1,1.868809700E0,4.578815319E0
7.102122404E0,-4.749731064E0,5.668583512E-1,1.649694324E0,5.059917483E0
7.118915372E0,-4.472990513E0,-2.843100131E-1,7.020725012E-1,4.536670818E0
7.135720916E0,-4.192900181E0,-1.158182383E0,-2.240551949E0,4.893043163E0
7.152551319E0,-3.548743248E0,-1.472331166E0,-3.053730488E0,4.907810876E0
7.169351663E0,-2.260540485E0,-1.056798458E0,-2.406856060E0,3.466961546E0
7.186166718E0,-1.567611694E0,-1.076845765E0,-1.835929871E0,2.643414783E0
7.202971059E0,-1.028666496E0,-8.307943344E-1,-1.133335590E0,1.741500372E0
7.219776184E0,-5.058259964E-1,-1.697553396E-1,-9.517794251E-1,1.091128264E0
7.236584667E0,-1.757745743E-1,7.853550315E-1,-8.882414699E-1,1.198604245E0
7.253395936E0,1.076021194E-1,1.932572365E0,-2.151651382E-1,1.947488177E0
7.270202435E0,1.817550659E-1,2.464985609E0,-2.240872383E-1,2.481814668E0
7.287010033E0,5.638208389E-1,2.386525393E0,-1.480312705E0,2.864388782E0
7.303819938E0,9.972906113E-1,2.088421583E0,-4.403463840E0,4.974594161E0
7.320629499E0,1.502968788E0,3.153413773E0,-7.154070854E0,7.961385770E0
7.337429620E0,2.644999504E0,4.033433914E0,-5.476680279E0,7.297851629E0
7.354242639E0,2.868268967E0,2.803922176E0,-3.488940716E0,5.316169086E0
7.371052759E0,2.525959015E0,3.304155767E-1,-5.212259293E0,5.801490354E0
7.387851201E0,2.599941254E0,-6.052851677E-1,-4.778096199E0,5.473231947E0
7.404669836E0,3.658751488E0,3.957149386E-1,-1.720523238E0,4.062419596E0
7.421480271E0,4.192681313E0,2.100852013E0,1.613686085E0,4.959449420E0
7.438286443E0,3.537111282E0,2.167909384E0,2.883317232E0,5.052178301E0
7.455092109E0,1.758994102E0,1.137476087E0,3.338023663E0,3.940851947E0
7.471905708E0,-2.177581787E-1,1.758756936E-1,3.377244711E0,3.388824681E0
7.488709845E0,-1.121590614E0,-1.513330638E-1,2.679108858E0,2.908348582E0
7.505508349E0,-6.867694855E-1,-7.191064358E-1,2.000178099E0,2.233714131E0
7.522325834E0,4.793167114E-3,-9.273102880E-1,3.083904266E0,3.220309437E0
7.539145282E0,1.845245361E-1,-1.477651596E0,3.315611362E0,3.634663980E0
7.555944904E0,-1.048650742E-1,-2.559248209E0,3.023923159E0,3.962935698E0
7.572739786E0,-1.365690231E0,-2.561394691E0,1.670683026E0,3.349184132E0
7.589558685E0,-2.417815685E0,-1.224055886E0,1.115573645E0,2.930639872E0
7.606370504E0,-2.974493504E0,2.946887314E-1,1.801354170E0,3.489889668E0
7.623177267E0,-3.203151703E0,6.115803719E-1,1.946356177E0,3.797698481E0
7.639970684E0,-3.523949623E0,6.627577543E-1,3.924794197E-1,3.607146917E0
7.656789634E0,-3.719517708E0,1.505960464E0,-3.254735470E-2,4.012952558E0
7.673605318E0,-3.539719582E0,1.492387772E0,-6.934642792E-3,3.841468999E0
7.690418419E0,-3.179644108E0,7.582550049E-1,-3.785353303E-1,3.290649830E0
7.707219201E0,-2.937705517E0,2.053568959E-1,-6.024869084E-1,3.005873522E0
7.724025210E0,-3.036987305E0,4.201811552E-2,3.144407272E-1,3.053511156E0
7.740837263E0,-3.030448437E0,-5.130566359E-1,2.360109091E-1,3.082619988E0
7.757644871E0,-2.825782776E0,-1.178759336E0,1.213109493E-2,3.061808131E0
7.774459375E0,-2.227924824E0,-1.645774364E0,-4.094853401E-1,2.799982236E0
7.791259760E0,-1.048963547E0,-2.412584066E0,-1.475434780E0,3.016254994E0
7.808067093E0,1.155113220E0,-2.897200108E0,-3.250363350E0,4.504766023E0
7.824876888E0,3.024222374E0,-1.678246021E0,-4.635256290E0,5.783427319E0
7.841684251E0,4.553966522E0,-1.601464152E0,-5.873901367E0,7.603026752E0
7.858492987E0,5.571945190E0,-1.507618308E0,-6.268760681E0,8.521551892E0
7.875301725E0,5.228734016E0,-8.434755802E-1,-2.522713423E0,5.866446410E0
7.892097948E0,1.471939087E0,9.185906649E-1,1.112508059E0,2.061088951E0
7.908917803E0,-4.010174751E0,2.872622728E0,-7.763462067E0,9.198087091E0
7.925726866E0,-7.700557709E-1,1.878921866E0,-1.100772572E1,1.119345160E1
7.942535002E0,3.094706535E0,-6.808537245E-1,-2.252083063E0,3.887498998E0
7.959344033E0,5.044342041E0,-2.178191423E0,6.293225288E0,8.354315593E0
7.976154521E0,6.041304588E0,-2.648813725E0,8.771064758E0,1.097475067E1
7.992947123E0,4.131238937E0,-9.738873839E-1,3.923021793E0,5.779765721E0
8.009768747E0,1.243415833E0,3.827520907E-1,2.811324894E-1,1.331021252E0
8.026566336E0,-3.743896484E-1,-8.012965322E-3,-6.795556545E-1,7.759044426E-1
8.043383963E0,-1.302824020E0,1.406296730E0,1.492457032E0,2.429495609E0
8.060180788E0,-1.500436783E0,2.017764330E0,1.345832705E0,2.852007907E0
8.076999717E0,-1.404370308E0,1.317691565E0,2.748956919E0,3.356386623E0
8.093811709E0,-2.316290379E0,1.782622933E0,5.716349602E0,6.420249093E0
8.110614138E0,-3.221029282E0,1.413770556E0,5.952219486E0,6.913949207E0
8.127418928E0,-4.221706867E0,-8.019315004E-1,2.548264980E0,4.995954104E0
8.144230503E0,-4.919642448E0,-1.755279303E0,9.276204109E-1,5.305126471E0
8.161045485E0,-4.848992348E0,-2.076344013E0,-1.240693688E0,5.418786956E0
8.177850762E0,-4.232499599E0,-1.325274467E0,-1.916742563E0,4.831594698E0
8.194657923E0,-2.829595566E0,-2.569548190E-1,-1.833416224E0,3.381427493E0
8.211465886E0,-1.248885155E0,-6.073675156E-1,-2.125005007E0,2.538553861E0
8.228274694E0,2.788467407E-1,-1.570696831E0,-3.059501171E0,3.450419026E0
8.245086513E0,1.068674088E0,-1.331642389E0,-2.485771894E0,3.015691906E0
8.261892920E0,3.266258240E-1,-7.358271480E-1,-1.742155075E0,1.919174387E0
8.278702755E0,-7.924108505E-1,-2.575966716E-1,-1.251662731E0,1.503639117E0
8.295507739E0,-1.171950340E0,4.315884709E-1,-1.677187681E-1,1.260105469E0
8.312318215E0,-1.130979538E0,1.589419961E0,1.247843504E-1,1.954722912E0
8.329125099E0,-9.021244049E-1,2.721236706E0,-3.267772198E-1,2.885436016E0
8.345933979E0,-6.265954971E-1,3.516047239E0,-2.445668697E0,4.328568526E0
8.362741260E0,8.251953125E-2,3.339938641E0,-5.864224911E0,6.749157977E0
8.379551736E0,1.336639404E0,3.283790588E0,-6.613314629E0,7.503720138E0
8.396360789E0,2.120964050E0,3.053867579E0,-4.247646332E0,5.645094778E0
8.413152404E0,2.588271141E0,2.339174747E0,-2.985215187E0,4.591557003E0
8.429974508E0,2.709223747E0,3.491464257E-1,-4.293828964E0,5.089082797E0
8.446783418E0,2.709715843E0,-4.400759935E-1,-4.192377567E0,5.011213076E0
8.463591778E0,3.542984009E0,7.198937535E-1,-1.442833185E0,3.892653376E0
8.480387850E0,4.239872932E0,1.800101638E0,1.567439318E0,4.865568251E0
8.497209251E0,3.629197121E0,7.100371122E-1,2.105022907E0,4.255155212E0
8.514016177E0,2.335817337E0,-2.245445549E-1,3.273795128E0,4.027927188E0
8.530820946E0,1.125715256E0,-9.104889035E-1,3.626930952E0,3.905234053E0
8.547638685E0,6.676616669E-1,-1.224170923E0,3.521844625E0,3.787843201E0
8.564432397E0,8.534097672E-1,-1.658468008E0,3.225646973E0,3.726073370E0
8.581250675E0,9.585151672E-1,-1.810773730E0,2.627048731E0,3.331521854E0
8.598054641E0,6.431322098E-1,-2.042716980E0,2.561033964E0,3.338443749E0
8.614867641E0,-4.157686234E-1,-2.119020224E0,2.129330635E0,3.032681851E0
8.631674626E0,-1.712545395E0,-1.962249398E0,1.391618371E0,2.952936864E0
8.648483953E0,-2.441969872E0,-1.762021065E0,-3.925464153E-1,3.036779178E0
8.665292568E0,-2.889131546E0,-5.963194370E-1,-2.290570736E-1,2.958909445E0
8.682100298E0,-3.498309135E0,1.666485429E0,2.074676991E0,4.395409549E0
8.698907437E0,-3.748456001E0,2.165314436E0,3.167415380E0,5.363956487E0
8.715716540E0,-3.887535572E0,1.037647009E0,2.373783588E0,4.671669152E0
8.732524534E0,-4.130197048E0,9.634089470E-1,7.189821601E-1,4.301583406E0
8.749331897E0,-4.201040745E0,1.255717158E0,-5.985288024E-1,4.425359381E0
8.766143767E0,-3.937693596E0,9.402546883E-1,-7.042399645E-1,4.109192580E0
8.782950713E0,-3.770351887E0,7.812661529E-1,3.277100325E-1,3.864365927E0
8.799755828E0,-3.490056992E0,5.350354910E-1,8.316661119E-1,3.627454935E0
8.816565451E0,-2.953455925E0,-1.924446821E-1,-4.223108292E-2,2.960020324E0
8.833374359E0,-2.158859253E0,-5.986254811E-1,-6.375157833E-1,2.329259993E0
8.850183879E0,-8.201446533E-1,-1.269735813E0,-6.203101873E-1,1.633906673E0
8.866989544E0,1.317056656E0,-2.212729216E0,-2.550989866E0,3.624687313E0
8.883809765E0,3.787425995E0,-3.545942783E0,-5.562500954E0,7.606557878E0
8.900594515E0,5.828920364E0,-3.639646769E0,-7.468857765E0,1.014924517E1
8.917421429E0,6.646774292E0,-2.926498175E0,-5.259688854E0,8.967069025E0
8.934237481E0,5.884730339E0,-2.094994307E0,-1.635298967E0,6.457031440E0
8.951034478E0,1.731307030E0,2.262046099E0,-1.065003395E0,3.041136106E0
8.967829471E0,-5.930506706E0,3.303158522E0,-4.685894966E0,8.248598526E0
8.984650099E0,-4.597511292E0,4.048643112E0,-1.255909729E1,1.397353019E1
9.001460637E0,3.638744354E-1,1.084465623E0,-1.755120277E0,2.094974339E0
9.018264083E0,4.866184235E0,-2.472023249E0,6.932953835E0,8.823632858E0
9.035075129E0,8.540922165E0,-4.547636509E0,8.458151817E0,1.285179682E1
9.051879787E0,6.961668015E0,-2.611802816E0,3.419353962E0,8.184028165E0
9.068692043E0,3.329542160E0,-1.192430258E0,-1.508964777E0,3.845089806E0
9.085500098E0,4.187898636E-1,-3.872980177E-1,-5.704808235E-1,8.067422602E-1
9.102306719E0,-7.078619003E-1,1.747212768E0,1.936854839E0,2.702818454E0
9.119103339E0,-6.638822556E-1,2.363707781E0,1.048735142E0,2.669775182E0
9.135922453E0,-8.846693039E-1,1.685745001E0,2.402932405E0,3.065690808E0
9.152730416E0,-2.169460297E0,2.120826483E0,5.682927608E0,6.442059387E0
9.169543048E0,-3.511978626E0,2.276041269E0,4.013652325E0,5.798600065E0
9.186332906E0,-4.596778393E0,9.023593664E-1,3.578167439E0,5.894735468E0
9.203160827E0,-5.197655678E0,-9.164450169E-1,2.495270729E0,5.837968142E0
9.219965871E0,-5.152170658E0,-2.372818470E0,-6.831407547E-2,5.672723931E0
9.236772431E0,-4.957680225E0,-2.735095501E0,-1.655984759E0,5.899290308E0
9.253580516E0,-3.997959137E0,-2.050247192E0,-2.418399096E0,5.102533194E0
9.270390514E0,-2.483012199E0,-1.587373018E0,-2.331675291E0,3.757899991E0
9.287201235E0,-8.785915375E-1,-1.943281293E0,-2.049572945E0,2.957873312E0
9.304002555E0,-1.110391617E-1,-2.085295200E0,-1.619465590E0,2.642622668E0
9.320798209E0,2.052688599E-2,-1.638010263E0,-1.112222910E0,1.980035045E0
9.337627810E0,-4.093656540E-1,-1.066412210E0,-1.969572425E0,2.276846674E0
9.354424106E0,-7.427005768E-1,-1.448192596E-1,-2.084584236E0,2.217671798E0
9.371236728E0,-3.165283203E-1,1.003452063E0,-1.764424086E0,2.054336529E0
9.388061618E0,4.455919266E-1,2.446779728E0,-9.808104038E-1,2.673438282E0
9.404856256E0,7.583856583E-1,3.235525846E0,-4.262652397E-1,3.350444503E0
9.421664179E0,6.057395935E-1,3.895324707E0,-9.550713301E-1,4.056184941E0
9.438473506E0,5.607223511E-1,3.059071064E0,-4.940394402E0,5.837792577E0
9.455282019E0,1.394059181E0,2.126326561E0,-6.740287304E0,7.203897458E0
9.472091741E0,2.068084717E0,1.219815969E0,-4.996125221E0,5.543121199E0
9.488896307E0,1.946401596E0,-4.282383919E-1,-4.986734867E0,5.370232018E0
9.505701677E0,1.789531708E0,-5.747153759E-1,-6.281375885E0,6.556554316E0
9.522516598E0,2.628621101E0,-3.679188788E-1,-4.240200996E0,5.002431178E0
9.539323168E0,3.626646996E0,2.012373209E0,6.599363089E-1,4.199729788E0
9.556130837E0,3.520412445E0,2.944864750E0,3.321084023E0,5.665256505E0
9.572937753E0,2.345146179E0,1.692290187E0,4.372434616E0,5.242303039E0
9.589748422E0,1.459956169E0,9.540475011E-1,5.406343460E0,5.680689065E0
9.606554473E0,1.362859726E0,-1.725766808E-1,4.139425278E0,4.361423045E0
9.623363922E0,1.808510780E0,-9.472810626E-1,2.944585562E0,3.583104350E0
9.640171132E0,1.769465446E0,-7.770364285E-1,2.235588551E0,2.955105708E0
9.656986370E0,1.234010696E0,-4.609201252E-1,9.127880335E-1,1.602626518E0
9.673788575E0,6.120138168E-1,-5.957310200E-1,4.266806841E-1,9.547317772E-1
9.690597525E0,-4.230232239E-1,-1.407066226E0,5.124183893E-1,1.556070891E0
9.707405051E0,-1.409576416E0,2.338619232E-1,-1.943813562E-1,1.442005958E0
9.724216240E0,-1.454226494E0,-1.369994164E0,-8.257559538E-1,2.161835239E0
9.741020358E0,-2.705399990E0,7.055886984E-1,-7.315746546E-1,2.890025258E0
9.757829185E0,-3.450133801E0,2.641442776E0,2.060094595E0,4.808807848E0
9.774638187E0,-3.992927074E0,2.797466993E0,3.641990185E0,6.085505789E0
9.791437565E0,-4.349082947E0,2.030339718E0,2.613066196E0,5.464880309E0
9.808255690E0,-4.509572506E0,1.235056400E0,3.095784187E0,5.607627683E0
9.825060328E0,-4.614333153E0,5.505920649E-1,2.035447121E0,5.073289569E0
9.841863235E0,-4.486730576E0,2.165936232E-1,1.686200976E0,4.798013942E0
9.858680924E0,-3.987270832E0,-2.865118384E-1,1.101166844E0,4.146442589E0
9.875476457E0,-2.999886990E0,-8.443777561E-1,5.099560022E-1,3.157902923E0
9.892294633E0,-2.006346703E0,-1.583803177E0,-5.796932578E-1,2.621050146E0
9.909108577E0,-7.039518356E-1,-2.139357090E0,-1.770678520E0,2.864908265E0
9.925898353E0,9.582576752E-1,-1.561403871E0,-3.308025599E0,3.781437978E0
9.942723804E0,2.529126167E0,-8.242067695E-1,-3.774905443E0,4.617976513E0
9.959524442E0,4.422845840E0,-1.804581165E0,-4.434643745E0,6.517986166E0
9.976344807E0,5.659117699E0,-2.200996637E0,-5.665871620E0,8.304944343E0
9.993148457E0,5.781115532E0,-1.479877234E0,-4.636035442E0,7.556729322E0
1.000995471E1,3.206454277E0,1.223751545E0,-1.457272291E0,3.728613604E0
1.002676172E1,-3.844669819E0,3.591249883E-1,-4.520631790E0,5.945298021E0
1.004357120E1,-3.964243889E0,6.044960022E-1,-1.250474930E1,1.313199909E1
1.006036709E1,1.207054138E0,-4.923790693E-1,-1.603530169E0,2.066573454E0
1.007718583E1,5.198529243E0,-2.637665510E0,7.581746578E0,9.563726618E0
1.009399478E1,7.817974091E0,-3.754349709E0,9.116005898E0,1.258242521E1
1.011080492E1,5.891504288E0,-8.468636274E-1,3.241927147E0,6.777690787E0
1.012761160E1,2.774545670E0,3.870815635E-1,-1.280627012E0,3.080250210E0
1.014442136E1,6.533412933E-1,9.416707754E-1,-1.530695677E0,1.912231144E0
1.016122815E1,2.717580795E-1,2.270842075E0,2.415959358E0,3.326775587E0
1.017803626E1,3.310413361E-1,2.236998320E0,2.991569757E0,3.750098594E0
1.019483438E1,-2.299184799E-1,2.388647079E0,3.088832855E0,3.911442929E0
1.021165294E1,-1.956127167E0,2.782418966E0,4.621798992E0,5.738406985E0
1.022846317E1,-3.559909821E0,1.080160856E0,2.971158504E0,4.761038570E0
1.024527122E1,-5.212599754E0,1.636022329E-2,2.525851011E0,5.792355927E0
1.026209285E1,-6.208331108E0,1.974825859E-1,2.469550371E0,6.684388794E0
1.027888557E1,-6.261182785E0,-1.294508457E0,1.684765100E0,6.611852649E0
1.029568918E1,-6.096223831E0,-1.963127136E0,-1.170580387E-1,6.405584730E0
1.031250360E1,-5.119426250E0,-2.002610922E0,-1.931363344E0,5.826589054E0
1.032929981E1,-3.527770996E0,-1.478065372E0,-2.665121317E0,4.661836234E0
1.034610395E1,-2.163429260E0,-1.273521900E0,-2.868604183E0,3.811977722E0
1.036293181E1,-5.453510284E-1,-1.346042752E0,-2.679562092E0,3.047833959E0
1.037973550E1,1.019593239E0,-1.164295793E0,-2.834704876E0,3.229660477E0
1.039654568E1,1.847662926E0,-3.189052343E-1,-3.523401976E0,3.991230427E0
1.041334890E1,1.981812477E0,1.085254788E0,-2.846388340E0,3.634182884E0
1.043017011E1,1.313774109E0,1.758964300E0,-5.947761536E-1,2.274580509E0
1.044697243E1,1.501722336E-1,1.872992158E0,1.227831602E0,2.244598353E0
1.046377304E1,-1.654795170E0,1.972898483E0,2.928599119E-1,2.591610003E0
1.048058528E1,-9.064559937E-1,2.076195955E0,-5.179566383E0,5.653331764E0
1.049739362E1,1.834942818E0,1.868125319E0,-6.903501511E0,7.383443672E0
1.051420396E1,3.253066063E0,1.530724883E0,-5.673039436E0,6.716318480E0
1.053100943E1,3.124409676E0,1.047505736E-1,-5.525008678E0,6.348120147E0
1.054781836E1,1.915052414E0,-1.035760999E0,-5.679375172E0,6.082395000E0
1.056462878E1,1.622983932E0,-1.117473125E0,-3.639425516E0,4.138627927E0
1.058143344E1,3.033022881E0,4.059734344E-1,-8.859800100E-1,3.185749959E0
1.059823904E1,4.074230194E0,2.032961607E0,2.071780443E0,5.002455275E0
1.061505619E1,3.866889000E0,2.657721281E0,4.024895668E0,6.181917023E0
1.063186077E1,2.986411095E0,1.766437054E0,4.683669090E0,5.828868435E0
1.064866472E1,1.726339340E0,5.056521893E-1,4.137768269E0,4.511879641E0
1.066547653E1,7.645359039E-1,2.331930250E-1,2.493265867E0,2.618256829E0
1.068229027E1,2.501382828E-1,-1.578845680E-1,1.357422829E0,1.389278026E0
1.069909386E1,-2.320194244E-1,-4.777854979E-1,1.683005095E-1,5.571687866E-1
1.071588922E1,-6.535816193E-1,-7.140307426E-1,1.833450913E0,2.073294742E0
1.073270949E1,-1.226678848E0,-2.187440157E0,2.398359299E0,3.470124315E0
1.074952324E1,-1.872615337E0,-9.197286367E-1,1.700502157E0,2.691523092E0
1.076632838E1,-2.264400959E0,-1.277789712E0,2.241835356E0,3.433086660E0
1.078312274E1,-2.844813824E0,-1.428854585E0,-7.290650606E-1,3.265903700E0
1.079994004E1,-3.227569580E0,1.241160750E0,-1.417764425E0,3.737344160E0
1.081675392E1,-3.276863575E0,2.190080166E0,4.312485456E-1,3.964878476E0
1.083355837E1,-3.210126877E0,1.935092092E0,1.157029867E0,3.922781422E0
1.085036429E1,-3.314671993E0,1.841406345E0,2.980536461E0,4.823009988E0
1.086717672E1,-3.262792110E0,1.658092260E0,2.799599171E0,4.607910352E0
1.088398420E1,-3.045217991E0,9.300262332E-1,1.780871034E0,3.648260276E0
1.090079368E1,-3.007395267E0,3.764647245E-1,1.630247951E0,3.441491009E0
1.091759901E1,-2.932238102E0,-3.281326294E-1,1.221033573E0,3.193213788E0
1.093441573E1,-2.536663532E0,-9.321041107E-1,3.611565232E-1,2.726520490E0
1.095122027E1,-1.476179123E0,-1.715997696E0,-9.166841507E-1,2.442143060E0
1.096802376E1,3.948259354E-1,-1.829265952E0,-3.029159069E0,3.560604739E0
1.098483314E1,1.758042336E0,1.755346358E-1,-4.421463966E0,4.761393585E0
1.100164824E1,3.306115150E0,3.585104644E-1,-4.381993771E0,5.500981417E0
1.101843826E1,4.973780632E0,-1.075489521E-1,-5.190181732E0,7.189439962E0
1.103525899E1,5.983103752E0,-7.459681034E-1,-4.083127975E0,7.281890756E0
1.105206678E1,4.075860977E0,-7.922890186E-1,-3.201277256E-1,4.164474319E0
1.106887551E1,-1.791931629E0,2.206799686E-1,-4.395344734E0,4.751712738E0
1.108568314E1,-4.419345856E0,2.827754498E0,-1.230073833E1,1.337291953E1
1.110249106E1,-2.700729847E0,3.679610729E0,-5.533705711E0,7.173240253E0
1.111930011E1,-7.621765137E-2,2.031189680E0,5.723771572E0,6.073969185E0
1.113612088E1,4.059504509E0,-1.458541989E0,9.670608521E0,1.058903162E1
1.115292121E1,6.707211494E0,-5.614259243E-1,7.669789791E0,1.020429128E1
1.116970566E1,5.547335625E0,2.245534211E-1,3.493356466E0,6.559489018E0
1.118653665E1,4.222228050E0,-9.647523165E-1,-2.095163241E-2,4.331096364E0
1.120332439E1,2.362936974E0,4.160466194E-1,1.354259253E0,2.755101460E0
1.122015237E1,6.310777664E-1,1.104107976E0,1.670316219E0,2.099349862E0
1.123694581E1,-1.133707047E0,1.122980595E0,2.279365778E0,2.782424380E0
1.125376634E1,-2.386853695E0,1.092696667E0,4.336354733E0,5.069026428E0
1.127056601E1,-3.359625340E0,5.175825953E-1,3.584637403E0,4.940101161E0
1.128738225E1,-4.122137547E0,-6.688408852E-1,1.810676813E0,4.551693817E0
1.130419062E1,-4.661245823E0,-1.270896077E0,1.076602578E0,4.949895208E0
1.132099916E1,-4.708801746E0,-1.773926616E0,9.902095795E-2,5.032835649E0
1.133780915E1,-4.192110538E0,-1.675721765E0,-5.589559078E-1,4.549095065E0
1.135461666E1,-3.048847675E0,-1.114625454E0,-9.124554396E-1,3.372007856E0
1.137142659E1,-1.780073166E0,-8.288277388E-1,-1.160607815E0,2.280926653E0
1.138823149E1,-6.787700653E-1,-9.219915867E-1,-1.458813429E0,1.854436278E0
1.140504888E1,-6.685733795E-2,-9.368658066E-1,-1.330444574E0,1.628579199E0
1.142183956E1,-2.857103348E-1,-4.959285557E-1,-1.042612076E0,1.189376084E0
1.143866050E1,-8.669948578E-1,2.019508481E-1,-7.542898655E-1,1.166797939E0
1.145546644E1,-1.223425865E0,9.045000672E-1,-4.250152707E-1,1.579724406E0
1.147227514E1,-1.171696663E0,1.634317756E0,-4.187450409E-1,2.054072785E0
1.148908178E1,-6.326694489E-1,2.285907269E0,-5.454100370E-1,2.433745011E0
1.150589221E1,1.541070938E-1,2.509153605E0,-1.086229086E0,2.738520483E0
1.152270126E1,8.174448013E-1,1.918716788E0,-2.135063171E0,2.984658249E0
1.153950861E1,9.161548615E-1,1.365104318E0,-3.582322121E0,3.941558233E0
1.155631715E1,8.989887238E-1,1.335901499E0,-5.212479115E0,5.455524911E0
1.157312395E1,1.873744011E0,2.224381447E0,-4.764819622E0,5.582319900E0
1.158992082E1,2.525002480E0,2.205896378E0,-4.740113735E0,5.806056715E0
1.160673951E1,2.609349251E0,1.884160042E0,-5.675834656E0,6.524864873E0
1.162353639E1,2.964220047E0,1.841587424E0,-4.741526127E0,5.887284157E0
1.164035805E1,3.945582390E0,2.350022316E0,-1.337912917E0,4.783328993E0
1.165717696E1,4.742393494E0,3.674362898E0,1.606757045E0,6.210709054E0
1.167397272E1,4.434358597E0,3.258438587E0,2.637674570E0,6.102318029E0
1.169077024E1,2.640901566E0,1.676458955E0,2.975914240E0,4.317515636E0
1.170758965E1,4.491605759E-1,9.495695829E-1,2.305727720E0,2.533733991E0
1.172439983E1,-7.974967957E-1,1.067979693E0,1.721352696E0,2.177070709E0
1.174120852E1,-6.973419189E-1,7.627956271E-1,1.987780333E0,2.240404778E0
1.175801235E1,-8.195018768E-2,-5.658003092E-1,2.393755674E0,2.461079448E0
1.177482173E1,-2.112541199E-1,-4.156588316E-1,2.898529530E0,2.935791887E0
1.179163651E1,-6.761188507E-1,8.945543170E-1,3.947005272E0,4.103195674E0
1.180842678E1,-1.507560730E0,-8.935849667E-1,2.925520420E0,3.410264385E0
1.182524710E1,-2.121805191E0,-8.033430576E-1,1.253800392E0,2.592186868E0
1.184205991E1,-2.824666977E0,8.108491898E-1,1.983968616E0,3.545751177E0
1.185886076E1,-2.726505756E0,1.676586032E0,3.629744530E0,4.839402826E0
1.187567711E1,-2.753250599E0,1.436463475E0,2.868111372E0,4.227277968E0
1.189248324E1,-2.982320309E0,1.479794025E0,3.117578983E0,4.561066048E0
1.190929115E1,-3.035135269E0,1.533091187E0,3.030800819E-1,3.413835413E0
1.192610192E1,-2.547910213E0,7.032667398E-1,7.692381144E-1,2.752845408E0
1.194290282E1,-2.077089787E0,-2.644785941E-1,1.193717957E0,2.410230999E0
1.195971522E1,-1.981699467E0,-1.195067763E0,1.689702749E0,2.865382194E0
1.197652164E1,-1.991594791E0,-1.411277056E0,9.164302349E-1,2.607296898E0
1.199333108E1,-1.892603397E0,-1.380632401E0,1.874552369E-1,2.350155933E0
1.201013692E1,-1.392560005E0,-1.823940754E0,-3.847167790E-1,2.326798281E0
1.202694981E1,-5.374059677E-1,-2.557857037E0,-2.130074501E0,3.371743640E0
1.204376160E1,-1.549434662E-1,-2.472375393E0,-3.496968508E0,4.285491373E0
1.206056440E1,-3.229169846E-1,-9.206324220E-1,-2.500398397E0,2.683995451E0
1.207737165E1,-3.886508942E-2,7.541191578E-2,-1.587099791E0,1.589365659E0
1.209418060E1,1.357122421E0,3.452207148E-1,-2.256057739E0,2.655325805E0
1.211098945E1,3.486482620E0,1.476633549E0,-3.779951334E0,5.350143903E0
1.212780564E1,4.680284500E0,3.128625870E0,-4.999365807E0,7.529078383E0
1.214460904E1,2.456225395E0,4.245743752E0,-5.924640179E0,7.691602203E0
1.216141737E1,-2.187752247E0,2.957228184E0,-7.741842270E0,8.571323128E0
1.217822521E1,-1.996647835E0,4.808327675E0,-6.267889977E0,8.148193810E0
1.219502786E1,7.377548218E-1,2.395102262E0,1.847029328E0,3.113248202E0
1.221183944E1,5.433551788E0,-1.532066822E0,7.547986984E0,9.425646996E0
1.222864510E1,7.769296646E0,-1.833191395E0,6.289710522E0,1.016282537E1
1.224547006E1,5.082926750E0,-1.131971478E0,3.061200380E0,6.040567154E0
1.226225907E1,1.657578468E0,-1.202018499E0,8.838355541E-1,2.230152492E0
1.227907412E1,-9.504089355E-1,2.116998732E-1,5.849014521E-1,1.135871335E0
1.229588011E1,-2.420768261E0,2.222496748E0,1.028649449E0,3.443505548E0
1.231268976E1,-3.163737774E0,2.162909031E0,2.365239859E0,4.503528813E0
1.232949526E1,-3.314386368E0,2.157576561E0,5.287549019E0,6.602913617E0
1.234630438E1,-3.824562550E0,1.177191377E0,5.366883755E0,6.694512639E0
1.236309696E1,-4.087201595E0,-7.976764441E-1,2.699927092E0,4.962973997E0
1.237991226E1,-3.955496788E0,-1.759977341E0,1.842799187E-1,4.333293686E0
1.239672810E1,-3.170292377E0,-1.633686066E0,-6.188349724E-1,3.619756987E0
1.241353830E1,-2.026587963E0,-1.601092339E0,-8.600746393E-1,2.722183652E0
1.243034638E1,-8.361482620E-1,-2.097887993E0,-1.871203780E0,2.932862345E0
1.244715288E1,6.237697601E-2,-2.351631880E0,-2.330337286E0,3.311273962E0
1.246396136E1,6.332302094E-2,-2.030451775E0,-2.603662014E0,3.302393086E0
1.248077176E1,-4.680547714E-1,-9.172048569E-1,-1.799678802E0,2.073447325E0
1.249757777E1,-1.062048912E0,-1.717762351E-1,-1.101504445E0,1.539729525E0
1.251438577E1,-1.289361000E0,3.121893406E-1,-3.478319645E-1,1.371459459E0
1.253118339E1,-1.515553474E0,9.058451653E-1,5.132510662E-1,1.838718155E0
1.254800290E1,-1.690029144E0,1.362908363E0,6.741884351E-1,2.273378051E0
1.256480417E1,-1.499174118E0,1.890615225E0,1.843260527E-1,2.419901870E0
1.258161992E1,-8.313961029E-1,2.411923409E0,-1.263997436E0,2.847153583E0
1.259841707E1,1.027307510E-1,2.419229984E0,-2.812654972E0,3.711368389E0
1.261523448E1,7.314357758E-1,1.265622854E0,-3.501775503E0,3.794631890E0
1.263204743E1,1.122957230E0,4.642119408E-1,-3.971539259E0,4.153269766E0
1.264884940E1,1.906449318E0,8.600816727E-1,-4.051461697E0,4.559455161E0
1.266566387E1,2.980288506E0,2.209624052E0,-2.981460333E0,4.759586510E0
1.268247455E1,3.342653275E0,1.821498394E0,-3.836330891E0,5.404500163E0
1.269927717E1,3.448584557E0,1.948773265E0,-4.491477013E0,5.988640784E0
1.271608453E1,4.103487015E0,2.263513803E0,-1.991022348E0,5.091784600E0
1.273289687E1,4.899233818E0,3.192605972E0,7.499589324E-1,5.895563018E0
1.274970694E1,4.939412117E0,3.878166199E0,1.792713046E0,6.530833422E0
1.276650746E1,3.380214691E0,1.991845727E0,9.508901834E-1,4.037015345E0
1.278331835E1,1.003993034E0,6.216770411E-1,7.680742145E-1,1.408695267E0
1.280012784E1,-1.180645943E0,3.940806985E-1,9.361616969E-1,1.557441223E0
1.281693564E1,-2.113695145E0,4.771974981E-1,1.678052783E0,2.740672501E0
1.283374214E1,-1.670073509E0,1.398185492E-1,2.515798569E0,3.022902114E0
1.285055334E1,-1.292335510E0,-2.035450637E-1,3.039595604E0,3.309184658E0
1.286735977E1,-1.475250244E0,-4.935641885E-1,4.688218594E0,4.939571082E0
1.288416923E1,-1.378924370E0,-1.450677395E0,4.504976273E0,4.929574884E0
1.290097610E1,-1.387073517E0,-2.790521383E0,1.811408997E0,3.604467379E0
1.291778487E1,-2.225671291E0,-8.908739090E-1,4.516449928E0,5.113275758E0
1.293459408E1,-2.408412933E0,-1.823703647E0,2.074019432E0,3.664410519E0
1.295140410E1,-2.750299931E0,-1.282150149E0,-1.486766338E-1,3.038118407E0
1.296820972E1,-3.039855003E0,4.753899872E-1,5.654384494E-1,3.128327784E0
1.298501873E1,-2.863903046E0,1.292257190E0,3.104815185E-1,3.157256415E0
1.300182723E1,-2.314589500E0,1.950943232E0,1.686360002E0,3.465157154E0
1.301863742E1,-2.047222137E0,1.733081102E0,1.595747232E0,3.121073184E0
1.303543078E1,-2.034056664E0,8.254455328E-1,1.329028964E0,2.566138115E0
1.305226107E1,-2.384397984E0,7.951406837E-1,1.678801656E0,3.022577948E0
1.306905578E1,-2.219137192E0,1.588447988E-1,8.785856962E-1,2.392010529E0
1.308585662E1,-1.823322296E0,7.029604912E-2,-7.925787568E-2,1.826397421E0
1.310267277E1,-1.145030022E0,-3.259946108E-1,-1.223151207E0,1.706887551E0
1.311948916E1,-6.103525162E-1,-6.261997223E-1,-1.750808716E0,1.957035372E0
1.313629152E1,9.715366364E-2,-1.330323219E0,-1.252041459E0,1.829427921E0
1.315310157E1,8.198204041E-1,-2.026602745E0,-1.551750660E0,2.680886848E0
1.316990554E1,1.619275093E0,-1.507101297E0,-2.786675453E0,3.557944101E0
1.318672170E1,2.595755577E0,8.271431923E-2,-4.245728970E0,4.977047635E0
1.320352829E1,3.532157898E0,1.515083313E0,-4.536776543E0,5.945919463E0
1.322033129E1,3.643232346E0,4.027065754E0,-6.115816116E0,8.178851220E0
1.323714164E1,2.450243950E0,6.335977554E0,-7.420183182E0,1.006019013E1
1.325395157E1,-1.875854969E0,4.316350460E0,-3.570189476E0,5.907280766E0
1.327075921E1,-6.951837540E-1,7.125176191E-1,-5.118083954E-2,9.967854773E-1
1.328756625E1,5.495738029E0,-2.759726524E0,6.367806911E0,8.852581083E0
1.330437558E1,8.264355659E0,-3.652176857E0,4.771251678E0,1.021776947E1
1.332118451E1,6.077680588E0,-2.277952671E0,-7.299263477E-1,6.531467077E0
1.333799075E1,2.630986214E0,-2.219686747E0,-1.371664524E0,3.705477200E0
1.335479960E1,-1.376419067E-1,-1.960812330E0,1.379065990E0,2.401156658E0
1.337160916E1,-2.368775368E0,-5.852099657E-1,3.282518387E0,4.090048216E0
1.338842258E1,-3.696524143E0,3.108488321E-1,8.051311970E-1,3.795939144E0
1.340521675E1,-3.856211185E0,-4.813163280E-1,9.980270863E-1,4.012242288E0
1.342203266E1,-4.005746841E0,2.627741694E-1,4.755787849E0,6.223550120E0
1.343884652E1,-4.045937061E0,-4.733158052E-1,5.643072128E0,6.959734018E0
1.345565133E1,-3.251103401E0,-1.844340920E0,2.783372164E0,4.660303355E0
1.347245776E1,-2.455854893E0,-2.004638672E0,5.147628784E-1,3.211663164E0
1.348926662E1,-1.960894108E0,-2.067395210E0,-3.611091375E-1,2.872216647E0
1.350607430E1,-1.545607567E0,-1.647827268E0,-1.227671862E0,2.571267325E0
1.352288316E1,-1.112509727E0,-9.733791947E-1,-1.845560074E0,2.364579653E0
1.353968019E1,-5.511255264E-1,-1.291339040E0,-2.299987316E0,2.694668350E0
1.355649589E1,-3.637208939E-1,-1.579778671E0,-2.551416874E0,3.022866455E0
1.357331556E1,-8.464946747E-1,-1.537254810E0,-1.261964917E0,2.161541357E0
1.359011724E1,-1.472791672E0,-7.295839787E-1,-4.910953045E-1,1.715395782E0
1.360692415E1,-1.850262165E0,-3.947702050E-1,-3.291298747E-1,1.920322907E0
1.362372996E1,-2.074343204E0,-1.649463177E-2,-2.063850760E-1,2.084650235E0
1.364054433E1,-1.852369308E0,6.735492945E-1,-2.267524004E-1,1.984025544E0
1.365734914E1,-1.258455276E0,1.319661140E0,-3.908556700E-1,1.864935217E0
1.367415475E1,-6.332931519E-1,1.948545337E0,-9.995032549E-1,2.279670130E0
1.369096681E1,8.448505402E-2,2.314459085E0,-1.619168401E0,2.825874182E0
1.370777248E1,7.689552307E-1,1.552922010E0,-2.590340853E0,3.116524451E0
1.372458213E1,1.307410240E0,1.109590769E0,-3.449550629E0,3.852260732E0
1.374138918E1,2.089170456E0,1.456238270E0,-4.893034458E0,5.516071909E0
1.375819852E1,3.113257408E0,9.720115662E-1,-4.649349213E0,5.679227613E0
1.377500680E1,3.375880241E0,-1.603786647E-1,-4.573133469E0,5.686460977E0
1.379181362E1,2.867906570E0,-7.877216339E-1,-5.967007160E0,6.667125911E0
1.380862310E1,2.899515152E0,-5.367519259E-1,-4.618476868E0,5.479563790E0
1.382543374E1,4.007116318E0,3.470855951E-1,-7.986450195E-1,4.100644274E0
1.384223585E1,4.403649330E0,1.905884981E0,2.825793266E0,5.568629326E0
1.385904984E1,3.581902504E0,1.790307164E0,3.457566261E0,5.290556657E0
1.387585738E1,1.739069939E0,9.229800105E-1,3.319490433E0,3.859439478E0
1.389266352E1,8.912086487E-2,2.411783934E-1,2.446891069E0,2.460362870E0
1.390947417E1,-5.668325424E-1,-6.470847130E-2,2.089000702E0,2.165504618E0
1.392626628E1,-3.525304794E-1,-7.556620240E-1,1.830747604E0,2.011700680E0
1.394309298E1,-3.130483627E-1,-1.209837079E0,1.811491132E0,2.200728324E0
1.395989590E1,-6.657247543E-1,-2.379026413E0,2.414288998E0,3.454236165E0
1.397670327E1,-1.199419022E0,-3.216390133E0,2.238955021E0,4.098376637E0
1.399350311E1,-1.978275776E0,-1.579888821E0,3.074647427E0,3.982848294E0
1.401032312E1,-2.539689541E0,-2.432760954E0,2.177928448E0,4.136631618E0
1.402711843E1,-3.316474915E0,-1.376173735E0,8.055627346E-3,3.590671929E0
1.404393581E1,-3.982424736E0,2.101608753E0,5.750867724E-1,4.539514393E0
1.406074941E1,-3.767979622E0,2.291319132E0,8.689946532E-1,4.494770907E0
1.407754877E1,-3.818023682E0,1.416754723E0,1.706127763E0,4.415356239E0
1.409436961E1,-3.636679173E0,6.777493954E-1,1.720001101E0,4.079605794E0
1.411117180E1,-3.367908001E0,9.003460407E-1,1.320542812E0,3.727902978E0
1.412797834E1,-3.130088329E0,1.065997958E0,6.264200807E-1,3.365443019E0
1.414478576E1,-2.911682129E0,4.884003997E-1,7.939875126E-1,3.057260856E0
1.416160022E1,-2.655655861E0,-1.764719486E-1,6.787461042E-1,2.746697412E0
1.417840453E1,-2.243639469E0,-1.009770274E0,1.075600982E-1,2.462747094E0
1.419521577E1,-1.132758141E0,-1.774616838E0,-1.401544571E0,2.529176370E0
1.421201744E1,7.449083328E-1,-2.479485750E0,-3.588680506E0,4.425083703E0
1.422883157E1,2.339366913E0,-2.478420973E0,-4.394545555E0,5.561226367E0
1.424563722E1,2.906756401E0,-7.579244375E-1,-3.109844208E0,4.323749903E0
1.426243720E1,3.351333618E0,5.867977142E-1,-3.120265245E0,4.616473089E0
1.427927196E1,3.767678261E0,2.035322428E0,-3.837674379E0,5.750276646E0
1.429606107E1,3.730950356E0,2.960216999E0,-2.482614517E0,5.370870514E0
1.431286930E1,9.149599075E-1,3.360343456E0,-2.881764174E0,4.520356682E0
1.432967999E1,-3.365607262E0,1.367849350E0,-1.070040321E1,1.130030765E1
1.434648703E1,-5.483036041E-1,3.536180854E-1,-9.590208054E0,9.612376038E0
1.436329545E1,3.027627945E0,-9.511095285E-1,2.667374134E0,4.145603102E0
1.438010371E1,5.929131508E0,-2.638134241E0,1.142759705E1,1.314170183E1
1.439691413E1,7.230368614E0,-2.602253914E0,7.548462868E0,1.077168730E1
1.441371448E1,5.263878822E0,-2.170764923E0,1.355803132E0,5.853105393E0
1.443052791E1,1.995388985E0,-2.372776985E0,-1.690702915E0,3.531306298E0
1.444733626E1,-1.059951782E0,-1.240062118E0,-1.390889764E0,2.143787809E0
1.446414640E1,-2.548772812E0,1.164397001E0,-9.907531142E-1,2.972146523E0
1.448093609E1,-2.336146832E0,1.460466027E0,9.935667515E-1,2.928774133E0
1.449775747E1,-2.147892952E0,1.071450472E0,6.837752342E0,7.246813599E0
1.451458688E1,-3.265250206E0,1.077111244E0,7.132538795E0,7.918026093E0
1.453137910E1,-4.143873692E0,8.460246921E-1,3.563085556E0,5.530192188E0
1.454818886E1,-4.764294147E0,6.781435013E-2,2.224636793E0,5.258527015E0
1.456498817E1,-4.622123241E0,-1.231939673E0,1.604881287E0,5.045526986E0
1.458179282E1,-4.448950768E0,-2.003074169E0,8.579099178E-1,4.953935656E0
1.459860604E1,-3.864294529E0,-2.354681969E0,-1.358025551E0,4.724566941E0
1.461543315E1,-2.835985661E0,-1.966275692E0,-1.977198124E0,3.977231095E0
1.463222679E1,-1.592092514E0,-1.371534824E0,-1.963482857E0,2.875957454E0
1.464902354E1,-3.163146973E-1,-1.267713070E0,-1.323511600E0,1.859794175E0
1.466584466E1,2.967205048E-1,-1.411460876E0,-1.634878874E0,2.180159122E0
1.468265330E1,2.464704514E-1,-1.364647985E0,-1.742294312E0,2.226791700E0
1.469946308E1,-1.385135651E-1,-9.200967550E-1,-2.077580929E0,2.276424073E0
1.471626828E1,-5.237846375E-1,1.392165422E-1,-1.532265902E0,1.625290862E0
1.473307687E1,-3.261032104E-1,1.186807632E0,-3.243352175E-1,1.272811452E0
1.474988441E1,1.805276871E-1,2.029041767E0,4.498386383E-2,2.037553505E0
1.476669337E1,3.694124222E-1,2.338467121E0,-1.081174135E0,2.602658549E0
1.478350392E1,1.863460541E-1,2.138535261E0,-3.194339275E0,3.848618105E0
1.480030894E1,6.747570038E-1,2.922802687E0,-6.137067795E0,6.830935051E0
1.481711911E1,2.223860741E0,3.498318195E0,-4.580039978E0,6.177422844E0
1.483391582E1,2.956382751E0,2.920228243E0,-3.336741447E0,5.329331614E0
1.485073515E1,2.968180656E0,1.368561387E0,-4.955271244E0,5.936140984E0
1.486753084E1,3.109624863E0,1.988332272E-1,-4.827220917E0,5.745551603E0
1.488434997E1,3.906715393E0,7.203576565E-1,-1.031358361E0,4.104270993E0
1.490114956E1,4.406306267E0,1.845719457E0,2.097160339E0,5.217307420E0
1.491796969E1,3.903211594E0,6.159306765E-1,1.901290655E0,4.385126851E0
1.493475908E1,2.288485527E0,-6.033967137E-1,1.803469658E0,2.975526241E0
1.495158335E1,7.152786255E-1,-1.585826993E0,2.234373569E0,2.831765529E0
1.496838068E1,3.852977753E-1,-1.939792156E0,2.689889193E0,3.338675164E0
1.498520112E1,5.639762878E-1,-1.904228687E0,3.253152132E0,3.811450504E0
1.500201024E1,3.540840149E-1,-1.636063099E0,3.514300108E0,3.892606222E0
1.501881059E1,-1.360931396E-1,-1.953021646E0,3.326266766E0,3.859645772E0
1.503563231E1,-9.356231689E-1,-2.302488804E0,3.397006750E0,4.209097322E0
1.505242884E1,-2.251856327E0,-1.492311716E0,3.256692886E0,4.231300005E0
1.506927034E1,-3.247296333E0,-1.514546514E0,1.652365804E0,3.945769553E0
1.508604009E1,-3.570713043E0,-1.703017473E0,-6.251884103E-1,4.005136789E0
1.510285874E1,-3.453994751E0,8.829134703E-2,-2.132904053E0,4.060437760E0
1.511966660E1,-3.428920269E0,1.558706999E0,1.669040442E0,4.119800689E0
1.513647387E1,-3.372318745E0,2.372311354E0,2.350615501E0,4.746134017E0
1.515328298E1,-3.069999695E0,1.301699400E0,1.470508575E0,3.644408721E0
1.517009283E1,-2.821577549E0,1.137054682E0,3.054387569E-1,3.057365868E0
1.518690001E1,-2.628444195E0,8.567777872E-1,-2.046214342E-1,2.772121389E0
1.520370531E1,-2.769015312E0,2.174897492E-1,7.349389791E-2,2.778515601E0
1.522051729E1,-3.160195351E0,-1.740967035E-1,2.590885758E-1,3.175574154E0
1.523732392E1,-3.050738811E0,-5.537981391E-1,-1.796505004E-1,3.105796834E0
1.525413279E1,-2.340240479E0,-9.180853367E-1,-1.189856768E0,2.781252472E0
1.527094017E1,-1.284539223E0,-1.115380287E0,-2.344523668E0,2.896705962E0
1.528774862E1,4.605579376E-2,-1.434112787E0,-2.858894587E0,3.198762086E0
1.530455787E1,1.614482880E0,-1.815585256E0,-2.504321098E0,3.489201764E0
1.532136637E1,3.668236732E0,-2.386174202E0,-3.590672970E0,5.660628978E0
1.533815637E1,5.403887749E0,-3.116114855E0,-4.195754051E0,7.517747445E0
1.535497049E1,5.433995247E0,-2.203256369E0,-2.204147816E0,6.264256585E0
1.537179068E1,1.881875992E0,1.109557033E0,-1.981780529E0,2.949581008E0
1.538859128E1,-3.917047024E0,4.146164417E0,-1.380638027E1,1.493820849E1
1.540540955E1,-3.913174629E0,3.942741871E0,-1.020783424E1,1.162144694E1
1.542219890E1,1.003830910E0,1.234042287E0,-5.062665939E-1,1.669383936E0
1.543902412E1,4.899590492E0,-1.651587963E0,8.161257744E0,9.661255496E0
1.545581697E1,8.272694588E0,-3.408091068E0,1.130206490E1,1.441489616E1
1.547263954E1,8.116377831E0,-2.502401114E0,6.140393257E0,1.048055484E1
1.548943895E1,4.416296959E0,-1.918622017E0,6.603918076E-1,4.860134423E0
1.550625491E1,5.058765411E-1,-2.970136166E0,-3.408628941E0,4.549326453E0
1.552306374E1,-2.571593285E0,-2.290243626E0,-2.241988420E0,4.109114255E0
1.553985878E1,-3.957650661E0,-7.969481945E-1,4.238421917E-1,4.059281634E0
1.555668312E1,-3.502179623E0,-9.979776740E-1,5.384613991E0,6.500406862E0
1.557349738E1,-2.977059841E0,-2.970652282E-1,6.766708374E0,7.398613064E0
1.559028396E1,-2.993547440E0,-2.427697182E-2,4.935881138E0,5.772766949E0
1.560710940E1,-3.058594704E0,-7.409123778E-1,2.142559767E0,3.807166278E0
1.562391479E1,-2.984130859E0,-8.398433924E-1,4.552688599E-1,3.133311929E0
1.564072307E1,-2.649173260E0,-4.942502975E-1,2.599701881E-1,2.707394839E0
1.565752894E1,-2.523600578E0,2.208350897E-1,8.263163567E-1,2.664606301E0
1.567432644E1,-2.168873310E0,7.325661182E-2,-4.946490526E-1,2.225770799E0
1.569114999E1,-1.899302483E0,-4.577060342E-1,-2.251864195E0,2.981230801E0
1.570795416E1,-1.704574585E0,-1.585747600E-1,-2.510848522E0,3.038927569E0
1.572475743E1,-1.078380585E0,-5.251089931E-1,-2.437585831E0,2.716701828E0
1.574157770E1,-7.890586853E-1,-1.136937022E0,-1.806286931E0,2.275502555E0
1.575837911E1,-1.052409172E0,-1.200097322E0,-1.765288353E0,2.379924708E0
1.577518734E1,-1.451585770E0,-7.664077282E-1,-2.412240505E0,2.917770777E0
1.579199625E1,-1.155061722E0,6.894898415E-2,-2.389308214E0,2.654753338E0
1.580880491E1,-5.547218323E-1,8.968039155E-1,-1.270146132E0,1.650831539E0
1.582561347E1,-3.565254211E-1,1.571907043E0,5.250371695E-1,1.695189122E0
1.584241413E1,-5.734367371E-1,2.460180759E0,9.191012383E-2,2.527798752E0
1.585925457E1,6.176967621E-1,2.958989620E0,-3.876387119E0,4.915642986E0
1.587602591E1,2.230643272E0,2.722164392E0,-7.013610840E0,7.847081330E0
1.589284611E1,2.354899406E0,2.383219481E0,-6.016869545E0,6.886799360E0
1.590964195E1,2.830189705E0,2.134846210E0,-3.086425781E0,4.700379369E0
1.592646073E1,3.384411812E0,1.506599784E-1,-2.725127220E0,4.347787956E0
1.594327177E1,3.191811562E0,-2.022208452E0,-3.766973734E0,5.335454918E0
1.596007588E1,3.677091599E0,-1.882229209E0,-1.937725782E0,4.562737186E0
1.597688958E1,4.631893158E0,5.819046497E-1,2.479455233E0,5.285900633E0
1.599369324E1,4.385654449E0,2.494613528E-1,3.390224457E0,5.548857340E0
1.601051137E1,2.983035088E0,-1.023147225E0,3.205599308E0,4.496798361E0
1.602730540E1,1.316197395E0,-1.830192447E0,2.777123928E0,3.576925675E0
1.604412503E1,4.141454697E-1,-2.388492107E0,2.295823812E0,3.338744973E0
1.606092900E1,1.897525787E-2,-2.995697737E0,1.461585879E0,3.333286407E0
1.607773560E1,-4.209966660E-1,-2.960023403E0,1.612190604E0,3.396783079E0
1.609453696E1,-6.935710907E-1,-3.154899120E0,2.654785633E0,4.181185965E0
1.611135101E1,-1.416718483E0,-2.970784426E0,3.003186226E0,4.455533511E0
1.612816291E1,-2.062261105E0,-1.478111863E0,1.108369589E0,2.768793725E0
1.614496979E1,-2.726965427E0,4.798248410E-1,1.767086506E0,3.284686749E0
1.616177669E1,-3.083036423E0,1.230604291E0,1.882387042E0,3.816134364E0
1.617858573E1,-3.305848598E0,1.308183789E0,1.980320454E0,4.069600580E0
1.619539446E1,-3.469209194E0,1.648278713E0,3.747336864E-1,3.859100994E0
1.621220387E1,-3.428783417E0,1.639954567E0,-3.408356905E-1,3.816041885E0
1.622900868E1,-3.217096806E0,9.537650347E-1,-2.578267455E-1,3.365390650E0
1.624582024E1,-3.133428574E0,1.090133190E-1,-3.968551755E-1,3.160340577E0
1.626262818E1,-3.381147385E0,-4.437279701E-2,-1.459432840E-1,3.384586537E0
1.627943376E1,-3.809504032E0,1.908670068E-1,1.370731294E-1,3.816744716E0
1.629622683E1,-3.823444366E0,1.652109623E-1,4.721788764E-1,3.856030910E0
1.631305606E1,-3.383579254E0,-1.661253572E-1,-1.906789988E-1,3.393017047E0
1.632985122E1,-2.461312771E0,-4.553012550E-1,-1.197551608E0,2.774795424E0
1.634666852E1,-6.872777939E-1,-9.068672061E-1,-2.037042856E0,2.333302915E0
1.636347050E1,1.566468239E0,-1.047888994E0,-4.374272346E0,4.762998284E0
1.638028770E1,3.747868538E0,-3.654521704E-1,-5.041957855E0,6.292965349E0
1.639707911E1,4.728575706E0,2.513073683E-1,-4.391839981E0,6.458393146E0
1.641389708E1,3.833207130E0,6.088065505E-1,-2.811497927E0,4.792561206E0
1.643071202E1,-1.046085358E-2,3.942575455E-1,-5.134203911E0,5.149329883E0
1.644751713E1,-3.983125687E-1,1.127087831E0,-1.351037502E1,1.356315646E1
1.646432580E1,-3.892402649E-1,-8.545139432E-1,-9.291997910E0,9.339321561E0
1.648113138E1,5.329751968E-1,-9.887186289E-1,-2.821251631E0,3.036624417E0
1.649794437E1,2.696105957E0,-1.531566620E0,4.557258606E0,5.512103922E0
1.651474798E1,4.714518547E0,-2.230424404E0,9.516734123E0,1.085217520E1
1.653156249E1,6.099170685E0,-1.905796528E0,8.670522690E0,1.077078953E1
1.654836732E1,4.696018219E0,-6.084629297E-1,6.475501537E0,8.022152729E0
1.656517489E1,2.583097458E0,-9.716119766E-1,2.162188530E0,3.505920927E0
1.658198509E1,8.524236679E-1,-1.272352219E0,-1.241297603E0,1.971376680E0
1.659879022E1,-5.017614365E-1,-8.336040378E-1,-4.734091759E-1,1.082024251E0
1.661559880E1,-1.018453598E0,-8.309805989E-1,4.395981312E0,4.588292513E0
1.663241271E1,-1.725551605E0,-7.467789650E-1,6.446449280E0,6.715051413E0
1.664921871E1,-2.536962032E0,-1.026360512E0,5.496022224E0,6.139694825E0
1.666602293E1,-3.079025269E0,-1.220510840E0,3.207313538E0,4.610520952E0
1.668283211E1,-3.654850960E0,-1.059522271E0,1.448118687E0,4.071556301E0
1.669964905E1,-4.015617847E0,-3.808098435E-1,1.429594994E0,4.279479487E0
1.671643717E1,-4.127555370E0,-1.242904663E0,7.170805931E-1,4.369866121E0
1.673325764E1,-3.937128067E0,-1.844792008E0,-2.475235462E0,5.003101594E0
1.675006481E1,-3.445003510E0,-1.317160487E0,-3.510346889E0,5.091708575E0
1.676687371E1,-2.791371346E0,-4.131131768E-1,-2.841131687E0,4.004303404E0
1.678367794E1,-2.008554459E0,-4.913626909E-1,-2.281363964E0,3.079017675E0
1.680048947E1,-1.528855324E0,-5.902474523E-1,-4.592213631E-1,1.701962078E0
1.681728884E1,-1.147141457E0,-4.033990502E-1,-8.472842574E-1,1.482077909E0
1.683411407E1,-1.269124031E0,2.850683928E-1,-3.071725368E-1,1.336523386E0
1.685090378E1,-1.256069183E0,1.235181928E0,-1.268872023E-1,1.766206259E0
1.686772203E1,-7.275009155E-1,2.383004665E0,-9.853187799E-1,2.679332364E0
1.688453081E1,-9.272766113E-2,3.330583334E0,-2.155954361E0,3.968566866E0
1.690133952E1,4.335727692E-1,2.955648422E0,-4.760782719E0,5.620399900E0
1.691815310E1,1.529600143E0,2.416722298E0,-5.620201111E0,6.306098936E0
1.693495221E1,2.269098282E0,2.125516415E0,-5.153688908E0,6.018898271E0
1.695176831E1,2.765190125E0,2.239011049E0,-3.742198229E0,5.163670641E0
1.696857060E1,3.194277763E0,1.400402784E0,-2.489841461E0,4.285306161E0
1.698538036E1,2.800848961E0,2.203474641E-1,-3.743627548E0,4.680604141E0
1.700219142E1,2.482934952E0,3.027060032E-1,-4.963271141E0,5.557936426E0
1.701899696E1,3.459810257E0,9.094053507E-1,-2.578828096E0,4.409950052E0
1.703580643E1,4.067595482E0,2.551753759E0,2.020937920E0,5.209699639E0
1.705260150E1,3.873290062E0,2.346930027E0,3.058449507E0,5.464848565E0
1.706942390E1,2.922729492E0,5.938608050E-1,2.632560968E0,3.978114578E0
1.708623162E1,1.509742737E0,-1.334682703E0,2.741724968E0,3.402610299E0
1.710303677E1,5.552015305E-1,-1.773125648E0,2.358820438E0,3.002708305E0
1.711984929E1,5.563974380E-1,-2.558671474E0,1.863546610E0,3.213904758E0
1.713665515E1,5.576124191E-1,-2.845365047E0,2.242061138E0,3.665224688E0
1.715346727E1,2.106885910E-1,-3.367689371E0,2.826372623E0,4.401602389E0
1.717027307E1,-8.860950470E-1,-3.449069023E0,2.537506580E0,4.372662942E0
1.718707892E1,-1.587535858E0,-2.091682911E0,1.992449641E0,3.296249850E0
1.720388882E1,-2.232871532E0,-2.287737370E0,2.929054737E0,4.335760511E0
1.722069917E1,-2.863859653E0,-1.872536421E0,-7.036870718E-2,3.422431375E0
1.723750588E1,-3.479405403E0,5.195348859E-1,-1.069609404E0,3.676988269E0
1.725431000E1,-3.820354939E0,2.252468109E0,-1.419026256E-1,4.437213179E0
1.727111738E1,-3.888416290E0,1.631886244E0,6.049209833E-1,4.260136542E0
1.728792860E1,-4.029996395E0,1.551875830E0,2.575651646E0,5.028237359E0
1.730472393E1,-4.191082001E0,2.142610073E0,2.064541340E0,5.139871322E0
1.732154520E1,-4.108366013E0,2.673784971E0,1.810794473E0,5.225588387E0
1.733834476E1,-3.598409176E0,2.057429552E0,9.881441593E-1,4.261219759E0
1.735516312E1,-2.946093082E0,9.136649966E-1,7.406824827E-1,3.172200926E0
1.737195601E1,-2.460317135E0,3.749886155E-2,-8.731164038E-2,2.462151476E0
1.738877634E1,-1.822463036E0,-7.343659401E-1,-9.846574068E-1,2.197775025E0
1.740558917E1,-6.713933945E-1,-8.987303972E-1,-1.740245461E0,2.070492618E0
1.742239326E1,6.118078232E-1,-1.125240564E0,-2.888643742E0,3.159863574E0
1.743920782E1,2.116098404E0,-1.550194979E0,-3.227553368E0,4.159095775E0
1.745600793E1,3.564513206E0,-1.794088602E0,-4.127393246E0,5.741069876E0
1.747282270E1,4.455673218E0,-1.287603021E0,-4.969347954E0,6.797452791E0
1.748963063E1,3.452391624E0,-7.980051637E-1,-1.112621546E0,3.713993386E0
1.750642951E1,-1.919008732E0,8.630400300E-1,-5.707529545E0,6.083035929E0
1.752324317E1,-1.264659882E0,3.649646044E0,-1.749790573E1,1.791915137E1
1.754005588E1,5.194301605E-1,1.291355848E0,-6.981997490E0,7.119388778E0
1.755686022E1,2.499561310E0,-7.123423815E-1,1.877250195E0,3.206135790E0
1.757366912E1,5.510003090E0,-3.222888470E0,9.945604324E0,1.181787585E1
1.759048004E1,7.361483574E0,-4.184568405E0,1.048892117E1,1.348033829E1
1.760728662E1,4.683649063E0,-7.320507765E-1,5.264313698E0,7.084170071E0
1.762409359E1,2.121503830E0,-7.572124600E-1,6.062414050E-1,2.332740417E0
1.764090216E1,1.971759796E-1,-1.201691389E0,-2.762968540E0,3.019426389E0
1.765771276E1,-6.421842575E-1,7.428464890E-1,-6.524128914E-1,1.178924980E0
1.767451856E1,2.544984818E-1,3.112503290E-1,3.188606739E0,3.213854256E0
1.769132748E1,6.933450699E-1,-2.718276381E-1,7.864489079E0,7.899671266E0
1.770813432E1,-6.673183441E-1,-5.898842812E-1,8.929053307E0,8.973364485E0
1.772494475E1,-2.469201088E0,-5.400780439E-1,5.792444706E0,6.319893510E0
1.774175144E1,-4.040978432E0,3.446859121E-1,3.836332321E0,5.582630271E0
1.775857212E1,-4.643635273E0,-1.261518836E0,2.311911583E0,5.338512292E0
1.777536751E1,-5.217072010E0,-2.879831791E0,-1.525258780E0,6.151234498E0
1.779219147E1,-4.948832035E0,-1.681387305E0,-3.023010254E0,6.037929511E0
1.780898288E1,-4.148212433E0,-1.218120933E0,-2.974694967E0,5.247884826E0
1.782577879E1,-2.878275871E0,-1.666142225E0,-4.551497459E0,5.637076461E0
1.784259901E1,-1.214821815E0,-2.041286469E0,-3.520935774E0,4.247308702E0
1.785941769E1,-6.024513245E-1,-1.340079546E0,-9.294953942E-1,1.738597848E0
1.787622052E1,-1.006720543E0,-8.453569412E-1,1.244262457E-1,1.320453142E0
1.789302293E1,-1.837130547E0,4.448080063E-2,1.375902653E0,2.295677525E0
1.790983485E1,-2.643275261E0,1.407665730E0,1.695959449E0,3.441613773E0
1.792664155E1,-3.192414284E0,2.607709169E0,-1.363755226E0,4.341829613E0
1.794343365E1,-1.378871918E0,3.227396011E0,-5.607188702E0,6.614978300E0
1.796026085E1,1.062814713E0,2.800339699E0,-6.379396915E0,7.047565718E0
1.797706974E1,2.442410469E0,2.568815231E0,-4.521878242E0,5.745569026E0
1.799387534E1,3.008329391E0,2.821577072E0,-3.246299982E0,5.248790954E0
1.801068465E1,3.748939514E0,2.897096395E0,-2.513586521E0,5.363378805E0
1.802749040E1,3.992533684E0,8.925776482E-1,-2.356063843E0,4.721022866E0
1.804430008E1,3.179615974E0,-1.240218163E0,-4.644759655E0,5.763843430E0
1.806111353E1,2.894659996E0,-2.091016054E0,-4.880097389E0,6.047045159E0
1.807791485E1,3.680102348E0,-1.230893850E0,-2.341356754E0,4.532130229E0
1.809472340E1,4.318750381E0,1.158428907E0,1.419782877E0,4.691411921E0
1.811153026E1,3.000448227E0,1.541521430E0,2.399186850E0,4.139453517E0
1.812834039E1,1.126885414E0,8.050323725E-1,2.180385351E0,2.583026933E0
1.814515047E1,-1.571865082E-1,-2.331978083E-2,2.566407204E0,2.571322101E0
1.816195715E1,-6.303739548E-1,-5.639722347E-1,2.953531742E0,3.072260691E0
1.817876406E1,-2.685508728E-1,-1.309984446E0,3.679041624E0,3.914527569E0
1.819557454E1,3.182411194E-3,-1.368933439E0,3.776537418E0,4.016991880E0
1.821237066E1,-3.547973633E-1,-1.026839375E0,3.838901043E0,3.989666839E0
1.822919170E1,-8.755617142E-1,-5.203502774E-1,3.970897913E0,4.099439347E0
1.824599888E1,-1.572008133E0,-5.591325164E-1,3.499406338E0,3.876813570E0
1.826280908E1,-2.159856319E0,-8.621954918E-1,2.311516285E0,3.278943111E0
1.827960425E1,-2.399095058E0,-5.326492190E-1,5.356667042E-1,2.515215917E0
1.829642556E1,-2.469033241E0,-3.594553769E-1,-1.065278649E0,2.712959991E0
1.831321884E1,-2.518846989E0,1.622575969E-1,-7.293764353E-1,2.627338513E0
1.833004087E1,-2.998966217E0,1.219971895E0,-5.058835149E-1,3.276896081E0
1.834684648E1,-3.416056633E0,1.556219578E0,-8.437463641E-1,3.847488820E0
1.836365637E1,-3.181435585E0,6.564588547E-1,-5.572791100E-1,3.295911197E0
1.838046723E1,-3.067869186E0,-2.163577676E-1,-1.424669623E-1,3.078786914E0
1.839727149E1,-3.581981182E0,-3.878834844E-1,1.432341486E-1,3.605767437E0
1.841407940E1,-3.753728390E0,-4.793206453E-1,2.985431850E-1,3.795965376E0
1.843088955E1,-3.326534748E0,-9.786055684E-1,4.334145188E-1,3.494474271E0
1.844769926E1,-2.501530647E0,-1.671903372E0,-5.111210942E-1,3.051911079E0
1.846450424E1,-1.230010033E0,-1.800808191E0,-1.833906293E0,2.849394166E0
1.848131259E1,4.761495590E-1,-1.123083830E0,-3.015595436E0,3.252975795E0
1.849812134E1,2.987056732E0,-1.787337899E0,-2.909807682E0,4.536966545E0
1.851493036E1,4.427574158E0,-2.329018831E0,-2.323427916E0,5.515982135E0
1.853173703E1,2.971322060E0,-1.319264293E0,-5.411710739E0,6.313147090E0
1.854854553E1,1.573521614E0,-2.299164236E-2,-9.948114395E0,1.007181607E1
1.856535514E1,1.279836655E0,1.365439415E0,-9.227662086E0,9.415527295E0
1.858216690E1,1.277088165E0,9.969697595E-1,-7.150600433E0,7.331847614E0
1.859896971E1,2.715620041E0,-2.888659239E-1,-2.089884520E0,3.438844724E0
1.861577666E1,4.295019150E0,-1.878101349E0,5.237910748E0,7.029236315E0
1.863259092E1,5.376703262E0,-3.020057678E0,9.642608643E0,1.144594198E1
1.864939714E1,4.344883919E0,-2.019827843E0,6.547944546E0,8.113772153E0
1.866620660E1,1.610224724E0,4.666944593E-2,2.023771763E0,2.586629824E0
1.868300876E1,5.952167511E-1,1.593398154E-1,1.626785100E-1,6.372883611E-1
1.869981093E1,9.655103683E-1,3.248866200E-1,2.716392756E0,2.901129296E0
1.871661611E1,1.384335518E0,5.903013349E-1,3.330168962E0,3.654430983E0
1.873343230E1,7.574405670E-1,6.352738142E-1,2.306142330E0,2.509099735E0
1.875024109E1,-9.821357727E-1,9.575853348E-1,2.971737385E0,3.273038868E0
1.876706009E1,-2.557751179E0,-5.447105765E-1,2.573100567E0,3.668739188E0
1.878386017E1,-3.633567810E0,-1.707607269E0,1.878618598E0,4.432600304E0
1.880065818E1,-4.811093330E0,-2.221283674E0,1.910016298E0,5.632839644E0
1.881747692E1,-5.725460052E0,-1.653897047E0,2.190862656E0,6.349499778E0
1.883429073E1,-5.654809475E0,-7.120205164E-1,1.192487836E0,5.822874776E0
1.885109318E1,-4.735609055E0,-1.529592991E0,-1.112445593E-1,4.977752825E0
1.886790292E1,-3.821194649E0,-2.553899288E0,-3.446783066E0,5.744931994E0
1.888470883E1,-2.786445141E0,-1.476254463E0,-3.048176050E0,4.385770285E0
1.890152460E1,-1.698522568E0,-1.002804279E0,-2.208399296E0,2.961017188E0
1.891832593E1,-5.823783875E-1,-1.251148462E0,-1.856638193E0,2.313361719E0
1.893513683E1,7.244873047E-2,-4.788269401E-1,-1.449269056E0,1.528039546E0
1.895194438E1,1.810483932E-1,7.048852444E-1,-1.523100138E0,1.688039027E0
1.896875042E1,6.225967407E-1,1.653521419E0,-1.740977049E0,2.480475936E0
1.898555876E1,1.163777351E0,2.339116335E0,-1.230464935E0,2.887886235E0
1.900236905E1,1.325433731E0,3.155809879E0,8.511809111E-1,3.527097888E0
1.901917806E1,5.433731079E-1,4.416174889E0,6.310119629E-1,4.493999452E0
1.903598476E1,7.683925629E-1,4.985321999E0,-6.420673370E0,8.165103128E0
1.905279224E1,1.859738350E0,4.903612137E0,-8.283735275E0,9.804300527E0
1.906960218E1,2.432943344E0,4.177030563E0,-4.597426414E0,6.671066427E0
1.908641060E1,2.687376976E0,1.838793635E0,-3.424284935E0,4.725344893E0
1.910321702E1,3.670612335E0,-2.534347177E-1,-4.841948986E0,6.081290493E0
1.912002447E1,4.668750763E0,-1.546355486E0,-3.452259302E0,6.008872046E0
1.913683340E1,4.695205688E0,5.650560856E-1,2.281624079E0,5.250719310E0
1.915363101E1,3.285464287E0,-6.898001432E-1,3.272152901E0,4.687972315E0
1.917045955E1,1.252677917E0,-1.214552879E0,2.218473911E0,2.822404499E0
1.918725909E1,-1.538915634E-1,-1.508501291E0,2.524531126E0,2.944913609E0
1.920406623E1,-2.389020920E-1,-1.662942648E0,2.224936962E0,2.787973627E0
1.922085997E1,6.019086838E-1,-2.180078983E0,2.479261875E0,3.355857250E0
1.923768199E1,6.420736313E-1,-2.716786146E0,2.816146612E0,3.965333183E0
1.925448426E1,2.377777100E-1,-2.285708427E0,2.516692877E0,3.408041122E0
1.927129684E1,2.388858795E-2,-1.596292853E0,2.735552073E0,3.167328003E0
1.928811362E1,-7.849702835E-1,-1.926698208E0,2.793980122E0,3.483485216E0
1.930491180E1,-1.441422462E0,-1.658464074E0,3.374780893E0,4.027076840E0
1.932172819E1,-2.429929256E0,-2.242665291E-1,7.759819031E-1,2.560663895E0
1.933852758E1,-3.586788654E0,1.236944318E0,1.951338351E-1,3.799100066E0
1.935534516E1,-4.406578541E0,1.350302458E0,1.692728400E0,4.909845273E0
1.937214550E1,-4.742847919E0,1.040978193E0,4.612548947E-1,4.877601671E0
1.938896082E1,-4.590041637E0,1.347059965E0,7.779049873E-2,4.784255861E0
1.940576452E1,-3.913398266E0,6.071469784E-1,-5.353450775E-3,3.960219956E0
1.942257202E1,-3.380813599E0,-1.586429477E-1,3.365324140E-1,3.401223639E0
1.943937355E1,-3.182188034E0,-4.637760222E-1,1.027191997E0,3.375875039E0
1.945619327E1,-3.105135441E0,-8.135868311E-1,4.692383707E-1,3.244067553E0
1.947299883E1,-2.597803116E0,-1.309786677E0,-4.494475424E-1,2.943828334E0
1.948980525E1,-1.648571014E0,-1.784342647E0,-1.464553475E0,2.836649776E0
1.950661441E1,-1.034755707E-1,-2.238593340E0,-2.942951441E0,3.699049948E0
1.952342722E1,1.777199745E0,-1.429169655E0,-4.030139446E0,4.630657490E0
1.954023138E1,3.477651596E0,-2.553623319E-1,-3.718852043E0,5.097953615E0
1.955703859E1,4.927756310E0,-5.210070610E-1,-4.658142567E0,6.800920730E0
1.957384812E1,5.109378815E0,-1.745944023E-1,-2.639290333E0,5.753441452E0
1.959065836E1,4.478960037E-1,4.185769856E-1,-2.548801422E0,2.621489312E0
1.960746565E1,-1.851250172E0,1.798971891E0,-1.219877815E1,1.246890595E1
1.962427091E1,6.602315903E-1,7.368507981E-1,-1.215120029E1,1.219141187E1
1.964106809E1,2.670421600E0,2.744181752E-1,-2.191037416E0,3.465126523E0
1.965788794E1,5.048854828E0,-1.772534370E0,7.573991776E0,9.273519536E0
1.967468897E1,6.420479774E0,-3.023601770E0,9.641884804E0,1.197207880E1
1.969150382E1,5.232000351E0,-1.938979149E0,5.915242672E0,8.131639667E0
1.970829762E1,2.586092949E0,-1.308073282E0,2.383551121E0,3.752365707E0
1.972512221E1,4.192094803E-1,-1.441929340E0,-8.752093315E-1,1.738070247E0
1.974193782E1,-8.035106659E-1,-1.355724216E0,5.185530186E-1,1.659070454E0
1.975873658E1,-1.561447144E0,-1.531480670E0,1.770847201E0,2.814151743E0
1.977554659E1,-2.433875084E0,-1.262780905E0,3.720068455E0,4.621392955E0
1.979235158E1,-3.140841007E0,-6.390926838E-1,5.411666393E0,6.289630740E0
1.980916569E1,-3.522023201E0,-1.434984446E0,4.030989170E0,5.541904138E0
1.982596496E1,-3.903730869E0,-1.924687982E0,2.665809631E0,5.103927852E0
1.984278424E1,-4.152822018E0,-1.482962132E0,1.817647099E0,4.769585765E0
1.985958310E1,-3.844410419E0,-8.200036287E-1,1.216238856E0,4.114745968E0
1.987639981E1,-3.371863365E0,-1.674192905E0,3.364971876E-1,3.779631569E0
1.989320484E1,-3.089770317E0,-7.812436819E-1,-2.113107920E0,3.823904730E0
1.991001203E1,-2.240506649E0,-9.706109762E-2,-1.890738010E0,2.933288449E0
1.992681489E1,-1.328473091E0,2.753183842E-1,-1.935153484E0,2.363357775E0
1.994363171E1,-5.224866867E-1,9.315454960E-2,-1.919145584E0,1.991178013E0
1.996043358E1,-1.346044540E-1,1.340056062E-1,-2.767300129E0,2.773810712E0
1.997723969E1,-2.354898453E-1,8.614851236E-1,-2.567925930E0,2.718796732E0
1.999405569E1,-4.732179642E-1,1.155288219E0,-1.864340067E0,2.243744637E0
2.001086040E1,-7.044343948E-1,1.596315026E0,-6.632997990E-1,1.866659075E0
2.002766842E1,-8.230276108E-1,2.072692394E0,1.657717228E-1,2.236271109E0
2.004447954E1,-1.128787994E0,2.451657772E0,1.082322359E0,2.907956302E0
2.006128596E1,-1.112931252E0,2.592430592E0,-1.515193224E0,3.202362073E0
2.007809338E1,5.153465271E-1,2.493314743E0,-5.736010551E0,6.275668689E0
2.009490345E1,2.510636330E0,3.123842716E0,-6.215573788E0,7.395609887E0
2.011171522E1,3.704467773E0,2.638062716E0,-4.233850479E0,6.213529291E0
2.012850573E1,3.710488319E0,2.827070355E-1,-4.084609985E0,5.525548441E0
2.014532795E1,3.656812668E0,-1.647807598E0,-4.782955170E0,6.242131761E0
2.016211754E1,4.504424095E0,-1.635964632E0,-3.242055416E0,5.785943314E0
2.017893853E1,5.499637604E0,3.021609783E-2,1.076753736E0,5.604134669E0
2.019574163E1,4.431752205E0,4.678817987E-1,3.249586344E0,5.515356053E0
2.021255570E1,2.033374786E0,-6.102533937E-1,1.214578152E0,2.445858196E0
2.022937334E1,-3.672599792E-2,-7.771664858E-1,7.464418411E-1,1.078198483E0
2.024617912E1,-8.639230728E-1,-9.914892912E-1,7.659763098E-1,1.521884949E0
2.026299020E1,-3.009920120E-1,-1.340465546E0,1.765329957E0,2.236925105E0
2.027979206E1,9.667110443E-2,-1.584972382E0,3.136810780E0,3.515830573E0
2.029660105E1,-2.584075928E-1,-2.078906059E0,3.011644602E0,3.668600291E0
2.031341018E1,-1.129253387E0,-2.348775864E0,2.178682804E0,3.396854432E0
2.033021920E1,-1.913078308E0,-1.896794558E0,-1.011314988E-1,2.695909084E0
2.034702436E1,-2.163669586E0,-9.624522924E-1,7.774555087E-1,2.492432058E0
2.036383330E1,-2.128297806E0,-1.595691323E0,-4.583231211E-1,2.699248494E0
2.038064694E1,-3.273673534E0,1.809233665E0,2.238246441E0,4.358900320E0
2.039746083E1,-3.377988338E0,2.819915533E0,4.624389172E0,6.383392831E0
2.041426016E1,-3.040133476E0,2.096582413E0,2.981369972E0,4.746223370E0
2.043106537E1,-3.229691505E0,1.783947110E0,1.487480402E-1,3.692627857E0
2.044787315E1,-3.376556873E0,1.737060189E0,-9.304736853E-1,3.909513486E0
2.046468188E1,-3.112271786E0,1.052154422E0,-8.984348774E-1,3.405943309E0
2.048149754E1,-2.965213776E0,1.474890113E-1,-3.995205760E-1,2.995640572E0
2.049829755E1,-2.918872356E0,-3.944433928E-1,-1.289052963E-1,2.948222854E0
2.051510641E1,-2.468214989E0,-8.880478144E-1,1.769589186E-1,2.629073717E0
2.053190589E1,-1.862583160E0,-1.438257217E0,-7.191675901E-2,2.354351688E0
2.054872282E1,-9.596614838E-1,-1.888079762E0,-7.316892147E-1,2.240795497E0
2.056553216E1,4.922113419E-1,-2.283053875E0,-2.462569714E0,3.393944106E0
2.058232712E1,1.932512283E0,-1.621093750E0,-4.703423500E0,5.337109826E0
2.059915116E1,3.694489479E0,-9.697167277E-1,-6.035405159E0,7.142528857E0
2.061595374E1,5.266688347E0,-1.622567773E0,-6.526712418E0,8.542172282E0
2.063276350E1,5.543473244E0,-2.013488054E0,-2.385913849E0,6.362139156E0
2.064957184E1,9.751577377E-1,-1.676867962E0,1.108711004E0,2.234291580E0
2.066638326E1,-3.631783485E0,1.284472466E0,-1.170492744E1,1.232254224E1
2.068318126E1,-1.103003502E0,1.295958281E0,-1.249885464E1,1.261417821E1
2.069999818E1,2.151346207E0,4.600943327E-1,-2.790260077E0,3.553241983E0
2.071680479E1,4.355940819E0,-1.190620184E0,4.665343285E0,6.492859524E0
2.073361033E1,6.188989639E0,-2.901851654E0,9.677451134E0,1.184809673E1
2.075043181E1,5.039757729E0,-1.645087719E0,6.692140579E0,8.537576770E0
2.076722458E1,2.080004692E0,-8.454792500E-1,3.056505919E0,3.792556277E0
2.078404189E1,-1.628732681E-1,-1.339668036E0,-3.405830562E-1,1.391845884E0
2.080084448E1,-1.457551956E0,-8.005816340E-1,-4.697641134E-1,1.728024010E0
2.081765961E1,-1.525490761E0,4.529342353E-1,4.800789356E-1,1.662151397E0
2.083445992E1,-8.609676361E-1,1.489579380E-1,2.816357374E0,2.948783240E0
2.085127265E1,-8.151168823E-1,7.218090892E-1,6.699466705E0,6.787361640E0
2.086806445E1,-1.626349926E0,3.979835510E-1,6.026086807E0,6.254368649E0
2.088489066E1,-2.728316307E0,-1.768481731E-1,3.496913910E0,4.438850306E0
2.090169465E1,-3.927479267E0,-6.153578758E-1,2.038645983E0,4.467643244E0
2.091850586E1,-4.389462948E0,-7.388305664E-1,2.182067871E0,4.957285121E0
2.093531078E1,-4.446175098E0,-1.223226428E0,6.685209274E-2,4.611857012E0
2.095212207E1,-4.582846165E0,-1.119276524E0,-2.183620930E0,5.198409302E0
2.096891580E1,-4.268209934E0,-1.220180035E0,-3.827756882E0,5.861584948E0
2.098573805E1,-3.435399532E0,-9.927891493E-1,-3.274090290E0,4.848429382E0
2.100254543E1,-1.458244324E0,-9.271126390E-1,-3.072964668E0,3.525496590E0
2.101935110E1,-6.678199768E-2,-4.790109694E-1,-2.382066965E0,2.430669531E0
2.103616085E1,3.482866287E-1,-2.225729823E-1,-1.751374602E0,1.799487512E0
2.105297048E1,1.240682602E-1,-1.325479746E-1,-9.575423002E-1,9.746020498E-1
2.106976560E1,-2.853870392E-1,6.229321361E-1,-2.155084610E-1,7.182855317E-1
2.108658532E1,-7.058458328E-1,1.179704905E0,-1.103138924E-1,1.379163209E0
2.110338153E1,-8.882703781E-1,1.538244963E0,-1.518535614E-2,1.776359318E0
2.112020443E1,-6.809282303E-1,2.234902620E0,-1.877598643E0,2.997303729E0
2.113700239E1,7.182884216E-1,2.604642153E0,-5.641621590E0,6.255237259E0
2.115381836E1,2.276596069E0,2.932687759E0,-6.130666733E0,7.167190645E0
2.117062864E1,3.156805038E0,2.942129135E0,-4.676251888E0,6.363086800E0
2.118743012E1,2.944709778E0,2.084692001E0,-4.516927719E0,5.780994070E0
2.120424405E1,1.914124489E0,-7.185791135E-1,-5.835931301E0,6.183714309E0
2.122105490E1,1.541949272E0,-1.835027456E0,-4.984108925E0,5.530485973E0
2.123785827E1,2.848119736E0,-5.808119774E-1,-2.085478306E0,3.577477931E0
2.125466354E1,4.320716858E0,2.235546350E0,1.210858822E0,5.013226580E0
2.127146581E1,4.625529289E0,3.269032001E0,2.899461269E0,6.363094144E0
2.128828354E1,3.424306870E0,2.397167921E0,3.312428951E0,5.333336398E0
2.130509418E1,1.411860466E0,7.027953863E-1,3.684943676E0,4.008251642E0
2.132190298E1,-2.723789215E-1,-1.577036083E-1,2.872018814E0,2.889213175E0
2.133870920E1,-7.325258255E-1,-8.897771835E-1,1.806873679E0,2.143149555E0
2.135551682E1,-5.265846252E-1,-1.278651237E0,1.422885299E0,1.984147910E0
2.137232319E1,-2.810497284E-1,-2.050357580E0,1.988282919E0,2.869882249E0
2.138913808E1,-6.425380707E-1,-1.804938436E0,3.823093891E0,4.276295690E0
2.140594093E1,-1.296848297E0,-1.383065343E0,4.141982079E0,4.555293710E0
2.142274962E1,-2.491559982E0,-2.518071830E-1,4.700803757E0,5.326240134E0
2.143955926E1,-3.439669132E0,-2.198176980E-1,2.407642365E0,4.204329354E0
2.145636737E1,-3.694045067E0,1.501547396E-1,-9.050459862E-1,3.806261110E0
2.147317358E1,-3.786136150E0,1.343328595E0,-2.973383427E0,4.998036381E0
2.148998277E1,-3.422905445E0,1.830049157E0,-2.166783094E0,4.445257088E0
2.150679020E1,-2.895806789E0,1.785368443E0,-8.491953015E-1,3.506332856E0
2.152358660E1,-2.453099728E0,1.170340061E0,-6.040811539E-2,2.718647324E0
2.154040951E1,-2.351160526E0,6.382281780E-1,-2.624076605E-2,2.436386588E0
2.155719941E1,-2.742217064E0,3.114376664E-1,-5.541662872E-2,2.760401936E0
2.157402226E1,-3.119653225E0,9.156519175E-2,3.764815629E-1,3.143621923E0
2.159082330E1,-3.074855328E0,-3.304077983E-1,5.542727709E-1,3.141834321E0
2.160763824E1,-2.640861988E0,-8.469545245E-1,2.569540143E-1,2.785230578E0
2.162444377E1,-1.749153137E0,-1.453979969E0,-1.161137819E0,2.553788457E0
2.164125816E1,-2.472877502E-1,-1.941573977E0,-2.788051605E0,3.406478019E0
2.165806253E1,1.604374886E0,-1.638352513E0,-2.628736734E0,3.488334065E0
2.167487143E1,2.813804626E0,-8.207150698E-1,-2.009804964E0,3.553925392E0
2.169168417E1,3.962991714E0,-1.192420959E0,-3.219757080E0,5.243472774E0
2.170848981E1,3.433156967E0,-3.102387488E-1,-4.052200317E0,5.320069760E0
2.172528671E1,6.983375549E-1,2.759677649E0,-6.613902569E0,7.200500209E0
2.174210259E1,-1.185242653E0,4.062826633E0,-1.338999081E1,1.404290619E1
2.175891727E1,-1.168902397E0,3.557833672E0,-9.634839058E0,1.033705166E1
2.177572614E1,1.940491676E0,2.171685219E0,-1.209166050E0,3.153380277E0
2.179252927E1,5.565107346E0,-6.414310336E-1,7.352261543E0,9.243246364E0
2.180933830E1,7.801767349E0,-2.951795816E0,9.481392860E0,1.262843945E1
2.182614929E1,6.208126068E0,-1.600305676E0,6.350975990E0,9.024228696E0
2.184295691E1,2.975417137E0,-1.459314704E0,2.026853085E0,3.884693034E0
2.185976082E1,1.892089844E-2,-2.498359203E0,-1.833589315E0,3.099065422E0
2.187657110E1,-1.095309258E0,-1.705647230E0,-2.049478292E-1,2.037385201E0
2.189336768E1,-1.299101830E0,-4.053529501E-1,2.739221334E0,3.058645141E0
2.191018857E1,-1.542407990E0,-3.429726660E-1,4.010809422E0,4.310828792E0
2.192699488E1,-2.411242485E0,-2.398257256E-1,4.867823601E0,5.437583407E0
2.194380485E1,-2.969460964E0,-4.952462316E-1,3.624437332E0,4.711635939E0
2.196061387E1,-3.409617901E0,-4.193345606E-1,2.565438986E0,4.287518267E0
2.197742560E1,-3.604288101E0,-6.560738683E-1,2.345841169E0,4.350206481E0
2.199422724E1,-3.905244350E0,-1.020675421E0,1.332709551E0,4.250744229E0
2.201101745E1,-4.063349724E0,-1.229825258E0,-1.430583239E0,4.479938565E0
2.202783058E1,-3.712489128E0,-9.985194206E-1,-2.385450602E0,4.524377430E0
2.204464460E1,-2.683213234E0,-1.882716775E0,-2.625970840E0,4.199997449E0
2.206146048E1,-1.510882378E0,-1.706295967E0,-1.287574172E0,2.617643737E0
2.207827447E1,-9.044055939E-1,-9.968219995E-1,-4.701182246E-1,1.425697977E0
2.209507944E1,-5.561676025E-1,-6.364755034E-1,-1.064378023E-1,8.519110719E-1
2.211188440E1,-4.217920303E-1,2.217019796E-1,-1.322756886E0,1.405968017E0
2.212869172E1,-6.914091110E-1,8.389387727E-1,-1.601087332E0,1.935289505E0
2.214550589E1,-9.280509949E-1,1.473032832E0,-7.001279593E-1,1.876508335E0
2.216231304E1,-9.067382812E-1,2.188970566E0,1.725226641E-1,2.375611609E0
2.217911602E1,-9.424638748E-1,3.128298998E0,8.932074308E-1,3.387080201E0
2.219592936E1,-1.052652359E0,4.024310112E0,-1.730324626E0,4.505238304E0
2.221273676E1,1.548662186E-1,2.717998505E0,-5.927424908E0,6.522719176E0
2.222954447E1,1.711292267E0,1.625507116E0,-7.777524948E0,8.127772692E0
2.224635284E1,2.657705307E0,1.756158113E0,-6.497944832E0,7.236765566E0
2.226316742E1,2.540964127E0,1.277563930E0,-3.719456434E0,4.682202949E0
2.227996908E1,2.220930099E0,-1.010980129E0,-4.305261612E0,4.948725985E0
2.229677593E1,2.550480843E0,-7.199338675E-1,-4.023261070E0,4.817664054E0
2.231358322E1,4.103261948E0,1.039660692E0,-1.839381695E0,4.615298255E0
2.233039385E1,5.502005577E0,3.405080318E0,1.809830070E0,6.718788747E0
2.234720040E1,5.777247429E0,5.276459217E0,2.742655993E0,8.290945158E0
2.236400955E1,4.219799042E0,3.308534384E0,2.137253046E0,5.772430537E0
2.238081633E1,1.398847580E0,1.055295706E0,2.095933676E0,2.731915363E0
2.239762593E1,-8.831911087E-1,-3.225800395E-2,1.510915875E0,1.750409637E0
2.241443314E1,-1.898952007E0,-5.115811825E-1,1.519520283E0,2.485291919E0
2.243123493E1,-1.587465286E0,-1.138129950E0,1.358191848E0,2.379090354E0
2.244805225E1,-8.615007401E-1,3.108671308E-1,2.931909800E0,3.071630995E0
2.246484580E1,-9.421539307E-2,-2.339286566E0,4.966475964E0,5.490630353E0
2.248166670E1,-7.992868423E-1,-2.665224791E0,4.850882053E0,5.592257088E0
2.249847402E1,-2.350803852E0,-1.541547537E0,4.720827103E0,5.494438651E0
2.251528816E1,-3.231456280E0,4.502326250E-1,4.648756981E0,5.679433121E0
2.253208736E1,-3.592154503E0,9.124686718E-1,2.955975056E0,4.740671005E0
2.254890012E1,-3.675005436E0,9.669830799E-1,2.061784267E0,4.323387051E0
2.256571467E1,-3.575172901E0,1.677587032E0,-2.160652280E-1,3.955103501E0
2.258251625E1,-3.110748291E0,2.606501579E0,1.125694633E0,4.211626030E0
2.259932514E1,-2.392018795E0,3.163520098E0,1.500268340E0,4.240332347E0
2.261612928E1,-1.531661034E0,2.651206017E0,7.433159947E-1,3.150777290E0
2.263292518E1,-5.787734985E-1,6.950937510E-1,1.101321101E0,1.425146397E0
2.264974823E1,-2.678747177E-1,-5.107288957E-1,1.396700501E0,1.511083439E0
2.266655698E1,-6.594991684E-1,-8.332356215E-1,1.061679363E0,1.502126434E0
2.268336220E1,-1.226885796E0,-9.437562227E-1,5.322800875E-1,1.636840449E0
2.270017541E1,-1.678366661E0,-1.038466096E0,-6.382017136E-1,2.074277684E0
2.271698253E1,-1.764122009E0,-1.206173062E0,-1.732768416E0,2.751266309E0
2.273377196E1,-1.492930412E0,-1.246398091E0,-2.589182377E0,3.238242548E0
2.275059377E1,-1.057234764E0,-1.058840990E0,-2.333458900E0,2.771988461E0
2.276740883E1,8.814811707E-3,-1.013180494E0,-2.946257353E0,3.115613070E0
2.278421552E1,1.570214272E0,-2.198961973E-1,-4.674283028E0,4.935873683E0
2.280102166E1,2.310854912E0,1.522700667E0,-4.269395351E0,5.087868356E0
2.281782924E1,2.407876015E0,3.036098719E0,-2.892670631E-1,3.885799501E0
2.283464398E1,9.767103195E-1,3.740450621E0,4.127507210E-1,3.887839638E0
2.285143778E1,-4.866886139E-1,3.653790236E0,-8.029683113E0,8.835318884E0
2.286825577E1,1.891923904E0,3.332249641E0,-1.025928879E1,1.095154191E1
2.288506003E1,3.411930084E0,1.710788250E0,-2.569840431E0,4.601319721E0
2.290187269E1,3.889502525E0,2.789353430E-1,5.238112450E0,6.530226402E0
2.291868002E1,4.980222702E0,-8.452390432E-1,6.118764877E0,7.934502557E0
2.293549582E1,4.593284607E0,-2.688526154E0,3.153468370E0,6.186339719E0
2.295229308E1,2.137500763E0,-3.300875902E0,1.076612830E0,4.077227786E0
2.296910803E1,-7.462673187E-1,-1.505354643E0,6.284343004E-1,1.793860971E0
2.298590575E1,-1.850935936E0,6.938033104E-1,2.497493505E0,3.185090373E0
2.300272059E1,-2.121667862E0,1.623785257E0,3.004020691E0,4.020235489E0
2.301951466E1,-2.156901836E0,3.232126474E0,5.039192200E0,6.363358005E0
2.303633992E1,-2.575894833E0,2.132499933E0,4.537711143E0,5.636808723E0
2.305315440E1,-3.252222061E0,1.629938483E-1,1.267895699E0,3.494434837E0
2.306995142E1,-3.435281277E0,-1.286173105E0,-4.142433405E-1,3.691476162E0
2.308676160E1,-3.141961098E0,-1.350729227E0,-5.483392477E-1,3.463677946E0
2.310356814E1,-2.659047604E0,-1.602349281E0,-7.748769522E-1,3.199764315E0
2.312038463E1,-1.651870728E0,-1.741054058E0,-1.218612432E0,2.691646781E0
2.313718150E1,-8.982114792E-1,-1.719650507E0,-1.789374352E0,2.639288218E0
2.315399862E1,-6.840553284E-1,-1.575314403E0,-2.648901463E0,3.156933024E0
2.317080370E1,-6.853265762E-1,-3.174737692E-1,-2.150719404E0,2.279485921E0
2.318760931E1,-9.970169067E-1,5.574846268E-1,-1.383464932E0,1.794103409E0
2.320442113E1,-1.089969635E0,5.406329036E-1,-6.583880186E-1,1.383398903E0
2.322122749E1,-1.001996994E0,7.359509468E-1,-2.358029485E-1,1.265395117E0
2.323803477E1,-8.113260269E-1,1.245582342E0,-4.224849939E-1,1.545386315E0
2.325484310E1,-5.920276642E-1,1.817372680E0,-6.284028292E-1,2.012021453E0
2.327165062E1,-6.072778702E-1,2.387330770E0,-1.147026181E0,2.717315528E0
2.328846733E1,-1.086785316E0,2.493309259E0,-2.054244995E0,3.408462393E0
2.330526943E1,-8.778533936E-1,1.190412402E0,-3.870321989E0,4.143319993E0
2.332207559E1,-6.677055359E-2,-4.795286059E-2,-4.331936836E0,4.332716762E0
2.333888345E1,5.499801636E-1,6.958834529E-1,-3.233702183E0,3.353142074E0
2.335569416E1,1.609260559E0,1.789434910E0,-2.035883665E0,3.152240337E0
2.337250119E1,2.287568092E0,1.535748839E0,-1.539246559E0,3.156069113E0
2.338930892E1,2.471785545E0,1.385939479E0,-3.145658970E0,4.233877936E0
2.340610527E1,2.968954086E0,2.586903334E0,-3.312439919E0,5.145776466E0
2.342292538E1,4.462027550E0,4.593811035E0,-3.407065868E-1,6.413179450E0
2.343972788E1,5.607944489E0,5.647188663E0,2.141237497E0,8.241642992E0
2.345654004E1,5.578815460E0,4.039307117E0,2.135249138E0,7.210996659E0
2.347333769E1,2.918088913E0,1.584623098E0,1.022196293E0,3.474357283E0
2.349016828E1,-2.098083496E-1,7.235279679E-1,6.025479436E-1,9.646638214E-1
2.350695416E1,-2.095643520E0,1.180717945E0,7.465463877E-1,2.518560728E0
2.352376806E1,-2.052072525E0,7.205438614E-1,1.132807493E0,2.452231213E0
2.354058793E1,-7.288484573E-1,2.714582682E-1,2.972656250E0,3.072717827E0
2.355738979E1,1.591396332E-2,1.443611681E-1,4.556459904E0,4.558773986E0
2.357420535E1,2.994508743E-1,-1.592658281E0,4.670285225E0,4.943459852E0
2.359100320E1,-2.111787796E-1,2.202773392E-1,4.888210297E0,4.897725849E0
2.360781715E1,-4.659118652E-1,-1.418491125E0,4.319091320E0,4.569873168E0
2.362462144E1,-7.158784866E-1,-2.075380325E0,1.667289376E0,2.756726204E0
2.364143725E1,-1.341780663E0,-8.525724411E-1,3.479259312E-1,1.627362150E0
2.365823420E1,-1.849832058E0,4.543817639E-1,-5.493255258E-1,1.982447972E0
2.367504844E1,-2.037515640E0,8.676712513E-1,-2.834744453E-1,2.232639950E0
2.369185995E1,-1.997421741E0,1.495115995E0,1.511820674E0,2.917304784E0
2.370866319E1,-2.086837769E0,1.506498098E0,3.197999477E0,4.105073574E0
2.372547163E1,-2.433786392E0,2.227410316E0,4.389080048E0,5.490782875E0
2.374228072E1,-2.808230877E0,3.675932884E0,5.348825455E0,7.071674269E0
2.375908924E1,-2.767837524E0,3.311598778E0,1.928791046E0,4.727350836E0
2.377589642E1,-1.997959614E0,1.343177795E0,2.783700943E0,3.680347830E0
2.379270373E1,-1.659610748E0,6.843727827E-2,1.714235544E0,2.386963552E0
2.380951433E1,-1.493732452E0,-4.582216740E-1,4.701705575E-1,1.631644598E0
2.382633959E1,-1.349874496E0,-6.273843646E-1,1.468249857E-1,1.495770662E0
2.384312871E1,-1.299382210E0,-8.363975286E-1,5.129059553E-1,1.628197615E0
2.385993982E1,-1.069785118E0,-1.170830250E0,-8.930608630E-3,1.585989732E0
2.387674474E1,1.416778564E-2,-1.139042974E0,-2.536951303E0,2.780960542E0
2.389355442E1,1.952194214E0,-4.906550646E-1,-5.078529835E0,5.462899406E0
2.391036171E1,4.119033813E0,4.049384594E-2,-6.929494381E0,8.061387702E0
2.392716746E1,5.357919693E0,2.070312500E0,-4.205502510E0,7.118971038E0
2.394398160E1,4.589076996E0,4.546297073E0,-4.419814110E0,7.827081290E0
2.396078581E1,2.164590836E0,5.229464531E0,-3.567301750E0,6.690171488E0
2.397759203E1,-2.092445850E0,4.322588444E0,-3.903531313E0,6.188752475E0
2.399440676E1,7.371520996E-2,2.965607643E0,2.051327705E0,3.606689338E0
2.401121184E1,4.181355476E0,-1.625182927E-1,5.770519733E0,7.128046283E0
2.402801953E1,7.106245041E0,-1.359926462E0,2.665448189E0,7.710559812E0
2.404482502E1,6.227460861E0,-1.223450661E0,9.126302600E-1,6.411785577E0
2.406164366E1,2.801179886E0,1.211210787E-1,1.785905838E0,3.324265141E0
2.407843607E1,2.097597122E-1,1.660457850E0,5.137485027E0,5.403227907E0
2.409524909E1,-1.458148003E0,3.224436045E0,3.196882725E0,4.768987582E0
2.411205859E1,-2.943064690E0,3.360000849E0,8.937392235E-1,4.555217368E0
2.412886781E1,-3.814848423E0,2.766970873E0,2.087288141E0,5.154218475E0
2.414566261E1,-3.624817371E0,1.283348083E0,4.278594971E0,5.752621855E0
2.416248378E1,-4.131405830E0,-4.774627686E-1,4.597497463E0,6.199473184E0
2.417929463E1,-4.509864330E0,-1.782716393E0,3.032110929E0,5.719322574E0
2.419610650E1,-4.128623486E0,-2.251472235E0,9.281549454E-1,4.793342332E0
2.421291040E1,-3.095107079E0,-2.388186932E0,7.849121094E-2,3.910151598E0
2.422971620E1,-1.871753693E0,-1.842791080E0,-6.104942560E-1,2.696672781E0
2.424652360E1,-6.408920288E-1,-1.619651437E0,-5.874308348E-1,1.838229680E0
2.426333624E1,2.654199600E-1,-1.761767387E0,-9.014072418E-1,1.996699050E0
2.428014501E1,7.972602844E-1,-1.644170880E0,-2.134772301E0,2.810013278E0
2.429694959E1,1.080180168E0,-7.353614569E-1,-2.878479242E0,3.161200471E0
2.431375940E1,9.907083511E-1,1.042449027E-1,-2.790922403E0,2.963379473E0
2.433056752E1,4.838085175E-1,5.288413763E-1,-1.636534214E0,1.786613589E0
2.434738429E1,-9.639167786E-2,8.824436069E-1,-2.122565508E-1,9.127162309E-1
2.436418241E1,-5.810794830E-1,1.315233469E0,9.681024551E-1,1.733411321E0
2.438098396E1,-9.841642380E-1,1.847310901E0,8.061082363E-1,2.242977329E0
2.439779845E1,-1.367841721E0,2.254399776E0,-4.736486673E-1,2.679114104E0
2.441459981E1,-1.517197609E0,2.440901995E0,-1.849827051E0,3.417857699E0
2.443141817E1,-8.585815430E-1,2.463981152E0,-2.953978539E0,3.941364559E0
2.444822013E1,1.329202652E-1,3.109302521E0,-3.896430016E0,4.986742106E0
2.446502877E1,1.352599144E0,3.560330868E0,-2.830995321E0,4.745525771E0
2.448184238E1,2.265221596E0,2.854505539E0,-3.005714893E0,4.723743512E0
2.449864745E1,2.825194359E0,2.603995323E0,-3.800944328E0,5.404599208E0
2.451546951E1,3.160382271E0,2.543517590E0,-3.167405128E0,5.146839134E0
2.453226477E1,3.705943108E0,2.745401382E0,-1.785195589E0,4.945519827E0
2.454907094E1,4.564752579E0,2.999779940E0,-1.288936138E-1,5.463722115E0
2.456588423E1,4.656609535E0,3.091037035E0,1.472651958E0,5.779898451E0
2.458269216E1,3.318298340E0,2.269728184E0,2.161264420E0,4.564409468E0
2.459949868E1,1.547564507E0,1.110548735E0,2.477735519E0,3.125291618E0
2.461630682E1,-2.888212204E-1,8.464813232E-1,2.159749508E0,2.337619786E0
2.463311307E1,-1.716187477E0,1.003150463E0,2.099166155E0,2.891039407E0
2.464992190E1,-2.543354034E0,9.707818031E-1,2.214043379E0,3.508996315E0
2.466672899E1,-2.574092865E0,7.286419868E-1,2.402138233E0,3.595433397E0
2.468353765E1,-2.267222404E0,5.213885307E-1,2.998328924E0,3.795012486E0
2.470034775E1,-1.873688698E0,-1.488713324E-1,3.580171824E0,4.043575435E0
2.471716125E1,-1.648961067E0,-3.852308393E-1,4.370540142E0,4.687120282E0
2.473396151E1,-1.316769600E0,-2.525108457E-1,3.674941540E0,3.911884358E0
2.475077069E1,-9.439315796E-1,2.970116138E-1,2.307474375E0,2.510709206E0
2.476757850E1,-8.849220276E-1,1.103629947E0,1.578062534E0,2.119284647E0
2.478438803E1,-1.044137955E0,1.963175535E0,1.161118388E0,2.508481246E0
2.480119178E1,-7.147378922E-1,2.361819267E0,-5.954810381E-1,2.538432227E0
2.481800626E1,-6.122188568E-1,2.719386578E0,1.073385954E0,2.986977183E0
2.483479925E1,-6.025152206E-1,2.259498596E0,3.424509525E0,4.146760662E0
2.485162237E1,-9.765233994E-1,1.876430392E0,3.456753254E0,4.052620390E0
2.486841569E1,-1.288354874E0,9.001929164E-1,2.734273195E0,3.153800164E0
2.488523437E1,-1.655990601E0,-7.822346687E-2,2.287739515E0,2.825274477E0
2.490203498E1,-1.993451595E0,-6.187617779E-1,1.808665991E0,2.761881255E0
2.491885266E1,-2.270555019E0,-9.296059608E-1,1.347606182E0,2.799219491E0
2.493565972E1,-2.407587051E0,-8.427150249E-1,6.235631704E-1,2.625923657E0
2.495246827E1,-2.068784714E0,-8.500043154E-1,-2.064490318E-1,2.246107462E0
2.496927760E1,-1.086585999E0,-9.392147064E-1,-5.213372707E-1,1.527935191E0
2.498608379E1,-1.549930573E-1,-7.394044399E-1,-4.818384349E-1,8.960524823E-1
2.500289604E1,5.689010620E-1,8.069232702E-1,-1.035426497E0,1.430692704E0
2.501970073E1,2.016578674E0,2.565828562E0,-2.839336872E0,4.325725330E0
2.503651265E1,4.236822128E0,3.659644604E0,-5.980839252E0,8.192319485E0
2.505331598E1,5.605411530E0,4.794578552E0,-5.551546574E0,9.231916988E0
2.507011328E1,5.141809464E0,5.858325958E0,-4.668969631E0,9.086113856E0
2.508693738E1,2.123958588E0,5.350805759E0,-2.248839617E0,6.180582657E0
2.510373976E1,-2.458738327E0,3.284639597E0,-4.167616367E-1,4.124068586E0
2.512055291E1,-1.299479485E0,2.958334923E0,8.933136463E-1,3.352372550E0
2.513735318E1,1.822023392E0,5.899056792E-2,5.845704079E0,6.123357355E0
2.515416751E1,4.025238991E0,-8.322208524E-1,3.808619499E0,5.603634800E0
2.517097649E1,5.088309288E0,-1.440614820E0,1.169478893E0,5.416081919E0
2.518778262E1,4.363609314E0,-3.132534027E0,-1.520754814E0,5.582701038E0
2.520459201E1,1.829168320E0,-1.121133566E0,2.835175514E0,3.555420849E0
2.522140170E1,5.532646179E-1,-2.193946540E-1,5.163015842E0,5.197207745E0
2.523820855E1,-1.251332283E0,4.089305997E-1,4.281514168E0,4.479332572E0
2.525501445E1,-3.419589996E0,1.765829206E0,3.616650343E0,5.281279033E0
2.527182485E1,-4.687995911E0,8.236209750E-1,3.641681194E0,5.993120981E0
2.528861136E1,-5.354222298E0,-1.992501169E-1,1.797173500E0,5.651303355E0
2.530542922E1,-5.213332176E0,3.775149584E-1,1.191522479E0,5.361070391E0
2.532224436E1,-4.310722828E0,-7.205829024E-2,1.595518351E0,4.597086306E0
2.533905416E1,-2.630390167E0,-9.965381026E-1,1.343560338E0,3.117241570E0
2.535585408E1,-1.119112968E0,-1.622399926E0,1.261306882E0,2.339976583E0
2.537267273E1,-7.577486038E-1,-1.531627178E0,6.469107866E-1,1.827172221E0
2.538948102E1,-6.878652573E-1,-1.269721866E0,-7.328482270E-1,1.619388388E0
2.540628602E1,-4.698667526E-1,-1.263438582E0,-1.738063812E0,2.199526684E0
2.542310353E1,-3.809900284E-1,-9.373967648E-1,-1.960285187E0,2.206033569E0
2.543990532E1,-4.758863449E-1,-2.514125109E-1,-1.771800876E0,1.851743613E0
2.545671401E1,-6.164178848E-1,2.871937752E-1,-1.752884388E0,1.880174181E0
2.547351986E1,-6.231241226E-1,6.333121061E-1,-1.817421913E0,2.022965721E0
2.549033406E1,-3.521661758E-1,1.206414938E0,-1.977261901E0,2.342866331E0
2.550713616E1,1.132345200E-1,2.125010490E0,-1.620970249E0,2.675076857E0
2.552395113E1,4.591035843E-1,2.865229368E0,-4.402170181E-1,2.934979805E0
2.554075543E1,3.273773193E-1,3.606307507E0,-2.328848839E-1,3.628617521E0
2.555755969E1,-4.586219788E-2,4.254208088E0,-2.247303963E0,4.811524176E0
2.557437268E1,4.728193283E-1,3.972706556E0,-5.011617661E0,6.412664585E0
2.559118095E1,1.959949493E0,3.814800739E0,-5.249465466E0,6.778716278E0
2.560798662E1,3.104694366E0,2.216374397E0,-6.653220654E0,7.669210366E0
2.562479612E1,3.198833466E0,-5.304939747E-1,-6.693428993E0,7.437469401E0
2.564160316E1,4.700691223E0,6.045184731E-1,-1.140094757E0,4.874603226E0
2.565841404E1,6.305987358E0,3.664734602E0,3.601581097E0,8.134318820E0
2.567522481E1,5.951667786E0,2.923448324E0,3.971731424E0,7.729395193E0
2.569202776E1,2.815567970E0,5.034579709E-2,5.844049454E-1,2.876019269E0
2.570883588E1,3.079509735E-2,4.168544412E-1,-6.616631150E-2,4.231949243E-1
2.572564769E1,-1.217057228E0,1.026579261E0,1.143976450E0,1.960554869E0
2.574246558E1,-8.923358917E-1,7.766914368E-1,3.947338104E0,4.120799806E0
2.575927375E1,-3.349761963E-1,3.299489617E-2,5.509803772E0,5.520075663E0
2.577606972E1,-9.275760651E-1,-5.607581139E-2,5.422117710E0,5.501172813E0
2.579287803E1,-1.963345051E0,2.038672864E-1,4.655212879E0,5.056411040E0
2.580968702E1,-2.853685379E0,6.290625930E-1,3.477776051E0,4.542484590E0
2.582649482E1,-3.289305210E0,8.999436498E-1,3.406332493E0,4.820013318E0
2.584328968E1,-3.507848740E0,1.135132074E0,2.626223087E0,4.526651667E0
2.586010998E1,-3.386072159E0,1.210849285E0,1.461303949E0,3.881629798E0
2.587692085E1,-3.104341507E0,1.433258772E0,1.452763081E-1,3.422319696E0
2.589372115E1,-2.304156780E0,1.520471334E0,-6.415694952E-1,2.834181181E0
2.591053934E1,-1.329632759E0,1.824736476E0,-7.955694795E-1,2.393849886E0
2.592734496E1,-9.882564545E-1,2.086416006E0,1.770639420E-1,2.315412320E0
2.594414971E1,-7.079277039E-1,1.213397026E0,1.440096855E0,2.011808373E0
2.596095830E1,-5.180616379E-1,2.937967181E-1,2.115071535E0,2.197323820E0
2.597776669E1,-9.040737152E-1,-1.116474867E-1,1.239159584E0,1.537963237E0
2.599457593E1,-1.469603539E0,-5.321761370E-1,7.577034831E-2,1.564828152E0
2.601138400E1,-2.122995377E0,-6.888659000E-1,-1.069824457E0,2.475110092E0
2.602819104E1,-2.364127636E0,-1.041973829E0,-1.718879342E0,3.103120225E0
2.604500072E1,-2.259895802E0,-1.306039572E0,-1.257950902E0,2.897465939E0
2.606180901E1,-1.745272636E0,-1.631161451E0,2.364510298E-2,2.388979562E0
2.607861514E1,-9.047718048E-1,-1.876032472E0,7.670091987E-1,2.219552424E0
2.609542615E1,9.000587463E-2,-7.979958057E-1,-8.520374298E-1,1.170839932E0
2.611223157E1,1.746788979E0,1.028341770E0,-4.205270767E0,4.668303842E0
2.612904164E1,3.355361938E0,2.996810913E0,-7.084768295E0,8.392453228E0
2.614584746E1,4.388571739E0,5.397595882E0,-7.139466763E0,9.968228974E0
2.616265621E1,2.258049965E0,6.438773155E0,-5.504554272E0,8.766795716E0
2.617946701E1,-3.498160839E0,4.793814182E0,-1.073283768E1,1.226424022E1
2.619626178E1,2.947282791E-1,2.723154545E0,-8.479239941E-1,2.867300217E0
2.621307999E1,6.250349998E0,-1.781684875E0,8.379430771E0,1.060453375E1
2.622989048E1,9.997337341E0,-3.369148254E0,8.637003899E0,1.363435918E1
2.624669762E1,8.593980789E0,-1.447146177E0,5.446385384E0,1.027686001E1
2.626349727E1,5.618236542E0,-2.784371376E0,6.309260130E-1,6.302013443E0
2.628031080E1,9.978666306E-1,-3.134063959E0,-2.261584282E0,3.991598449E0
2.629711316E1,-2.782122135E0,-2.320627451E0,-1.357095242E-1,3.625456167E0
2.631393132E1,-4.980609894E0,-6.334467530E-1,4.142069817E0,6.508799587E0
2.633073860E1,-4.722290039E0,-3.387963772E-2,6.723111153E0,8.215923236E0
2.634755555E1,-3.869507790E0,-7.249522209E-1,4.895220757E0,6.281865369E0
2.636435840E1,-3.427918434E0,-1.659697056E0,3.483197451E0,5.161190133E0
2.638116407E1,-2.977978230E0,-2.517709494E0,1.481714964E0,4.171653709E0
2.639797363E1,-2.574941635E0,-2.348167181E0,1.468639374E-1,3.487948186E0
2.641477534E1,-1.935908318E0,-1.708005190E0,-9.932138324E-1,2.766133847E0
2.643159135E1,-1.415965080E0,-1.255485058E0,-2.008247375E0,2.759394383E0
2.644839178E1,-1.192978859E0,-1.312587738E0,-2.135974169E0,2.776413294E0
2.646520679E1,-1.304416656E0,-1.590064645E0,-1.082296371E0,2.324042561E0
2.648200937E1,-1.940150738E0,-1.478901625E0,-3.616414368E-1,2.466195335E0
2.649881883E1,-2.613585472E0,-1.180387020E0,-2.978568971E-1,2.883203300E0
2.651562997E1,-2.905386925E0,-3.256262541E-1,-1.026036143E-1,2.925377436E0
2.653243078E1,-2.753125191E0,1.971957684E-1,-4.310339689E-1,2.793631108E0
2.654926853E1,-2.261781693E0,6.288099289E-1,-5.671734810E-1,2.415107474E0
2.656605604E1,-1.680216312E0,1.371042371E0,3.321111202E-2,2.168867681E0
2.658286128E1,-1.205698967E0,2.253653049E0,8.331983089E-1,2.688285976E0
2.659966959E1,-9.173784256E-1,2.780896187E0,5.704685450E-1,2.983354008E0
2.661647658E1,-3.577356339E-1,2.512443304E0,-8.670008183E-1,2.681797263E0
2.663328667E1,4.907598495E-1,7.920599580E-1,-2.613967896E0,2.775073398E0
2.665009429E1,2.082489014E0,-3.936126530E-1,-5.021430016E0,5.450362448E0
2.666690119E1,3.699346542E0,-3.347252905E-1,-6.915610313E0,7.850023686E0
2.668370005E1,4.568748474E0,1.054197550E-1,-6.795803070E0,8.189475887E0
2.670052145E1,4.371645927E0,-7.764127254E-1,-5.961203098E0,7.433037550E0
2.671732499E1,4.833369255E0,1.464521289E-1,-2.586808920E0,5.484021058E0
2.673413374E1,5.818088531E0,2.019129992E0,1.272684574E0,6.288621956E0
2.675093100E1,5.879023552E0,2.052305222E0,2.747770309E0,6.806255675E0
2.676774690E1,3.226962090E0,1.374633312E-1,1.285811186E0,3.476419264E0
2.678456004E1,3.893241882E-1,9.598824382E-1,1.079988480E0,1.496436679E0
2.680136617E1,-6.727685928E-1,1.404920816E0,2.666609049E0,3.088239612E0
2.681817503E1,-3.705282211E-1,-5.187178850E-1,5.708021641E0,5.743506808E0
2.683498138E1,-4.060344696E-1,-1.357620597E0,6.788777351E0,6.935091607E0
2.685179258E1,-9.357986450E-1,-8.986027241E-1,4.479516029E0,4.663611242E0
2.686859602E1,-1.159037590E0,-1.738432527E0,1.831313848E0,2.778349545E0
2.688541473E1,-1.182643890E0,-2.814777613E0,1.326847076E0,3.328985242E0
2.690221694E1,-1.172075272E0,-3.198128462E0,-7.161302567E-1,3.480607511E0
2.691902237E1,-1.198786736E0,-1.989756227E0,-1.598697424E0,2.819938462E0
2.693583240E1,-1.898393631E0,-9.721850753E-1,-2.079768658E0,2.979006524E0
2.695262846E1,-3.031041145E0,6.159466505E-2,-3.342088461E-1,3.050032767E0
2.696943786E1,-3.891319752E0,7.850580215E-1,6.598186493E-1,4.024182669E0
2.698625629E1,-4.050344944E0,1.155293465E0,1.414416194E0,4.443036161E0
2.700306456E1,-4.107107639E0,1.776988506E0,1.920547962E0,4.869756235E0
2.701987363E1,-3.889265060E0,1.935352564E0,1.555485129E0,4.614272017E0
2.703667980E1,-3.704057217E0,2.005459785E0,1.302641869E0,4.408943712E0
2.705348865E1,-3.160389900E0,1.152638316E0,1.262435436E0,3.593102091E0
2.707029872E1,-2.347715855E0,4.332257211E-1,2.870821953E-1,2.404552026E0
2.708710897E1,-1.670535088E0,3.033021092E-2,-1.053321719E0,1.975118742E0
2.710391266E1,-9.444990158E-1,-4.231012166E-1,-2.059423685E0,2.304846838E0
2.712072113E1,3.369731903E-1,-9.833844900E-1,-2.283845186E0,2.509291697E0
2.713751905E1,1.594283104E0,-6.293282509E-1,-1.746023417E0,2.446710125E0
2.715433805E1,2.591135025E0,1.204540208E-1,-2.623525858E0,3.689360082E0
2.717113517E1,3.573126793E0,3.593046665E-1,-5.234932423E0,6.348295235E0
2.718795403E1,3.971784592E0,2.031985521E0,-3.818066835E0,5.872109703E0
2.720474799E1,1.922625542E0,7.476270795E-1,9.552038908E-1,2.273290500E0
2.722157133E1,-1.864089489E0,-2.057177544E0,-8.152622223E0,8.612320139E0
2.723837811E1,2.066375732E0,-3.678488970E0,-9.808504105E0,1.067745019E1
2.725518500E1,5.674690247E0,-3.570854902E0,7.336896658E-1,6.744732363E0
2.727199958E1,7.651982307E0,-3.206703663E0,9.373081207E0,1.251760492E1
2.728880220E1,6.448280334E0,-3.408087790E-1,8.789903641E0,1.090682703E1
2.730560982E1,2.965649605E0,1.115131617E0,2.918672800E0,4.307812324E0
2.732242659E1,5.332746506E-1,-8.813809156E-1,-2.355056047E0,2.570506401E0
2.733923189E1,-1.143475533E0,-1.197881103E0,-2.392497778E0,2.909725253E0
2.735603592E1,-1.826052666E0,1.358290076E0,3.085012913E0,3.833630778E0
2.737284310E1,-1.395620346E0,1.968709946E0,7.542231560E0,7.918890825E0
2.738965362E1,-1.861401558E0,1.700031996E0,7.814476013E0,8.211026727E0
2.740646451E1,-3.237815857E0,1.181635857E0,5.848885536E0,6.788901004E0
2.742326739E1,-4.352969646E0,-2.011061311E-1,2.883988619E0,5.225531434E0
2.744007612E1,-4.438968658E0,-1.645996332E0,9.220950603E-1,4.823277514E0
2.745688393E1,-4.637909889E0,-3.609616160E-1,7.239341736E-1,4.707927582E0
2.747369395E1,-4.164451599E0,-1.815037131E-1,-9.228694439E-1,4.269342892E0
2.749049985E1,-3.067914963E0,-2.748433352E-1,-2.120210648E0,3.739376187E0
2.750730869E1,-2.074734688E0,-6.818995476E-1,-2.636778355E0,3.423756871E0
2.752411829E1,-1.518527985E0,-1.072561979E0,-2.665397882E0,3.249717266E0
2.754092636E1,-1.490932465E0,-9.435540438E-1,-2.726900578E0,3.247947137E0
2.755773222E1,-2.037552834E0,-6.390854120E-1,-2.567840099E0,3.339738686E0
2.757454248E1,-2.365325928E0,-5.159621239E-1,-1.952441692E0,3.110146656E0
2.759134990E1,-2.291621685E0,-1.815924048E-1,-8.898887634E-1,2.465037071E0
2.760816396E1,-1.874085426E0,2.505877018E-1,2.066249847E-1,1.902021100E0
2.762496490E1,-1.205087662E0,1.055264473E0,3.412876129E-1,1.637771845E0
2.764177535E1,-5.438737869E-1,2.113990307E0,-4.914219379E-1,2.237464913E0
2.765857039E1,9.207820892E-2,2.590466976E0,-2.600229502E0,3.671537963E0
2.767539110E1,1.157064438E0,2.517391205E0,-5.067368507E0,5.775316457E0
2.769218625E1,2.388478279E0,2.819444180E0,-5.470916748E0,6.601895488E0
2.770900285E1,3.017444611E0,2.970056534E0,-4.358821869E0,6.076638534E0
2.772581917E1,3.319887161E0,3.554520369E0,-2.222129107E0,5.347347341E0
2.774262074E1,3.176789284E0,2.527479172E0,-1.272940755E0,4.254470506E0
