"Time (s)","Linear Acceleration x (m/s^2)","Linear Acceleration y (m/s^2)","Linear Acceleration z (m/s^2)","Absolute acceleration (m/s^2)"
2.329923300E-2,8.428919911E-1,1.453589946E-1,1.828691006E0,2.018838017E0
2.822139200E-2,8.428919911E-1,1.453589946E-1,1.828691006E0,2.018838017E0
3.314377500E-2,8.428919911E-1,1.453589946E-1,1.828691006E0,2.018838017E0
3.806600700E-2,8.428919911E-1,1.453589946E-1,1.828691006E0,2.018838017E0
4.298840900E-2,8.428919911E-1,1.453589946E-1,1.828691006E0,2.018838017E0
4.791056500E-2,8.428919911E-1,1.453589946E-1,1.828691006E0,2.018838017E0
5.283279400E-2,8.428919911E-1,1.453589946E-1,1.828691006E0,2.018838017E0
5.775515400E-2,8.428919911E-1,1.453589946E-1,1.828691006E0,2.018838017E0
6.267738700E-2,8.428919911E-1,1.453589946E-1,1.828691006E0,2.018838017E0
6.759984700E-2,8.428919911E-1,1.453589946E-1,1.828691006E0,2.018838017E0
7.252198800E-2,8.428919911E-1,1.453589946E-1,1.828691006E0,2.018838017E0
7.744437000E-2,8.428919911E-1,1.453589946E-1,1.828691006E0,2.018838017E0
8.236660300E-2,8.428919911E-1,1.453589946E-1,1.828691006E0,2.018838017E0
8.728894700E-2,8.428919911E-1,1.453589946E-1,1.828691006E0,2.018838017E0
9.221117900E-2,8.428919911E-1,1.453589946E-1,1.828691006E0,2.018838017E0
9.713356200E-2,8.428919911E-1,1.453589946E-1,1.828691006E0,2.018838017E0
1.020558100E-1,4.685429931E-1,2.796968937E0,-4.375970066E-1,2.869504994E0
1.069779640E-1,6.182129979E-1,2.996541023E0,-2.795100026E-2,3.059775592E0
1.119003460E-1,7.695940137E-1,3.199055910E0,1.868669987E-1,3.295626335E0
1.168225640E-1,1.165915012E0,3.215357065E0,6.944779754E-1,3.490011251E0
1.217449470E-1,1.454534054E0,3.110948086E0,1.015202045E0,3.581103531E0
1.266671790E-1,1.629897952E0,3.087795973E0,9.375420213E-1,3.615250523E0
1.315895430E-1,1.705283046E0,3.270236969E0,5.350800157E-1,3.726761426E0
1.365117760E-1,1.748347044E0,3.491705894E0,1.685079932E-1,3.908595961E0
1.414341580E-1,1.837142944E0,3.645787954E0,-1.767099947E-1,4.086329701E0
1.463562660E-1,2.223666906E0,3.638509989E0,-6.004920006E-1,4.306279147E0
1.512784950E-1,2.828543901E0,3.294398069E0,-4.370560050E-1,4.364027634E0
1.562008470E-1,3.123302937E0,2.757278919E0,3.976530135E-1,4.185180545E0
1.611230790E-1,3.296051025E0,2.186172962E0,1.436810017E0,4.208055086E0
1.660454620E-1,3.392235041E0,1.562630057E0,2.170198917E0,4.319587319E0
1.709676310E-1,3.691471100E0,1.009132028E0,2.436028957E0,4.536468165E0
1.758900910E-1,4.244841099E0,3.520979881E-1,2.643726110E0,5.013176308E0
1.808122460E-1,5.084706783E0,-2.831439972E-1,2.663285017E0,5.746955775E0
1.857344540E-1,5.684635162E0,-7.960119843E-1,2.468667030E0,6.248442119E0
1.906569140E-1,5.893781185E0,-1.110471010E0,2.099634886E0,6.354389756E0
1.955792980E-1,6.076055050E0,-1.423256993E0,1.567474008E0,6.434367118E0
2.005015310E-1,6.088654995E0,-1.957767963E0,1.043256998E0,6.480197544E0
2.054239140E-1,6.068873882E0,-2.537442923E0,4.874500036E-1,6.596018063E0
2.103460540E-1,6.377447128E0,-3.215502024E0,-1.178509966E-1,7.143190743E0
2.152682830E-1,6.607304096E0,-3.899861097E0,-6.341159940E-1,7.698537984E0
2.201906670E-1,6.770676136E0,-4.526957989E0,-1.159494996E0,8.226775347E0
2.251128910E-1,7.017673016E0,-5.012084961E0,-1.587407947E0,8.768614155E0
2.300352730E-1,7.194958210E0,-5.251633167E0,-1.740282059E0,9.076103581E0
2.349575060E-1,7.280315876E0,-5.120244980E0,-1.550340056E0,9.034570394E0
2.398799080E-1,7.467055798E0,-4.624707222E0,-1.140826941E0,8.856993016E0
2.448021410E-1,7.566907883E0,-3.845431089E0,-7.540559769E-1,8.521386952E0
2.497245370E-1,6.554433823E0,-3.352494001E0,-5.759000033E-2,7.362277866E0
2.546467700E-1,5.681940079E0,-3.342503071E0,1.049602032E0,6.675210428E0
2.595691530E-1,5.205202103E0,-3.018878937E0,1.762820005E0,6.270190853E0
2.644912940E-1,4.663759232E0,-2.437650919E0,2.212671995E0,5.708652164E0
2.694135230E-1,4.113996029E0,-1.734925032E0,2.850224018E0,5.297046832E0
2.743356740E-1,3.421930075E0,-1.179718971E0,3.410795927E0,4.973416446E0
2.792581340E-1,2.649104118E0,-8.110520244E-1,3.895633936E0,4.780326535E0
2.841805370E-1,2.038780928E0,-6.554419994E-1,4.008037090E0,4.544292376E0
2.891027700E-1,1.765661955E0,-6.562550068E-1,3.852113008E0,4.288007393E0
2.940251530E-1,1.506371975E0,-7.813919783E-1,3.568552971E0,3.951493421E0
2.989473190E-1,1.103870988E0,-9.416679740E-1,3.165395021E0,3.482096405E0
3.038695470E-1,5.639520288E-1,-1.196452975E0,2.645746946E0,2.957958505E0
3.087919320E-1,-4.623800144E-2,-1.483345985E0,2.007462978E0,2.496469682E0
3.137141790E-1,-8.740209937E-1,-1.785595059E0,1.252856016E0,2.349874595E0
3.186365610E-1,-1.643005967E0,-2.013492107E0,6.668279767E-1,2.682960795E0
3.235587940E-1,-2.303801060E0,-2.089467049E0,2.848440111E-1,3.123220770E0
3.284811580E-1,-2.849718094E0,-2.119613886E0,-2.610800043E-2,3.551666914E0
3.334033910E-1,-3.385823011E0,-2.012917042E0,-4.978660047E-1,3.970327825E0
3.383255290E-1,-4.102232933E0,-1.831418037E0,-1.225432992E0,4.656618202E0
3.432479120E-1,-5.039094925E0,-1.608289003E0,-2.394126892E0,5.806110123E0
3.481701410E-1,-6.395855904E0,-1.307500958E0,-4.234927177E0,7.781461283E0
3.530925230E-1,-6.783382893E0,-1.158200979E0,-6.373851776E0,9.379856046E0
3.580147600E-1,-6.284586906E0,-1.120795965E0,-7.696320057E0,9.999277904E0
3.629371430E-1,-5.485792160E0,-1.237102032E0,-7.477706909E0,9.356304702E0
3.678593760E-1,-6.034368038E0,-1.264246941E0,-6.622467041E0,9.048148300E0
3.727815350E-1,-7.133609772E0,-1.671623945E0,-5.520246983E0,9.173649314E0
3.777039940E-1,-6.948965073E0,-2.319541931E0,-4.225829124E0,8.457305844E0
3.826263790E-1,-6.794252872E0,-2.991564035E0,-3.080836058E0,8.037591573E0
3.875486250E-1,-6.166199207E0,-3.643831968E0,-2.162818909E0,7.481798561E0
3.924710080E-1,-4.551239967E0,-4.256440163E0,-1.584493041E0,6.429750096E0
3.973932410E-1,-2.937303066E0,-4.890977859E0,-1.308459997E0,5.853330786E0
4.023153910E-1,-1.632863045E0,-5.446212769E0,-1.134598970E0,5.797826323E0
4.072377730E-1,-4.396409988E-1,-5.773087025E0,-1.157426000E0,5.904358809E0
4.121600060E-1,5.561580062E-1,-5.700204849E0,-1.189062953E0,5.849403197E0
4.170823890E-1,1.095083952E0,-5.092288017E0,-1.105756044E0,5.324781924E0
4.220045450E-1,1.065783024E0,-4.059309006E0,-9.486050010E-1,4.302758941E0
4.269270040E-1,6.141989827E-1,-2.749901056E0,-6.397870183E-1,2.889381186E0
4.318491600E-1,3.301860094E-1,-1.579218984E0,-2.339400053E-1,1.630240266E0
4.367713910E-1,-2.749719918E-1,-7.379400134E-1,2.844089866E-1,8.372893952E-1
4.416937440E-1,-8.495010138E-1,1.132059991E-1,7.821699977E-1,1.160283360E0
4.466162060E-1,-1.080917001E0,7.729740143E-1,1.248015046E0,1.823022749E0
4.515384390E-1,-1.389976978E0,1.201509953E0,1.493157029E0,2.367526152E0
4.564608020E-1,-1.589172959E0,1.635457993E0,1.778058052E0,2.891657652E0
4.613830350E-1,-1.449663043E0,1.962231994E0,2.010111094E0,3.161079554E0
4.663051890E-1,-1.296219945E0,2.171016932E0,2.119400978E0,3.299297072E0
4.712275720E-1,-1.021340013E0,2.201740980E0,1.942500949E0,3.108714960E0
4.761498040E-1,-1.106819987E0,2.245723009E0,1.706743002E0,3.030065015E0
4.810722060E-1,-1.211557984E0,2.149214983E0,1.368033051E0,2.821083519E0
4.859943620E-1,-1.262336969E0,2.028899908E0,1.173743963E0,2.662255501E0
4.909165910E-1,-1.317106962E0,1.889201045E0,9.792569876E-1,2.502557809E0
4.958389890E-1,-1.551365972E0,1.825533986E0,7.404360175E-1,2.507499992E0
5.007612220E-1,-1.668941021E0,1.839975953E0,2.766059935E-1,2.499477248E0
5.056836050E-1,-1.759001970E0,1.817227960E0,-4.257270098E-1,2.564692745E0
5.106060760E-1,-1.972813010E0,1.735262990E0,-8.683350086E-1,2.767152779E0
5.155283090E-1,-2.030390024E0,1.512181044E0,-1.118343949E0,2.767646717E0
5.204504630E-1,-2.015943050E0,1.430114985E0,-1.254701018E0,2.771918090E0
5.253728310E-1,-1.600116968E0,1.209079981E0,-1.378226995E0,2.433466327E0
5.302950630E-1,-1.429664016E0,1.019284964E0,-1.311575055E0,2.191599909E0
5.352174460E-1,-1.143450022E0,1.028612018E0,-9.895420074E-1,1.828855932E0
5.401396120E-1,-8.171319962E-1,1.153450966E0,-7.228689790E-1,1.587669169E0
5.450618410E-1,-4.327310026E-1,1.245424032E0,-6.048070192E-1,1.450561502E0
5.499842250E-1,-4.076139927E-1,1.522268057E0,-4.131880105E-1,1.629163447E0
5.549067010E-1,-6.049600244E-1,1.816452980E0,-1.596219987E-1,1.921186415E0
5.598288570E-1,-6.995109916E-1,2.120955944E0,-1.101600006E-2,2.233358703E0
5.647510870E-1,-7.126640081E-1,2.557888985E0,-1.036930010E-1,2.657336690E0
5.696735090E-1,-1.041550994E0,2.612404108E0,-1.312260032E-1,2.815440278E0
5.745957420E-1,-1.617558002E0,2.820909977E0,-6.687399745E-2,3.252460472E0
5.795181240E-1,-1.812080026E0,3.023211002E0,-2.281969935E-1,3.532069174E0
5.844403520E-1,-1.725744009E0,3.176173925E0,-5.840219855E-1,3.661605504E0
5.893627350E-1,-1.648121953E0,3.069057941E0,-1.064803004E0,3.642695164E0
5.942848720E-1,-1.542773008E0,2.862098932E0,-1.438568950E0,3.555452078E0
5.992073310E-1,-1.294762015E0,2.449953079E0,-1.874959946E0,3.345766514E0
6.041294870E-1,-9.613289833E-1,1.949895978E0,-2.103136063E0,3.024802314E0
6.090519470E-1,-4.467340112E-1,1.316676021E0,-1.901626945E0,2.355714765E0
6.139741070E-1,-3.221180141E-1,4.191119969E-1,-3.868969977E-1,6.550604306E-1
6.188962600E-1,-1.850640029E-1,-3.959519863E-1,1.998182058E0,2.045423721E0
6.238184890E-1,-2.186200023E-2,-1.238013029E0,5.613534927E0,5.748471848E0
6.287408940E-1,4.942710102E-1,-1.646191955E0,6.424345016E0,6.650297788E0
6.336631270E-1,1.223091006E0,-1.634315968E0,5.049193859E0,5.446218773E0
6.385855860E-1,2.073548079E0,-1.249770045E0,3.456459045E0,4.220027954E0
6.435079760E-1,2.523066998E0,-6.290959716E-1,2.325340986E0,3.488386377E0
6.484302090E-1,3.178519011E0,-2.582000010E-2,1.761991024E0,3.634317287E0
6.533525910E-1,3.666229010E0,6.301479936E-1,1.426321030E0,3.984057395E0
6.582747470E-1,3.927489996E0,1.148481965E0,1.355429053E0,4.310612069E0
6.631969760E-1,4.079370022E0,1.480913043E0,1.325160980E0,4.537666233E0
6.681193600E-1,3.802784920E0,1.703889966E0,1.473382950E0,4.419872337E0
6.730415160E-1,3.726027966E0,1.951661944E0,1.819102049E0,4.582728555E0
6.779637450E-1,3.828305006E0,2.097856045E0,2.202934980E0,4.889769088E0
6.828861300E-1,3.948326111E0,2.190900087E0,2.516280890E0,5.169235126E0
6.878083630E-1,3.730070114E0,2.245397091E0,2.532967091E0,5.036978602E0
6.927307450E-1,3.863111973E0,2.254376888E0,2.344892979E0,5.050185378E0
6.976529780E-1,4.337901115E0,2.107781887E0,2.105685949E0,5.262513077E0
7.025753610E-1,4.398381233E0,1.851114988E0,1.585965037E0,5.028684646E0
7.074975930E-1,4.212007999E0,1.668650985E0,1.012843966E0,4.642333508E0
7.124199420E-1,3.838439941E0,1.533998966E0,2.830809951E-1,4.143296859E0
7.173421750E-1,3.692203045E0,1.394127965E0,-2.000990063E-1,3.951707950E0
7.222645570E-1,3.277647018E0,1.179389000E0,-6.173629761E-1,3.537663839E0
7.271866940E-1,2.800306082E0,8.992729783E-1,-7.564880252E-1,3.036886592E0
7.321089230E-1,2.365022898E0,6.304399967E-1,-6.490650177E-1,2.532207198E0
7.370313080E-1,2.011658907E0,4.186600149E-1,-4.647139907E-1,2.106657746E0
7.419535400E-1,2.018069983E0,2.297019958E-1,-2.419580072E-1,2.045461595E0
7.468759230E-1,2.084292889E0,1.148799993E-2,6.029599905E-2,2.085196496E0
7.517980980E-1,1.963652968E0,-8.112700284E-2,5.883049965E-1,2.051491492E0
7.567203270E-1,1.878862977E0,-1.508350074E-1,1.079843998E0,2.172312212E0
7.616427880E-1,1.733050942E0,-1.190529987E-1,1.749112964E0,2.465164365E0
7.665651730E-1,1.788226962E0,-5.690199882E-2,2.186661959E0,2.825329012E0
7.714874060E-1,1.540004015E0,-2.019100077E-2,2.741313934E0,3.144331746E0
7.764097880E-1,1.304232001E0,2.939699963E-2,3.355406046E0,3.600088197E0
7.813319970E-1,9.377660155E-1,1.613840014E-1,3.836229086E0,3.952480676E0
7.862541510E-1,7.249979973E-1,3.497230113E-1,4.145798206E0,4.223218091E0
7.911765200E-1,9.115539789E-1,5.116410255E-1,4.479524136E0,4.599874311E0
7.960987520E-1,1.045307040E0,6.877800226E-1,4.667548180E0,4.832361139E0
8.010209200E-1,1.099799037E0,9.212340117E-1,4.652231216E0,4.868417126E0
8.059433800E-1,1.179669023E0,1.281613946E0,4.364284992E0,4.699057012E0
8.108657640E-1,1.408161044E0,1.556089997E0,3.959115982E0,4.480952239E0
8.157879100E-1,1.742879033E0,1.672690988E0,3.636910915E0,4.366078729E0
8.207101410E-1,1.699633002E0,1.758020997E0,3.352637053E0,4.149646416E0
8.256325240E-1,1.360759974E0,1.820716023E0,3.160121918E0,3.892691239E0
8.305549850E-1,9.175159931E-1,1.896515965E0,3.124895096E0,3.768763426E0
8.354772180E-1,6.065220237E-1,1.995532990E0,3.174578905E0,3.798417052E0
8.403996010E-1,4.161399901E-1,2.079890966E0,3.258717060E0,3.888232992E0
8.453218230E-1,3.090879917E-1,2.164377928E0,3.294238091E0,3.953741494E0
8.502439770E-1,2.699660063E-1,2.246881008E0,3.319691896E0,4.017674725E0
8.551661260E-1,5.157799721E-1,2.222939014E0,3.290364981E0,4.004246315E0
8.600885860E-1,9.132530093E-1,2.069072962E0,3.259505987E0,3.967300500E0
8.650107700E-1,1.150997996E0,1.945332050E0,3.091785908E0,3.829915570E0
8.699332300E-1,1.083969951E0,1.970384955E0,2.979799986E0,3.733177692E0
8.748556150E-1,8.619390130E-1,2.225291014E0,2.710396051E0,3.611247113E0
8.797778510E-1,4.357990026E-1,2.446358919E0,2.431895018E0,3.476881664E0
8.847002340E-1,3.181250095E-1,2.850089073E0,1.955067039E0,3.470806588E0
8.896224670E-1,9.416149855E-1,3.360982895E0,1.829170942E0,3.940648568E0
8.945448490E-1,1.142442942E0,3.602080107E0,1.777766943E0,4.176195909E0
8.994670820E-1,1.608533978E0,3.985491991E0,1.770601034E0,4.648285274E0
9.043892360E-1,1.951161981E0,4.273326874E0,1.931756973E0,5.079374041E0
9.093115900E-1,2.070417881E0,4.603997231E0,2.164793968E0,5.492700031E0
9.142338230E-1,2.251545906E0,4.848833084E0,2.383502007E0,5.853351438E0
9.191562050E-1,2.157588959E0,4.926376820E0,2.471843958E0,5.918985659E0
9.240784380E-1,1.951414943E0,4.941930771E0,2.490407944E0,5.867949535E0
9.290008410E-1,1.620916009E0,4.847634792E0,2.610122919E0,5.739309492E0
9.339229960E-1,1.452967048E0,4.602791786E0,2.556333065E0,5.461835242E0
9.388454560E-1,1.392390966E0,4.195325851E0,2.456406116E0,5.057019143E0
9.437676260E-1,1.563724995E0,3.637006998E0,2.147763968E0,4.503992209E0
9.486898570E-1,1.800498962E0,2.968060970E0,1.960464001E0,3.986803423E0
9.536120100E-1,2.027126074E0,2.104424953E0,1.969017029E0,3.523474502E0
9.585344600E-1,2.144221067E0,1.127347946E0,2.063925982E0,3.182512818E0
9.634568450E-1,2.150259972E0,-5.887399986E-2,2.164978981E0,3.051920392E0
9.683790770E-1,2.237543106E0,-1.447008967E0,2.177319050E0,3.441097550E0
9.733012260E-1,2.663307905E0,-3.161521912E0,1.926870942E0,4.560839991E0
9.782236090E-1,3.115812063E0,-5.044531822E0,1.502032042E0,6.116509329E0
9.831458470E-1,3.666202068E0,-7.402713776E0,3.488290012E-1,8.268185443E0
9.880682290E-1,4.849320889E0,-1.034681034E1,-1.973875046E0,1.159605881E1
9.929904000E-1,5.854189873E0,-1.353068256E1,-3.452838898E0,1.514176364E1
9.979128600E-1,6.287549019E0,-1.665580940E1,-4.092906952E0,1.826748879E1
1.002835092E0,6.423535824E0,-1.967720795E1,-4.867968082E0,2.126385286E1
1.007757246E0,5.987477779E0,-2.169981003E1,-5.913422108E0,2.327445394E1
1.012679706E0,4.920899868E0,-2.284844971E1,-7.729913235E0,2.461744236E1
1.017601862E0,3.321378946E0,-2.224282074E1,-9.451285362E0,2.439470081E1
1.022524316E0,2.239571095E0,-1.957244110E1,-1.060923862E1,2.237525583E1
1.027446701E0,2.305763006E0,-1.580269909E1,-1.049882221E1,1.911196247E1
1.032368934E0,8.883929849E-1,-1.147271824E1,-9.135220528E0,1.469233678E1
1.037291006E0,-8.881270289E-1,-7.650988102E0,-8.185030937E0,1.123926688E1
1.042213465E0,-1.448318005E0,-4.896305084E0,-8.079233170E0,9.557480689E0
1.047135626E0,-1.378093004E0,-2.780945063E0,-8.091246605E0,8.666087202E0
1.052057855E0,-8.941969872E-1,-1.391811967E0,-8.026941299E0,8.195640026E0
1.056980316E0,-2.278809994E-1,-3.630219996E-1,-7.737887859E0,7.749749883E0
1.061902472E0,1.328428030E0,-3.984799981E-2,-7.790038109E0,7.902594677E0
1.066824855E0,2.976857901E0,5.044999998E-3,-7.090332031E0,7.689897056E0
1.071747088E0,4.169620037E0,-2.438170016E-1,-6.156839848E0,7.439882720E0
1.076669470E0,4.974339962E0,-4.913089871E-1,-6.145876884E0,7.921947062E0
1.081591703E0,5.155451775E0,-1.226940006E-1,-4.519509792E0,6.857091627E0
1.086514163E0,4.963247776E0,5.105400085E-1,-2.992333889E0,5.817949956E0
1.091436309E0,4.602598190E0,1.097630978E0,-1.751327038E0,5.045379100E0
1.096358769E0,4.140303135E0,1.641010046E0,-1.158823013E0,4.601944675E0
1.101280925E0,3.577670097E0,2.250282049E0,-2.181189954E-1,4.232147035E0
1.106203074E0,3.124692917E0,2.841635942E0,1.151559949E0,4.377749533E0
1.111125533E0,2.726001024E0,3.443938017E0,2.164555073E0,4.896640615E0
1.116047712E0,2.011204004E0,4.023434162E0,3.018876076E0,5.417248080E0
1.120970095E0,8.713399768E-1,4.636054039E0,3.805105925E0,6.060615604E0
1.125892328E0,-5.014400184E-2,5.468575001E0,3.910749912E0,6.723227784E0
1.130814720E0,-1.317991972E0,6.441994190E0,3.283562899E0,7.349705933E0
1.135736953E0,-2.242461920E0,7.131930828E0,2.478724957E0,7.876366561E0
1.140659336E0,-3.009172916E0,7.505613804E0,2.040472984E0,8.339837541E0
1.145581554E0,-3.739557028E0,7.308453083E0,2.361211061E0,8.542428865E0
1.150504014E0,-3.419328928E0,6.738738060E0,2.818026066E0,8.064965708E0
1.155426401E0,-2.334161043E0,5.770481110E0,3.020185947E0,6.918690857E0
1.160348535E0,-1.722098947E0,4.718085766E0,2.538125992E0,5.627436506E0
1.165270689E0,-1.665096045E0,3.952920914E0,1.339218974E0,4.493510437E0
1.170192909E0,-1.835690975E0,3.486403942E0,-2.009049952E-1,3.945267623E0
1.175115294E0,-2.383645058E0,3.039748907E0,-1.686107993E0,4.214830642E0
1.180037759E0,-2.701724052E0,2.753258944E0,-3.238523960E0,5.036644231E0
1.184959915E0,-2.725020885E0,2.395117044E0,-4.177307129E0,5.532831041E0
1.189882146E0,-3.795857906E0,2.352205992E0,-4.227571964E0,6.149290608E0
1.194804533E0,-4.496428013E0,2.469142914E0,-4.491372108E0,6.818134277E0
1.199726689E0,-4.652687073E0,2.277035952E0,-4.473009109E0,6.843990080E0
1.204648918E0,-4.395243168E0,2.075520039E0,-4.196199894E0,6.421373645E0
1.209571366E0,-3.763545036E0,1.707527041E0,-4.171078205E0,5.871781095E0
1.214493750E0,-3.152842999E0,1.315101027E0,-3.845809937E0,5.143944377E0
1.219415983E0,-2.292412996E0,1.035835981E0,-3.781529903E0,4.541814828E0
1.224338351E0,-1.378196955E0,5.952450037E-1,-3.731019020E0,4.021721819E0
1.229260507E0,-9.193189740E-1,3.606129885E-1,-3.566909075E0,3.701084902E0
1.234182731E0,-6.933749914E-1,1.484329998E-1,-3.156708956E0,3.235369015E0
1.239105115E0,-5.661309958E-1,1.610639989E-1,7.141190171E-1,9.254252464E-1
1.244027339E0,-6.629679799E-1,3.932029903E-1,-7.882879972E-1,1.102512177E0
1.248949493E0,-8.268880248E-1,8.778929710E-1,-4.357511997E0,4.521321785E0
1.253871875E0,-6.360020041E-1,1.089005947E0,-2.631596088E0,2.918172455E0
1.258794108E0,3.416770101E-1,8.766899705E-1,-1.004227042E0,1.376154220E0
1.263716491E0,8.494229913E-1,7.231140137E-1,-4.874959886E-1,1.217401180E0
1.268638723E0,7.478709817E-1,8.804910183E-1,-4.399099946E-1,1.236161900E0
1.273561183E0,6.786590219E-1,1.213624954E0,-5.858269930E-1,1.508859458E0
1.278483570E0,5.274689794E-1,1.617630959E0,-5.079259872E-1,1.775652627E0
1.283405800E0,4.931750000E-1,2.057519913E0,-3.086450100E-1,2.138193517E0
1.288327925E0,6.140900254E-1,2.482719898E0,-2.005739957E-1,2.565391701E0
1.293250308E0,7.751600146E-1,2.918200016E0,-1.898729950E-1,3.025362150E0
1.298172473E0,9.953809977E-1,3.320458889E0,-3.869749904E-1,3.487976520E0
1.303094702E0,1.303416967E0,3.537523031E0,-4.278579950E-1,3.794209727E0
1.308017086E0,1.620007038E0,3.676079988E0,-2.356359959E-1,4.024116202E0
1.312939319E0,1.994349003E0,3.832108974E0,-7.846300304E-2,4.320722576E0
1.317861678E0,2.406889915E0,3.803277016E0,5.546100140E-1,4.534934111E0
1.322783910E0,3.055706024E0,3.418926001E0,1.531082988E0,4.834315817E0
1.327706293E0,3.539103985E0,2.729852915E0,2.652406931E0,5.197366302E0
1.332628531E0,3.931643963E0,1.941534042E0,3.485599041E0,5.601497957E0
1.337550913E0,4.223858833E0,1.280405998E0,3.587374926E0,5.687678069E0
1.342473146E0,4.461357117E0,6.746109724E-1,3.546730042E0,5.739172525E0
1.347395529E0,4.624833107E0,1.430220008E-1,3.607517004E0,5.867172700E0
1.352317762E0,4.733838081E0,-3.266629875E-1,3.802539110E0,6.080726550E0
1.357239905E0,4.913402081E0,-7.322700024E-1,3.492034912E0,6.072235765E0
1.362162288E0,5.057519913E0,-1.194167018E0,2.957515955E0,5.979251053E0
1.367084521E0,5.196425915E0,-1.789875031E0,2.458372116E0,6.020804628E0
1.372006903E0,4.905754089E0,-2.398335934E0,1.805678010E0,5.751426911E0
1.376929136E0,4.504728794E0,-3.035355091E0,1.013309956E0,5.525645583E0
1.381851519E0,4.116856098E0,-3.676302910E0,4.089829922E-1,5.534525662E0
1.386773752E0,3.934519053E0,-4.174681187E0,-6.478600204E-2,5.736950445E0
1.391696134E0,3.927859068E0,-4.285692215E0,-3.587009907E-1,5.824422806E0
1.396618367E0,3.892201900E0,-3.944942951E0,-2.439910024E-1,5.547192275E0
1.401540516E0,3.817873955E0,-3.081362009E0,-1.419170052E-1,4.908267902E0
1.406462975E0,3.857290983E0,-1.899546027E0,-1.946749985E-1,4.304052415E0
1.411385360E0,3.774925947E0,-1.323919058E0,5.032420158E-1,4.031882948E0
1.416307598E0,4.183991909E0,-1.300956011E0,1.528774977E0,4.640627950E0
1.421229752E0,3.966890097E0,-9.988290071E-1,1.942963004E0,4.528684319E0
1.426152134E0,3.412723064E0,-4.652509987E-1,1.821889997E0,3.896462545E0
1.431074372E0,2.869000912E0,-3.153000027E-3,1.713770986E0,3.341883775E0
1.435996755E0,2.259459972E0,1.757200062E-1,1.788854957E0,2.887219933E0
1.440919007E0,1.716977954E0,-8.712200075E-2,1.884096980E0,2.550573459E0
1.445841160E0,1.275735974E0,-5.579620004E-1,1.907413006E0,2.361577491E0
1.450763620E0,6.951680183E-1,-1.361399055E0,1.630663037E0,2.235112503E0
1.455685791E0,2.138639987E-1,-2.219060898E0,1.160673976E0,2.513390769E0
1.460608173E0,-6.892800331E-2,-3.275320053E0,8.866779804E-1,3.393916670E0
1.465530635E0,-7.069899887E-2,-4.161975861E0,4.874370098E-1,4.191018522E0
1.470452868E0,-2.415850013E-1,-4.829021931E0,6.207500026E-2,4.835459588E0
1.475375250E0,-8.796790242E-1,-5.346219063E0,-3.435719907E-1,5.428990253E0
1.480297406E0,-1.611582041E0,-5.669259071E0,-7.531819940E-1,5.941799240E0
1.485219631E0,-2.604367971E0,-5.896496773E0,-1.535550952E0,6.626411053E0
1.490142015E0,-4.590316772E0,-5.999751091E0,-3.687537909E0,8.406304601E0
1.495064180E0,-5.497608185E0,-6.108393192E0,-5.521724224E0,9.900787926E0
1.499986639E0,-6.213456154E0,-5.895858765E0,-6.436317921E0,1.071421375E1
1.504908872E0,-8.004718781E0,-4.873342037E0,-6.222432137E0,1.124916206E1
1.509831254E0,-8.513822556E0,-3.509475946E0,-4.920555115E0,1.044095104E1
1.514753487E0,-8.980623245E0,-1.992676973E0,-3.720202923E0,9.922815386E0
1.519675880E0,-1.011851978E1,-7.198150158E-1,-2.691049099E0,1.049496648E1
1.524598036E0,-9.242748260E0,7.303600013E-2,-1.573011041E0,9.375931602E0
1.529520495E0,-6.382834911E0,1.251029968E-1,-6.115639806E-1,6.413286425E0
1.534442665E0,-4.268506050E0,-2.832129896E-1,-6.622599810E-2,4.278403836E0
1.539364896E0,-2.767771006E0,-8.738790154E-1,1.476339996E-1,2.906203137E0
1.544287279E0,-1.251343012E0,-1.616315007E0,-3.720600158E-2,2.044435820E0
1.549209415E0,-1.765399985E-2,-2.335272074E0,-2.215719968E-1,2.345826394E0
1.554131875E0,7.294790149E-1,-3.111840963E0,-2.897610068E-1,3.209307598E0
1.559054103E0,9.692379832E-1,-3.771054029E0,-3.176159859E-1,3.906552275E0
1.563976257E0,8.885110021E-1,-4.200485229E0,-3.327310085E-1,4.306302113E0
1.568898410E0,7.096210122E-1,-4.319024086E0,-3.979769945E-1,4.394987682E0
1.573821116E0,4.748339951E-1,-4.225371838E0,-4.139060080E-1,4.272066558E0
1.578743272E0,2.835350037E-1,-4.010953903E0,-4.050790071E-1,4.041315666E0
1.583665502E0,1.729779989E-1,-3.669040918E0,-3.411459923E-1,3.688924401E0
1.588587889E0,8.287899941E-2,-3.140136003E0,-2.300339937E-1,3.149641041E0
1.593510122E0,-1.271580011E-1,-2.441191912E0,-7.965300232E-2,2.445798787E0
1.598432504E0,-5.966020226E-1,-1.737234950E0,2.401199937E-2,1.836980082E0
1.603354723E0,-1.148342013E0,-1.042703986E0,9.556499869E-2,1.554044289E0
1.608277106E0,-1.590294957E0,-4.294880033E-1,1.072740033E-1,1.650759131E0
1.613199329E0,-1.905572057E0,5.679599941E-2,8.146800101E-2,1.908158192E0
1.618121482E0,-2.162672997E0,4.422380030E-1,9.952200204E-2,2.209668204E0
1.623043870E0,-2.419415951E0,8.012490273E-1,-1.945899986E-2,2.548715794E0
1.627966103E0,-2.612632036E0,1.122593045E0,5.336700007E-2,2.844100796E0
1.632888496E0,-2.713687897E0,1.290024042E0,1.881199926E-1,3.010590168E0
1.637810651E0,-2.866573095E0,1.432824016E0,3.679800034E-1,3.225776690E0
1.642733111E0,-2.966531038E0,1.515174985E0,5.262290239E-1,3.372384708E0
1.647655262E0,-2.863010883E0,1.515602946E0,4.859000146E-1,3.275665189E0
1.652577721E0,-2.608616114E0,1.479531050E0,4.620560110E-1,3.034367465E0
1.657499954E0,-2.341842890E0,1.371034026E0,3.850010037E-1,2.740837134E0
1.662422337E0,-2.011666059E0,1.302659035E0,2.521699965E-1,2.409836219E0
1.667344570E0,-1.730453968E0,1.408612013E0,2.563400008E-2,2.231438066E0
1.672266723E0,-1.462389946E0,1.521303058E0,-2.802529931E-1,2.128729454E0
1.677188886E0,-1.188228965E0,1.743517041E0,-7.237910032E-1,2.230608249E0
1.682111269E0,-1.034805059E0,2.048588037E0,-1.270601988E0,2.623349742E0
1.687033493E0,-8.989449739E-1,2.213375092E0,-1.501541972E0,2.821659026E0
1.691955952E0,-9.069740176E-1,2.457848072E0,-1.684016943E0,3.114407179E0
1.696878108E0,-1.149364948E0,2.729013920E0,-1.728667021E0,3.428825809E0
1.701800495E0,-1.601992011E0,3.081634045E0,-1.761510015E0,3.894324630E0
1.706722727E0,-1.796244025E0,3.367139101E0,-1.979472041E0,4.299119431E0
1.711645187E0,-1.833186984E0,3.528014898E0,-2.224678993E0,4.555947790E0
1.716567348E0,-2.062844992E0,3.626609087E0,-2.491712093E0,4.859655552E0
1.721489731E0,-2.258441925E0,3.679620028E0,-2.677614927E0,5.080333176E0
1.726411963E0,-2.260341883E0,3.438124895E0,-2.793634892E0,4.973353409E0
1.731334327E0,-2.092648983E0,3.057825089E0,-2.908458948E0,4.710478478E0
1.736256560E0,-1.649839997E0,2.739923000E0,-2.805749893E0,4.254571956E0
1.741178942E0,-1.463222027E0,2.355436087E0,-2.373604059E0,3.650081381E0
1.746101084E0,-1.137732983E0,1.935889959E0,-1.607699037E0,2.761666610E0
1.751023544E0,-7.036269903E-1,1.560760021E0,-6.855390072E-1,1.844187224E0
1.755945704E0,-2.341360003E-1,1.165981054E0,3.305329978E-1,1.234335266E0
1.760867934E0,2.964639962E-1,6.468150020E-1,1.445183039E0,1.610842811E0
1.765790317E0,7.587280273E-1,-5.088499933E-2,3.351167917E0,3.436362017E0
1.770712555E0,1.371155977E0,-8.882899880E-1,6.341146946E0,6.548226661E0
1.775634937E0,2.001147032E0,-1.368628979E0,7.238389015E0,7.633610565E0
1.780557170E0,2.473485947E0,-1.475517035E0,6.453595161E0,7.067119198E0
1.785479553E0,2.691584110E0,-1.185953975E0,5.025014877E0,5.822532642E0
1.790401786E0,2.965217113E0,-7.768800259E-1,3.787863970E0,4.872778320E0
1.795324168E0,3.374020100E0,-2.812260091E-1,2.724617004E0,4.345875921E0
1.800246387E0,3.713823080E0,1.366270036E-1,1.849632025E0,4.151179042E0
1.805168541E0,3.888725042E0,4.491780102E-1,1.386741996E0,4.152950361E0
1.810091000E0,3.904036999E0,6.867859960E-1,1.218675017E0,4.147089183E0
1.815013160E0,3.936892033E0,9.879789948E-1,1.162338018E0,4.222114522E0
1.819935543E0,3.872704983E0,1.168342948E0,1.203264952E0,4.220274360E0
1.824857776E0,3.920037031E0,1.364366055E0,1.401504993E0,4.380913296E0
1.829780173E0,4.018813133E0,1.576446056E0,1.435307980E0,4.549302162E0
1.834702329E0,3.958389997E0,1.802366018E0,1.346236944E0,4.552991165E0
1.839624558E0,3.942172050E0,2.042201996E0,1.146705031E0,4.585438027E0
1.844546952E0,3.517147064E0,2.336657047E0,7.481120229E-1,4.288351808E0
1.849469413E0,2.950578928E0,2.731116056E0,8.740700036E-2,4.021511023E0
1.854391646E0,2.179102898E0,2.871088982E0,-2.025300078E-2,3.604448857E0
1.859314015E0,1.426988006E0,2.981659889E0,1.444080025E-1,3.308692209E0
1.864236247E0,1.690626025E0,3.046446085E0,4.112519920E-1,3.508301342E0
1.869158620E0,1.667369008E0,2.962573051E0,6.483910084E-1,3.460833627E0
1.874080776E0,1.228402972E0,2.962131977E0,1.087254047E0,3.386048003E0
1.879003000E0,6.942530274E-1,3.126674891E0,1.696668983E0,3.624468068E0
1.883925384E0,2.461729944E-1,3.238698006E0,2.091876984E0,3.863381321E0
1.888847545E0,1.925909966E-1,3.214570045E0,2.136352062E0,3.864524809E0
1.893769774E0,4.068079889E-1,2.975147009E0,2.319999933E0,3.794653101E0
1.898692158E0,-4.815300182E-2,2.637588978E0,2.489947081E0,3.627537842E0
1.903614391E0,7.283499837E-2,2.501353025E0,2.613430023E0,3.618299101E0
1.908536774E0,9.909400344E-2,2.329611063E0,2.609672070E0,3.499613641E0
1.913459235E0,3.026959896E-1,2.160942078E0,2.593882084E0,3.389619417E0
1.918381468E0,2.410700023E-1,1.961840987E0,2.492295027E0,3.180954150E0
1.923303622E0,4.057990015E-1,1.739215016E0,2.241797924E0,2.866216955E0
1.928226005E0,6.006150246E-1,1.564764023E0,2.243747950E0,2.800648089E0
1.933148228E0,-1.855619997E-1,1.242411017E0,2.413098097E0,2.720489077E0
1.938070611E0,4.976760149E-1,1.195482969E0,2.825026035E0,3.107673253E0
1.942992762E0,1.239277005E0,9.836320281E-1,3.281752110E0,3.643245308E0
1.947914991E0,1.959419012E0,7.510880232E-1,3.631110907E0,4.193855326E0
1.952837404E0,2.589857101E0,6.097519994E-1,3.797636032E0,4.636938294E0
1.957759637E0,2.399243116E0,3.928390145E-1,3.823404074E0,4.530905951E0
1.962682020E0,2.076911926E0,2.872880101E-1,3.713978052E0,4.264942030E0
1.967604267E0,1.847967029E0,2.528420091E-1,3.567169905E0,4.025371082E0
1.972526649E0,1.553797007E0,3.230359852E-1,3.427681923E0,3.777253069E0
1.977448882E0,1.369511008E0,4.047940075E-1,3.316260099E0,3.610678556E0
1.982371265E0,1.257763028E0,5.603629947E-1,3.312400103E0,3.587195138E0
1.987293497E0,1.293393016E0,8.904600143E-1,3.316828012E0,3.669759201E0
1.992215880E0,1.131343007E0,1.394435048E0,3.342761993E0,3.794528146E0
1.997138031E0,7.831240296E-1,2.074054003E0,3.401042938E0,4.059812350E0
2.002060260E0,4.730809927E-1,2.723823071E0,3.240178108E0,4.259315898E0
2.006982654E0,2.779180110E-1,3.282031059E0,2.997742891E0,4.453698321E0
2.011904887E0,2.664560080E-1,3.878496885E0,2.659657955E0,4.710362760E0
2.016827270E0,3.568460047E-1,4.185728073E0,2.449187994E0,4.862733840E0
2.021749526E0,5.782840252E-1,4.708708763E0,2.275552988E0,5.261605461E0
2.026671680E0,8.454669714E-1,4.947404861E0,2.152626038E0,5.461266165E0
2.031594140E0,8.488609791E-1,5.193157196E0,1.990600944E0,5.626005576E0
2.036516291E0,8.072059751E-1,5.335704803E0,1.885298014E0,5.716264150E0
2.041438750E0,6.872869730E-1,5.457373142E0,1.714650989E0,5.761537382E0
2.046361135E0,4.310370088E-1,5.563020229E0,1.472450018E0,5.770710184E0
2.051283378E0,2.125329971E-1,5.614321232E0,1.248010039E0,5.755284722E0
2.056205532E0,1.866450012E-1,5.493916035E0,1.111526966E0,5.608336826E0
2.061127685E0,1.282609999E-1,5.244703770E0,1.001461983E0,5.341001275E0
2.066050145E0,2.505300045E-1,4.825696945E0,1.054808974E0,4.945982032E0
2.070972530E0,4.416910112E-1,4.227040768E0,1.131294012E0,4.398043968E0
2.075894762E0,7.411969900E-1,3.388819933E0,1.441241980E0,3.756414775E0
2.080817145E0,1.083013058E0,2.370376110E0,1.747339964E0,3.137641971E0
2.085739301E0,1.523538947E0,1.034989953E0,2.119856119E0,2.808231666E0
2.090661539E0,2.217854977E0,-5.745009780E-1,2.066107988E0,3.085082542E0
2.095583923E0,2.974817038E0,-2.542402029E0,1.836405039E0,4.322699151E0
2.100506156E0,3.842427969E0,-4.689542770E0,1.484323978E0,6.241737079E0
2.105428539E0,4.686384201E0,-7.377779961E0,1.118139982E0,8.811587317E0
2.110350771E0,6.259163857E0,-1.063617229E1,-2.874740064E-1,1.234455080E1
2.115273154E0,7.657526970E0,-1.418018818E1,-1.700507998E0,1.620515916E1
2.120195387E0,9.047827721E0,-1.778965378E1,-2.897850037E0,2.016761024E1
2.125117541E0,9.941233635E0,-2.094046402E1,-4.856435776E0,2.368366796E1
2.130039918E0,9.891569138E0,-2.312506866E1,-6.882688999E0,2.607649034E1
2.134962380E0,8.837774277E0,-2.381450653E1,-8.767173767E0,2.687192422E1
2.139884613E0,6.991077900E0,-2.235074615E1,-9.831056595E0,2.539843888E1
2.144807019E0,5.480869770E0,-1.929213905E1,-1.004192638E1,2.242915175E1
2.149729175E0,4.873437881E0,-1.540045261E1,-9.935279846E0,1.896402181E1
2.154651405E0,3.034945965E0,-1.135410023E1,-9.693696976E0,1.523463981E1
2.159573813E0,1.000769019E0,-7.514648914E0,-7.596574783E0,1.073216825E1
2.164496045E0,3.170590103E-1,-4.498748779E0,-5.910970211E0,7.434973829E0
2.169418428E0,-9.302629828E-1,-2.108253002E0,-5.776317120E0,6.218999872E0
2.174340652E0,-2.123939991E0,-3.415879905E-1,-6.207771778E0,6.569949306E0
2.179263034E0,-1.623522997E0,4.032610059E-1,-7.252385139E0,7.442817784E0
2.184185267E0,-9.732639790E-1,8.844220042E-1,-8.520950317E0,8.621835035E0
2.189107635E0,5.443159938E-1,9.483749866E-1,-8.885649681E0,8.952679223E0
2.194029868E0,2.035039902E0,5.803250074E-1,-8.121183395E0,8.392364640E0
2.198952031E0,3.328952074E0,5.175359845E-1,-5.925237179E0,6.816025310E0
2.203874414E0,3.595998049E0,7.027490139E-1,-3.398868084E0,4.997735727E0
2.208796570E0,3.172753096E0,9.766960144E-1,-9.601389766E-1,3.455743649E0
2.213719033E0,2.882973909E0,1.026324987E0,5.860670209E-1,3.115823502E0
2.218641189E0,2.515537024E0,1.191187978E0,1.689820051E0,3.256124555E0
2.223563420E0,2.293581009E0,1.798835039E0,2.760999918E0,4.014902476E0
2.228485789E0,1.758170962E0,2.496709108E0,3.493233919E0,4.639763433E0
2.233408250E0,1.448145032E0,3.025024891E0,4.404934883E0,5.536366222E0
2.238330483E0,1.317304015E0,3.424199104E0,4.858017921E0,6.087755539E0
2.243252837E0,6.226680279E-1,4.241675854E0,4.864275932E0,6.483880772E0
2.248175069E0,-9.485459924E-1,5.239451885E0,4.179172993E0,6.768831691E0
2.253097223E0,-1.687459946E0,5.735309124E0,3.228090048E0,6.794251774E0
2.258019606E0,-1.693410993E0,5.519507885E0,2.501015902E0,6.291874810E0
2.262941839E0,-1.998010993E0,5.015576839E0,2.326374054E0,5.878781779E0
2.267863964E0,-1.925524950E0,4.797832966E0,2.312887907E0,5.663594086E0
2.272786346E0,-1.962052941E0,4.433278084E0,1.993391037E0,5.241871244E0
2.277708579E0,-2.019098043E0,3.996241093E0,1.438573956E0,4.702785856E0
2.282630976E0,-1.995877981E0,3.474720001E0,6.081830263E-1,4.053035233E0
2.287553208E0,-2.032423973E0,3.048651934E0,-3.360120058E-1,3.679392598E0
2.292475591E0,-2.240056992E0,2.795701027E0,-1.983389974E0,4.094830319E0
2.297398053E0,-2.317994118E0,2.720237017E0,-3.346014023E0,4.895773279E0
2.302320285E0,-2.631378889E0,2.710148096E0,-3.720659971E0,5.302109786E0
2.307242439E0,-3.181466103E0,2.753348112E0,-3.871970892E0,5.717937651E0
2.312164818E0,-3.733946085E0,2.919430971E0,-3.995769024E0,6.199322596E0
2.317087051E0,-4.005033016E0,2.918685913E0,-3.989850998E0,6.362226647E0
2.322009174E0,-4.146543026E0,3.142050028E0,-4.053434849E0,6.595197610E0
2.326931557E0,-4.259856224E0,3.216403961E0,-4.047873020E0,6.699022726E0
2.331853795E0,-4.058354855E0,3.290718079E0,-4.171920776E0,6.686104439E0
2.336776178E0,-3.479707956E0,3.030184984E0,-3.931041002E0,6.061639371E0
2.341698410E0,-2.679996967E0,2.694259882E0,-3.556355000E0,5.204717181E0
2.346620797E0,-1.790400982E0,2.197752953E0,-2.994546890E0,4.123465144E0
2.351543030E0,-1.309517026E0,1.783885956E0,-1.632091999E0,2.749692390E0
2.356465412E0,-8.642179966E-1,1.592350960E0,1.446231008E0,2.318197242E0
2.361387640E0,-1.153931975E0,1.616870046E0,-2.701481104E0,3.353181758E0
2.366310023E0,-1.332273960E0,1.758983016E0,-3.070669889E0,3.781268137E0
2.371232256E0,-1.090018988E0,1.758396029E0,-1.672994018E0,2.660640331E0
2.376154643E0,-5.625860095E-1,1.674589038E0,-6.437770128E-1,1.880212835E0
2.381076799E0,-2.946150005E-1,1.588320017E0,-1.999129951E-1,1.627735753E0
2.385999023E0,-2.545970082E-1,1.613536954E0,-1.823630035E-1,1.643647591E0
2.390921407E0,-1.037949994E-1,1.787449956E0,-2.924189866E-1,1.814182904E0
2.395843645E0,-7.431499660E-2,2.051949024E0,-2.250269949E-1,2.065588213E0
2.400766028E0,-1.042340025E-1,2.322814941E0,-7.657200098E-2,2.326412958E0
2.405688184E0,-8.635199815E-2,2.540005922E0,1.529009938E-1,2.546068630E0
2.410610402E0,-5.939000100E-2,2.806313992E0,3.053219914E-1,2.823499054E0
2.415532864E0,1.702499986E-1,3.107057095E0,1.120970026E-1,3.113736435E0
2.420455020E0,4.630509913E-1,3.321969032E0,-8.999200165E-2,3.355293286E0
2.425377484E0,8.113150001E-1,3.512572050E0,-1.226740032E-1,3.607137833E0
2.430299869E0,1.087645054E0,3.601367950E0,6.633900106E-2,3.762608635E0
2.435222102E0,1.490300059E0,3.547420025E0,7.847610116E-1,3.926962305E0
2.440144513E0,2.010873079E0,3.299170971E0,1.756764054E0,4.244332642E0
2.445066746E0,2.726746082E0,2.733778954E0,2.182687044E0,4.435404637E0
2.449989129E0,3.333981037E0,2.088120937E0,2.275516987E0,4.544629376E0
2.454911304E0,3.779716015E0,1.411308050E0,2.169615984E0,4.580969011E0
2.459833533E0,3.842241049E0,8.249850273E-1,2.222735882E0,4.514861169E0
2.464755688E0,3.849339008E0,2.921549976E-1,2.396863937E0,4.543976461E0
2.469678100E0,4.177731991E0,-3.514179885E-1,2.497256994E0,4.879880294E0
2.474600333E0,4.527381897E0,-1.041993976E0,2.435348988E0,5.245365857E0
2.479522792E0,4.819568157E0,-1.634242058E0,2.185560942E0,5.538561271E0
2.484444900E0,5.119198799E0,-2.188982964E0,1.891695023E0,5.880166054E0
2.489367437E0,5.311848164E0,-2.795809031E0,1.493675947E0,6.185737376E0
2.494289823E0,5.517715931E0,-3.273978949E0,9.523100257E-1,6.486217822E0
2.499212054E0,5.697021008E0,-3.593559027E0,4.674670100E-1,6.751906416E0
2.504134208E0,5.545888901E0,-3.537487030E0,3.460500017E-2,6.578137707E0
2.509056586E0,5.284227848E0,-3.199474096E0,-2.463700026E-1,6.182264684E0
2.513978818E0,3.997824907E0,-2.333054066E0,-2.651360035E-1,4.636382465E0
2.518900982E0,3.604258060E0,-1.745080948E0,4.803799987E-1,4.033205750E0
2.523823365E0,3.749342918E0,-1.718783021E0,1.286775947E0,4.320599464E0
2.528745598E0,3.380223989E0,-1.625285029E0,1.539219975E0,4.054215557E0
2.533668000E0,2.582035065E0,-1.239840031E0,1.503808975E0,3.235050202E0
2.538590233E0,1.646795034E0,-5.977309942E-1,1.385501981E0,2.233569333E0
2.543512387E0,9.895480275E-1,1.996160001E-1,1.443179965E0,1.761198529E0
2.548434874E0,7.752159834E-1,9.858570099E-1,1.792263031E0,2.187482717E0
2.553357259E0,9.192529917E-1,1.609580994E0,2.536456108E0,3.141557993E0
2.558279492E0,1.068788052E0,1.773936033E0,3.252017021E0,3.855485917E0
2.563201875E0,9.758489728E-1,1.348364949E0,3.549756050E0,3.920604197E0
2.568124107E0,7.945330143E-1,6.578310132E-1,3.406462908E0,3.559215348E0
2.573046233E0,5.519739985E-1,-2.343750000E-1,2.984162092E0,3.043818380E0
2.577968616E0,3.918200135E-1,-1.308769941E0,2.386445999E0,2.749822938E0
2.582890834E0,6.392319798E-1,-2.274519920E0,1.715286016E0,2.919634311E0
2.587813216E0,6.516829729E-1,-3.527065039E0,1.386479020E0,3.845413184E0
2.592735464E0,5.179769993E-1,-4.684494019E0,1.446089983E0,4.929904727E0
2.597657618E0,2.372599952E-2,-5.718088150E0,1.609433055E0,5.940317312E0
2.602580077E0,-7.049769759E-1,-6.715884209E0,1.434085011E0,6.903382726E0
2.607502246E0,-1.138921976E0,-7.776203156E0,6.582949758E-1,7.886686951E0
2.612424629E0,-2.009367943E0,-8.848349571E0,-7.770910263E-1,9.106850176E0
2.617347090E0,-3.982867956E0,-9.434192657E0,-4.517836094E0,1.119276870E1
2.622269338E0,-6.044322968E0,-9.447914124E0,-8.301299095E0,1.395379834E1
2.627191721E0,-8.399923325E0,-8.449202538E0,-9.554696083E0,1.527219541E1
2.632113877E0,-9.035517693E0,-6.393335819E0,-8.142494202E0,1.374101651E1
2.637036026E0,-9.366827965E0,-3.808083057E0,-5.863477230E0,1.168842709E1
2.641958485E0,-9.274194717E0,-1.572288036E0,-3.798015118E0,1.014434306E1
2.646880708E0,-8.372518539E0,7.011999842E-3,-2.107707977E0,8.633744771E0
2.651802862E0,-6.730949879E0,6.539340019E-1,-8.663349748E-1,6.817906734E0
2.656725239E0,-4.756488800E0,2.368959934E-1,-2.307150066E-1,4.767969676E0
2.661647472E0,-3.012211084E0,-8.193979859E-1,-7.527200133E-2,3.122578190E0
2.666569855E0,-1.897935033E0,-1.894952059E0,-1.328209937E-1,2.685263881E0
2.671492065E0,-1.141011953E0,-2.783581018E0,-1.044830009E-1,3.010174125E0
2.676414447E0,-5.930600166E-1,-3.552453995E0,3.802900016E-2,3.601818398E0
2.681336680E0,-2.334139943E-1,-4.196691036E0,1.874960065E-1,4.207356949E0
2.686259063E0,6.694100052E-2,-4.613381863E0,2.540580034E-1,4.620856931E0
2.691181295E0,2.263049930E-1,-4.771646023E0,3.579419851E-1,4.790401046E0
2.696103678E0,2.674419880E-1,-4.592816830E0,5.405849814E-1,4.632248241E0
2.701025834E0,-1.368809938E-1,-4.249040127E0,7.532389760E-1,4.317458438E0
2.705948063E0,-1.041358948E0,-3.751878977E0,9.338049889E-1,4.004124882E0
2.710870447E0,-1.766531944E0,-2.963044882E0,9.704030156E-1,3.583566951E0
2.715792680E0,-2.205876112E0,-2.065083981E0,8.712139726E-1,3.144753576E0
2.720715063E0,-2.897903919E0,-1.246971011E0,6.543419957E-1,3.221947746E0
2.725637285E0,-3.498069048E0,-4.914279878E-1,5.793079734E-1,3.579606998E0
2.730559668E0,-3.733504057E0,4.404899850E-2,4.682889879E-1,3.763015737E0
2.735481824E0,-3.832861900E0,3.974759877E-1,2.874949872E-1,3.864126146E0
2.740404278E0,-3.897696972E0,6.548889875E-1,1.086869985E-1,3.953825253E0
2.745326511E0,-3.921643019E0,8.064889908E-1,8.779999916E-4,4.003711931E0
2.750248894E0,-3.629436016E0,8.904489875E-1,-2.112769932E-1,3.743039295E0
2.755171122E0,-3.412977934E0,9.041230083E-1,-2.250390053E-1,3.537866496E0
2.760093504E0,-3.372081995E0,9.574639797E-1,4.462600127E-2,3.505661954E0
2.765015722E0,-3.281420946E0,9.857969880E-1,3.555400074E-1,3.444695607E0
2.769938105E0,-2.882426977E0,1.039566994E0,5.334100127E-1,3.110242925E0
2.774860337E0,-2.706631899E0,9.825149775E-1,5.215280056E-1,2.926291745E0
2.779782506E0,-2.273454905E0,9.416220188E-1,4.257310033E-1,2.497297763E0
2.784704889E0,-1.755607963E0,9.528409839E-1,1.911209971E-1,2.006637111E0
2.789627045E0,-1.170003057E0,1.028051972E0,-4.149900004E-2,1.558050120E0
2.794549278E0,-7.822369933E-1,1.234269023E0,-6.148099899E-1,1.585340991E0
2.799471662E0,-4.583230019E-1,1.485059977E0,-8.979009986E-1,1.794906491E0
2.804394124E0,-1.643490046E-1,1.787348032E0,-9.353640079E-1,2.023988491E0
2.809316343E0,-1.672000065E-2,2.088198900E0,-8.844959736E-1,2.267859637E0
2.814238725E0,5.239899829E-2,2.375524998E0,-8.468289971E-1,2.522495594E0
2.819160958E0,3.185299933E-1,2.699379921E0,-1.010408044E0,2.899834087E0
2.824083331E0,6.099950075E-1,2.939713955E0,-1.233428001E0,3.245821418E0
2.829005486E0,5.945199728E-1,3.165797949E0,-1.502398014E0,3.554283394E0
2.833927710E0,4.303010106E-1,3.281559944E0,-1.806576967E0,3.770612015E0
2.838850095E0,3.327530026E-1,3.301168919E0,-2.390705109E0,4.089487952E0
2.843772271E0,2.461030036E-1,3.298634052E0,-2.828890085E0,4.352490369E0
2.848694500E0,1.597069949E-1,3.319453001E0,-3.067637920E0,4.522684707E0
2.853616884E0,-1.160399988E-2,3.416373968E0,-3.323611975E0,4.766355243E0
2.858539126E0,-5.851000175E-2,3.390698910E0,-3.562441111E0,4.918460042E0
2.863461509E0,-2.953929901E-1,3.316467047E0,-3.374742985E0,4.740791169E0
2.868383746E0,-3.548080027E-1,3.102871895E0,-3.067945004E0,4.377897813E0
2.873306206E0,-3.283030093E-1,2.889071941E0,-2.623610020E0,3.916356608E0
2.878228593E0,-1.970060021E-1,2.527121067E0,-1.562981963E0,2.977929628E0
2.883150741E0,1.914789975E-1,1.637531996E0,1.535832047E0,2.253210004E0
2.888072972E0,9.503179789E-1,4.322969913E-1,6.601482868E0,6.683529083E0
2.892995107E0,1.275552034E0,-6.913719773E-1,9.444822311E0,9.555610744E0
2.897917490E0,1.374349952E0,-8.201169968E-1,7.090837002E0,7.269208971E0
2.902839722E0,1.639575958E0,-3.888399899E-1,4.540559769E0,4.843148653E0
2.907762105E0,1.933047056E0,1.200980023E-1,2.721307039E0,3.340150663E0
2.912684338E0,2.243110895E0,5.030549765E-1,1.591925979E0,2.796218718E0
2.917606725E0,2.382687092E0,7.868639827E-1,8.977119923E-1,2.665002725E0
2.922528958E0,2.404792070E0,9.964420199E-1,5.983930230E-1,2.670954101E0
2.927451355E0,2.293133020E0,1.140452981E0,4.970900118E-1,2.608867672E0
2.932373588E0,2.423587084E0,1.160892010E0,5.511819720E-1,2.743218215E0
2.937295970E0,2.310533047E0,1.208446026E0,6.858379841E-1,2.696159954E0
2.942218203E0,2.135814905E0,1.245048046E0,9.664009809E-1,2.654388970E0
2.947140586E0,2.064970970E0,1.270982981E0,1.192826986E0,2.702284046E0
2.952062818E0,1.911988974E0,1.269783974E0,1.354482055E0,2.665084391E0
2.956984953E0,1.066563010E0,1.325567007E0,1.292405009E0,2.136584951E0
2.961907336E0,7.315440178E-1,1.479467988E0,9.408209920E-1,1.899770069E0
2.966829578E0,7.973780036E-1,1.705530047E0,4.251219928E-1,1.930122569E0
2.971751732E0,9.216309786E-1,1.792945981E0,-1.113879979E-1,2.019026062E0
2.976674191E0,1.071267962E0,1.691064954E0,-4.352859855E-1,2.048606750E0
2.981596576E0,1.402549982E0,1.602946997E0,-6.390569806E-1,2.223730953E0
2.986518809E0,1.327625036E0,1.542428970E0,-7.028020024E-1,2.153045754E0
2.991440962E0,1.073732972E0,1.571676970E0,-6.247079968E-1,2.003329996E0
2.996363345E0,7.546190023E-1,1.630998969E0,-4.456480145E-1,1.851542500E0
3.001285807E0,4.485319853E-1,1.655830026E0,-2.378730029E-1,1.731917314E0
3.006208039E0,6.705000065E-3,1.828071952E0,1.030550003E-1,1.830986715E0
3.011130418E0,-5.602869987E-1,2.042650938E0,7.780230045E-1,2.256471620E0
3.016052651E0,-7.530639768E-1,2.285558939E0,1.471372962E0,2.820606922E0
3.020974809E0,-9.955409765E-1,2.394125938E0,2.396236897E0,3.530565409E0
3.025896962E0,-1.802634954E0,2.440433025E0,3.174982071E0,4.391550669E0
3.030819321E0,-2.079891920E0,2.753110886E0,3.935200930E0,5.233677130E0
3.035741554E0,-2.109749079E0,2.990494013E0,4.615548134E0,5.890448217E0
3.040663937E0,-1.685235023E0,3.098011971E0,5.128318787E0,6.223933550E0
3.045586151E0,-1.179208040E0,3.147456884E0,5.397103786E0,6.358124387E0
3.050508534E0,-6.554759741E-1,3.220088959E0,5.536816120E0,6.438552198E0
3.055430767E0,1.167510003E-1,3.267863989E0,5.463889122E0,6.367625160E0
3.060352916E0,1.016801953E0,3.276134014E0,5.037215233E0,6.094298778E0
3.065275606E0,1.931826949E0,3.251616955E0,4.400265217E0,5.802353157E0
3.070197839E0,2.656008959E0,3.298983097E0,3.760241032E0,5.663663627E0
3.075120216E0,3.212860107E0,3.558955908E0,3.367456913E0,5.859044571E0
3.080042372E0,3.445862055E0,3.293736935E0,2.435911894E0,5.353161220E0
3.084964603E0,3.167819977E0,2.966290951E0,2.011873960E0,4.783471777E0
3.089886972E0,2.679848909E0,2.556999922E0,2.245626926E0,4.331590824E0
3.094809204E0,2.321738005E0,2.262489080E0,2.685583115E0,4.209712682E0
3.099731358E0,2.105355024E0,2.184000015E0,3.003036022E0,4.268559616E0
3.104653760E0,1.720687985E0,2.323709965E0,3.274830103E0,4.368627627E0
3.109575916E0,1.164065003E0,2.669491053E0,3.434428930E0,4.502947023E0
3.114498375E0,5.926889777E-1,3.051645041E0,3.435318947E0,4.633058811E0
3.119420608E0,1.071140021E-1,3.374954939E0,3.319474936E0,4.735051013E0
3.124342991E0,-2.404610068E-1,3.690104008E0,3.180358887E0,4.877434954E0
3.129265223E0,-3.394550085E-1,3.935318947E0,3.117914915E0,5.032231944E0
3.134187611E0,-2.194949985E-1,4.125454903E0,2.989046097E0,5.099210996E0
3.139109844E0,-4.205799848E-2,4.322858810E0,2.801475048E0,5.151421126E0
3.144032197E0,-1.144200005E-2,4.625061989E0,2.697957993E0,5.354466047E0
3.148954353E0,-7.401099801E-2,4.833150864E0,2.698451996E0,5.535925223E0
3.153876507E0,-2.748839855E-1,5.003015995E0,2.615006924E0,5.651901579E0
3.158798967E0,-4.752660096E-1,5.065606117E0,2.435787916E0,5.640860385E0
3.163721127E0,-7.120590210E-1,5.102375984E0,2.377012968E0,5.673751791E0
3.168643357E0,-9.960340261E-1,5.101448059E0,2.585792065E0,5.805443711E0
3.173565740E0,-1.117241025E0,4.979118824E0,2.977515936E0,5.908083693E0
3.178487978E0,-1.128422976E0,4.699532032E0,3.362517118E0,5.887738199E0
3.183410437E0,-8.500180244E-1,4.102255821E0,3.620482922E0,5.537050664E0
3.188332593E0,-4.995619953E-1,3.300168037E0,3.628031015E0,4.929835729E0
3.193255058E0,1.285700034E-2,2.129441023E0,3.476754904E0,4.077071134E0
3.198177442E0,7.627180219E-1,5.990509987E-1,3.111383915E0,3.259035248E0
3.203099675E0,1.704239964E0,-1.430696011E0,2.147524118E0,3.092439938E0
3.208021839E0,2.885793924E0,-4.039840221E0,1.063585043E0,5.077334806E0
3.212944222E0,4.382392883E0,-7.298814774E0,-1.386780024E0,8.625614373E0
3.217866376E0,6.142179966E0,-1.121122360E1,-3.962013006E0,1.338340228E1
3.222788836E0,8.448062897E0,-1.531098747E1,-5.039976120E0,1.819883137E1
3.227710992E0,1.048712254E1,-1.971086884E1,-5.819364071E0,2.307299477E1
3.232633223E0,1.216355705E1,-2.308128166E1,-6.509271145E0,2.688992923E1
3.237555605E0,1.243935585E1,-2.497605705E1,-7.254846096E0,2.883008484E1
3.242478081E0,1.086417770E1,-2.522904205E1,-8.517816544E0,2.875913974E1
3.247400237E0,8.738395691E0,-2.378284073E1,-9.177204132E0,2.694817523E1
3.252322467E0,6.729033947E0,-2.056812286E1,-8.555011749E0,2.327049209E1
3.257244850E0,5.482330799E0,-1.683002853E1,-8.110695839E0,1.947021311E1
3.262167083E0,3.218755960E0,-1.276180553E1,-8.641142845E0,1.574463147E1
3.267089466E0,1.510527968E0,-9.058215141E0,-9.881269455E0,1.348971617E1
3.272011693E0,8.208630085E-1,-6.356577873E0,-1.016381836E1,1.201595198E1
3.276933847E0,-1.499440074E-1,-4.208991051E0,-9.914056778E0,1.077156491E1
3.281856303E0,-5.454170108E-1,-2.356568098E0,-9.495979309E0,9.799209966E0
3.286778459E0,1.867599972E-2,-7.503950000E-1,-8.621633530E0,8.654247868E0
3.291700854E0,2.116920054E-1,2.327719927E-1,-8.123366356E0,8.129457378E0
3.296623087E0,8.617879748E-1,7.091779709E-1,-7.750191212E0,7.830138934E0
3.301545470E0,1.687584043E0,8.381090164E-1,-6.641160965E0,6.903288027E0
3.306467612E0,2.579030991E0,7.649019957E-1,-6.044105053E0,6.615714761E0
3.311390072E0,3.246032953E0,6.630340219E-1,-5.769099236E0,6.652732524E0
3.316312228E0,3.622715950E0,4.828689992E-1,-4.791224003E0,6.026031926E0
3.321234687E0,3.921983957E0,4.067420065E-1,-4.238706112E0,5.789130049E0
3.326156920E0,4.316130161E0,4.873009920E-1,-2.841377974E0,5.190363245E0
3.331079303E0,4.312063217E0,6.821560264E-1,-1.535135031E0,4.627727909E0
3.336001521E0,4.257143021E0,1.073474050E0,-1.495790035E-1,4.392947429E0
3.340923903E0,3.990869999E0,1.465530038E0,9.779040217E-1,4.362466953E0
3.345846069E0,3.414297104E0,2.056977034E0,2.287074089E0,4.595572556E0
3.350768298E0,2.956880093E0,2.608297110E0,3.430299044E0,5.226213278E0
3.355690682E0,2.281714916E0,3.157646894E0,4.268367767E0,5.778920337E0
3.360612915E0,1.380905986E0,4.030754089E0,4.184287071E0,5.971778476E0
3.365535069E0,9.055499732E-2,4.912512779E0,3.661819935E0,6.127797912E0
3.370457452E0,-1.050201058E0,5.474368095E0,2.275321960E0,6.020690852E0
3.375379685E0,-1.396625042E0,5.742479801E0,1.221447945E0,6.034780100E0
3.380302067E0,-1.686597943E0,6.079969883E0,6.849319935E-1,6.346635190E0
3.385224534E0,-1.785992980E0,5.964430809E0,8.670759797E-1,6.286177420E0
3.390146766E0,-1.544268012E0,5.288122177E0,9.054470062E-1,5.582905528E0
3.395069149E0,-7.077969909E-1,4.642286777E0,6.566910148E-1,4.741629065E0
3.399991295E0,-9.444370270E-1,3.914486885E0,2.356850058E-1,4.033697596E0
3.404913526E0,-7.664970160E-1,3.583070040E0,-4.756099880E-1,3.694876648E0
3.409835884E0,-1.247992992E0,2.956094027E0,-1.408053994E0,3.504082541E0
3.414758040E0,-1.609020948E0,2.699819088E0,-2.335421085E0,3.915630622E0
3.419680269E0,-2.216281891E0,2.653175116E0,-3.597181082E0,4.989083618E0
3.424602659E0,-3.016736984E0,2.280635118E0,-4.222053051E0,5.668132897E0
3.429525120E0,-3.798940897E0,2.217880011E0,-4.130034924E0,6.033915159E0
3.434447353E0,-4.645543098E0,2.285963058E0,-4.118821144E0,6.615994665E0
3.439369741E0,-5.069598198E0,2.417715073E0,-4.154100895E0,6.985894811E0
3.444291973E0,-5.463623047E0,2.437936068E0,-4.042274952E0,7.220435988E0
3.449214127E0,-5.356464863E0,2.435457945E0,-3.829457998E0,7.020535577E0
3.454136495E0,-4.658926010E0,2.185920000E0,-3.849087000E0,6.426453808E0
3.459058728E0,-3.936394930E0,1.867272973E0,-3.611764908E0,5.659218952E0
3.463981110E0,-3.157502890E0,1.485285044E0,-3.384700060E0,4.861284877E0
3.468903266E0,-2.573153973E0,1.045560002E0,-2.796519041E0,3.941425609E0
3.473825495E0,-2.300129890E0,7.192699909E-1,-2.248533964E0,3.296035774E0
3.478747866E0,-2.192528009E0,5.696859956E-1,-1.600998044E0,2.773971150E0
3.483670098E0,-1.972321033E0,6.221110225E-1,-6.011819839E-1,2.153715896E0
3.488592486E0,-2.077127934E0,1.037032962E0,8.909720182E-1,2.486710468E0
3.493514719E0,-2.457731009E0,1.322574019E0,-1.525189042E0,3.180541677E0
3.498437101E0,-2.679944992E0,1.533859015E0,-2.060724974E0,3.712332966E0
3.503359262E0,-2.339946985E0,1.591498017E0,-8.649470210E-1,2.959113243E0
3.508281722E0,-1.550642967E0,1.561905980E0,-9.052500129E-2,2.202779762E0
3.513203955E0,-1.090839028E0,1.554695964E0,1.611430049E-1,1.906036829E0
3.518126332E0,-1.027835011E0,1.619423985E0,1.317529976E-1,1.922586203E0
3.523048565E0,-8.708159924E-1,1.630774975E0,-5.336400121E-2,1.849485125E0
3.527970719E0,-6.055589914E-1,1.693546057E0,-2.049220055E-1,1.810191417E0
3.532893082E0,-2.855660021E-1,1.734524012E0,-2.427980006E-1,1.774562582E0
3.537815315E0,-3.263099864E-2,1.760108948E0,-1.664299965E-1,1.768261076E0
3.542737464E0,2.863790095E-1,1.791071057E0,-3.453399986E-2,1.814150233E0
3.547659847E0,5.999249816E-1,1.791147947E0,1.304340065E-1,1.893445004E0
3.552582079E0,9.392340183E-1,1.667171001E0,2.689360082E-1,1.932342171E0
3.557504467E0,1.432333946E0,1.492702961E0,5.549229980E-1,2.141887531E0
3.562426700E0,1.944897056E0,1.322872996E0,9.454759955E-1,2.535062599E0
3.567349083E0,2.314842939E0,1.208822012E0,1.288800955E0,2.912173826E0
3.572271314E0,2.747495890E0,1.141477942E0,1.617269993E0,3.386335451E0
3.577193774E0,3.291075945E0,8.872140050E-1,1.968673944E0,3.936242709E0
3.582116160E0,3.761090994E0,3.996790051E-1,2.318802118E0,4.436484198E0
3.587038310E0,4.073934078E0,-1.022790000E-1,2.630196095E0,4.850291884E0
3.591960541E0,4.285634041E0,-4.832009971E-1,2.524483919E0,4.997315419E0
3.596882656E0,4.399454117E0,-7.327529788E-1,2.073191881E0,4.918358266E0
3.601805039E0,4.574603081E0,-8.682649732E-1,1.501747012E0,4.892455569E0
3.606727271E0,4.958036900E0,-1.008286953E0,1.010447979E0,5.159435783E0
3.611649654E0,5.240389824E0,-1.113090038E0,6.910730004E-1,5.401688332E0
3.616571887E0,5.460093975E0,-1.221658945E0,4.107330143E-1,5.610149588E0
3.621494041E0,5.646934986E0,-1.363374949E0,1.415479928E-1,5.810912305E0
3.626416500E0,5.731173992E0,-1.653182983E0,-3.135229945E-1,5.973078434E0
3.631338885E0,5.644952774E0,-1.885694027E0,-9.369289875E-1,6.024879228E0
3.636261118E0,5.002748966E0,-1.930070043E0,-1.537515044E0,5.578227326E0
3.641183500E0,4.419634819E0,-1.863471985E0,-1.544569969E0,5.038987613E0
3.646105962E0,3.991554976E0,-1.715844035E0,-1.418326974E0,4.570370147E0
3.651028108E0,3.738720894E0,-1.633236051E0,-1.262485981E0,4.270756932E0
3.655950262E0,3.376234055E0,-1.598137975E0,-9.905390143E-1,3.864475245E0
3.660872500E0,2.871702909E0,-1.513700008E0,-6.247439981E-1,3.305793457E0
3.665794885E0,2.360634089E0,-1.274402022E0,-6.128200144E-2,2.683365293E0
3.670717104E0,1.983044982E0,-1.002143025E0,6.650739908E-1,2.319284687E0
3.675639486E0,1.728662014E0,-7.152929902E-1,1.357761025E0,2.311586343E0
3.680561719E0,1.625030041E0,-4.034579992E-1,1.976145983E0,2.590106935E0
3.685483887E0,1.645056009E0,-1.590099931E-1,2.561120987E0,3.048086967E0
3.690406270E0,1.831030965E0,-1.027539968E-1,3.096697092E0,3.598995090E0
3.695328502E0,1.823423028E0,-2.372899950E-1,3.361253023E0,3.831344407E0
3.700250885E0,1.699619055E0,-4.388119876E-1,3.173402071E0,3.626532999E0
3.705173347E0,1.327342987E0,-6.968070269E-1,2.780596018E0,3.158970347E0
3.710095579E0,9.844200015E-1,-1.059296012E0,2.431479931E0,2.829007853E0
3.715017943E0,1.020573020E0,-1.405022025E0,2.087260962E0,2.715200637E0
3.719940099E0,7.028729916E-1,-1.945865035E0,1.590106964E0,2.609379492E0
3.724862330E0,1.698929965E-1,-2.608428955E0,1.404181957E0,2.967236461E0
3.729784711E0,-3.820759952E-1,-3.180756092E0,1.381268024E0,3.488709323E0
3.734706867E0,-9.361360073E-1,-3.754311085E0,1.388780951E0,4.110950605E0
3.739629096E0,-1.482342958E0,-4.345950127E0,1.232655048E0,4.754372894E0
3.744551505E0,-2.332377911E0,-4.907201767E0,7.027289867E-1,5.478543961E0
3.749473967E0,-3.037851095E0,-5.529231071E0,-2.932640016E-1,6.315610762E0
3.754396200E0,-3.667242050E0,-6.221705914E0,-1.967152953E0,7.485183997E0
3.759318378E0,-5.576941967E0,-6.735768795E0,-5.555016994E0,1.036007127E1
3.764240760E0,-8.093568802E0,-6.812119961E0,-8.241571426E0,1.341023243E1
3.769162993E0,-8.503107071E0,-6.502754211E0,-8.999187469E0,1.398477806E1
3.774085371E0,-9.449327469E0,-5.356161118E0,-8.396797180E0,1.372896407E1
3.779007603E0,-9.533156395E0,-3.664958000E0,-6.890891075E0,1.232060744E1
3.783929741E0,-8.546852112E0,-2.063129902E0,-5.221631050E0,1.022597755E1
3.788852124E0,-6.979376793E0,-9.955679774E-1,-3.602328062E0,7.917046386E0
3.793774348E0,-5.540213108E0,-4.534139931E-1,-2.464191914E0,6.080443020E0
3.798696730E0,-4.412711143E0,-3.310360014E-1,-1.851062059E0,4.796669180E0
3.803619001E0,-3.551601887E0,-4.372090101E-1,-1.495229959E0,3.878239331E0
3.808541384E0,-2.884922981E0,-6.888430119E-1,-1.326555014E0,3.249158892E0
3.813463617E0,-2.214772940E0,-1.049489021E0,-1.148115039E0,2.706439455E0
3.818386004E0,-1.638687968E0,-1.475770950E0,-8.721749783E-1,2.371473666E0
3.823308237E0,-1.151118994E0,-1.851518989E0,-5.554850101E-1,2.249835794E0
3.828230620E0,-9.314550161E-1,-2.214108944E0,-2.190749943E-1,2.412028341E0
3.833152866E0,-8.470630050E-1,-2.514980078E0,5.813200027E-2,2.654433999E0
3.838075249E0,-1.011577010E0,-2.695812941E0,2.503109872E-1,2.890216436E0
3.842997482E0,-1.163334966E0,-2.709455967E0,4.764429927E-1,2.986887645E0
3.847919636E0,-1.246531963E0,-2.652687073E0,6.471959949E-1,3.001575136E0
3.852842018E0,-1.216647029E0,-2.464785099E0,8.017349839E-1,2.863245460E0
3.857764242E0,-1.257895947E0,-2.078886986E0,9.110640287E-1,2.595016566E0
3.862686625E0,-1.391512990E0,-1.662559986E0,9.466930032E-1,2.365722247E0
3.867608781E0,-1.629120946E0,-1.371518970E0,9.804459810E-1,2.344434615E0
3.872531013E0,-1.578590989E0,-1.201292992E0,9.150099754E-1,2.184558907E0
3.877453398E0,-1.791152954E0,-1.032142997E0,8.649110198E-1,2.240896951E0
3.882375631E0,-1.883720040E0,-8.393210173E-1,9.059370160E-1,2.252461506E0
3.887298028E0,-2.096335888E0,-6.124370098E-1,8.417419791E-1,2.340562498E0
3.892220261E0,-2.164036989E0,-3.015240133E-1,6.120839715E-1,2.269056987E0
3.897142721E0,-2.228888035E0,-1.200189963E-1,1.373360008E-1,2.236337991E0
3.902065107E0,-2.112379074E0,4.887299985E-2,-3.274869919E-1,2.138172503E0
3.906987338E0,-1.956403017E0,2.958660126E-1,-6.897050142E-1,2.095409857E0
3.911909492E0,-1.672621965E0,5.490429997E-1,-8.874030113E-1,1.971445297E0
3.916831631E0,-1.601097941E0,8.035899997E-1,-9.566860199E-1,2.030891343E0
3.921754013E0,-1.514565945E0,1.102594018E0,-9.288250208E-1,2.091013986E0
3.926676485E0,-1.276613951E0,1.390964985E0,-8.016470075E-1,2.051137414E0
3.931598641E0,-1.097633958E0,1.651962996E0,-6.903070211E-1,2.100072815E0
3.936520872E0,-8.886460066E-1,1.832954049E0,-5.662040114E-1,2.114237275E0
3.941443259E0,-6.395059824E-1,1.902784944E0,-4.585489929E-1,2.059083685E0
3.946365492E0,-6.250219941E-1,2.045851946E0,-3.004339933E-1,2.160190561E0
3.951287875E0,-6.249679923E-1,2.116074085E0,-1.160459965E-1,2.209484374E0
3.956210121E0,-5.144680142E-1,2.201621056E0,-6.295199692E-2,2.261808030E0
3.961132581E0,-4.726260006E-1,2.349947929E0,-1.312479973E-1,2.400595060E0
3.966054737E0,-5.044389963E-1,2.445983887E0,-7.028499991E-2,2.498446689E0
3.970977080E0,-7.562180161E-1,2.683615923E0,7.056000177E-3,2.788137353E0
3.975899236E0,-1.049270988E0,2.979001999E0,4.558400065E-2,3.158718160E0
3.980821456E0,-1.214586020E0,3.222029924E0,4.067400098E-2,3.443595564E0
3.985743841E0,-1.238252044E0,3.369546890E0,-1.706990004E-1,3.593918825E0
3.990666083E0,-1.125504971E0,3.368841887E0,-5.192120075E-1,3.589629257E0
3.995588465E0,-9.174789786E-1,3.217600107E0,-1.040336013E0,3.503857467E0
4.000510698E0,-6.071509719E-1,2.875097990E0,-1.619068980E0,3.355026843E0
4.005433115E0,-2.737930119E-1,2.451452971E0,-2.159532070E0,3.278439117E0
4.010355347E0,7.790300250E-2,2.133420944E0,-2.709345102E0,3.449362939E0
4.015277730E0,4.050999880E-1,1.940096974E0,-2.858983040E0,3.478773677E0
4.020199963E0,6.725199819E-1,1.737490058E0,-2.591029882E0,3.191330550E0
4.025122345E0,9.551190138E-1,1.437294006E0,-2.100424051E0,2.718427411E0
4.030044578E0,1.234166980E0,1.099730968E0,-1.519642949E0,2.245415558E0
4.034966727E0,1.434069037E0,7.706940174E-1,-6.675519943E-1,1.759587718E0
4.039889187E0,1.560356975E0,4.531640112E-1,4.339619875E-1,1.681783136E0
4.044811342E0,1.690240979E0,-4.314300045E-2,2.167227983E0,2.748754812E0
4.049733482E0,1.871724963E0,-4.958229959E-1,4.587775230E0,4.979646207E0
4.054655942E0,2.258245945E0,-6.291750073E-1,6.118133068E0,6.551876691E0
4.059578330E0,2.795058012E0,-6.119099855E-1,6.272738934E0,6.894493226E0
4.064500563E0,3.280144930E0,-4.061979949E-1,5.159118176E0,6.127058668E0
4.069422946E0,3.489614964E0,-1.374800038E-2,3.664896965E0,5.060540620E0
4.074345189E0,3.673449039E0,4.810410142E-1,2.383233070E0,4.405159267E0
4.079267571E0,3.779608011E0,8.848919868E-1,1.381276011E0,4.120241979E0
4.084189804E0,3.988955021E0,1.306457996E0,5.542929769E-1,4.233891279E0
4.089111963E0,4.006711960E0,1.620051980E0,-6.533300132E-2,4.322334733E0
4.094034422E0,3.892246008E0,1.731534958E0,-3.316499889E-1,4.272912825E0
4.098956578E0,3.755296946E0,1.772178054E0,-4.377419949E-1,4.175462640E0
4.103878727E0,3.703265905E0,1.701210022E0,-4.176680148E-1,4.096674319E0
4.108801110E0,3.219491959E0,1.599153042E0,-3.559960127E-1,3.612361012E0
4.113723338E0,2.931813955E0,1.407508969E0,-2.917059958E-1,3.265226938E0
4.118645720E0,2.682517052E0,1.205528021E0,-2.742229998E-1,2.953708482E0
4.123567953E0,2.469752073E0,9.577050209E-1,-3.641720116E-1,2.673854047E0
4.128490365E0,2.123322010E0,5.851399899E-1,-5.174850225E-1,2.262449097E0
4.133412597E0,1.594239950E0,2.770499885E-1,-7.884070277E-1,1.799984266E0
4.138334980E0,1.476220012E0,1.194669977E-1,-9.820719957E-1,1.777065922E0
4.143257218E0,1.284095049E0,-1.738600060E-2,-1.097687006E0,1.689413842E0
4.148179677E0,8.923339844E-1,-1.539939940E-1,-7.116219997E-1,1.151685704E0
4.153102064E0,4.676249921E-1,-2.134030014E-1,-3.065409958E-1,5.984825448E-1
4.158024218E0,7.167440057E-1,-1.708050072E-1,-8.160999976E-3,7.368601781E-1
4.162946449E0,7.584739923E-1,-1.433209926E-1,1.824570000E-1,7.931672338E-1
4.167868602E0,6.398550272E-1,-9.433000349E-3,5.840190053E-1,8.663611463E-1
4.172790946E0,6.890599728E-1,1.617390066E-1,9.765120149E-1,1.206042647E0
4.177713179E0,7.173690200E-1,2.839500010E-1,1.421921968E0,1.617747817E0
4.182635586E0,3.961209953E-1,6.481810212E-1,2.094158888E0,2.227678596E0
4.187557818E0,7.318899781E-2,9.714059830E-1,2.929197073E0,3.086937269E0
4.192480201E0,-6.366399676E-2,1.129956007E0,3.484843969E0,3.664012988E0
4.197402372E0,-1.062119976E-1,1.311094999E0,3.834920883E0,4.054240899E0
4.202324601E0,-3.904109895E-1,1.591220021E0,4.195003033E0,4.503604372E0
4.207247062E0,-5.425050259E-1,1.891944051E0,4.341767788E0,4.767044317E0
4.212169452E0,-6.282870173E-1,2.249691963E0,4.236142159E0,4.837433089E0
4.217091685E0,-5.946660042E-1,2.581155062E0,4.027442932E0,4.820403062E0
4.222014067E0,-5.910599828E-1,2.786201000E0,3.800507069E0,4.749328573E0
4.226936267E0,-5.248609781E-1,2.975063086E0,3.605288982E0,4.703678141E0
4.231858421E0,-4.253799915E-1,3.105042934E0,3.327914953E0,4.571351846E0
4.236780565E0,-2.781400084E-2,3.143336058E0,2.983282089E0,4.333740557E0
4.241702947E0,5.493289828E-1,3.071175098E0,2.574240923E0,4.044823253E0
4.246625175E0,7.249460220E-1,2.928291082E0,2.227082014E0,3.749710615E0
4.251547558E0,9.483590126E-1,2.800839901E0,1.890756011E0,3.509850034E0
4.256469790E0,1.166622043E0,2.719739914E0,1.566609979E0,3.348471146E0
4.261392188E0,1.190917969E0,2.628293037E0,1.661694050E0,3.329780325E0
4.266314421E0,8.913999796E-1,2.577940941E0,1.975152969E0,3.367729602E0
4.271236804E0,5.217159986E-1,2.519001961E0,2.085618973E0,3.311701219E0
4.276159045E0,3.083879948E-1,2.236556053E0,2.328564882E0,3.243377953E0
4.281081428E0,1.308339983E-1,1.874444962E0,2.615705967E0,3.220648872E0
4.286003661E0,-2.197590023E-1,1.774912000E0,2.703588963E0,3.241604526E0
4.290926033E0,-5.641810298E-1,1.885295033E0,2.695107937E0,3.337101195E0
4.295848189E0,-8.345389962E-1,2.069327116E0,2.631012917E0,3.449753472E0
4.300770409E0,-9.300299883E-1,2.365550995E0,2.496701956E0,3.562907232E0
4.305692794E0,-9.126219749E-1,2.601835966E0,2.373581886E0,3.638175399E0
4.310615026E0,-8.009229898E-1,2.845501900E0,2.206868887E0,3.688987528E0
4.315537409E0,-8.503580093E-1,3.119889021E0,2.196445942E0,3.909116399E0
4.320459632E0,-6.616070271E-1,3.525473118E0,2.235857964E0,4.226789017E0
4.325382014E0,-6.323990226E-1,3.727291107E0,2.258181095E0,4.403635927E0
4.330304247E0,-8.959379792E-1,3.918656111E0,2.106539011E0,4.538290117E0
4.335226391E0,-1.087798953E0,4.129946232E0,1.950896978E0,4.695291414E0
4.340148851E0,-1.148651004E0,4.117005825E0,1.753783941E0,4.620053485E0
4.345071235E0,-1.196828961E0,4.090515137E0,1.606739044E0,4.554813279E0
4.349993468E0,-1.075184941E0,3.923563957E0,1.534590006E0,4.348027515E0
4.354915851E0,-8.074740171E-1,3.661463976E0,1.466367960E0,4.025986554E0
4.359838083E0,-4.073149860E-1,3.260809898E0,1.388380051E0,3.567406040E0
4.364760452E0,2.634629905E-1,2.714351892E0,1.129762053E0,2.951860641E0
4.369682608E0,1.206140995E0,1.925114036E0,9.806150198E-1,2.474357688E0
4.374604786E0,2.086946964E0,7.847300172E-1,6.191570163E-1,2.313980173E0
4.379527245E0,2.830173016E0,-7.648130059E-1,-4.947499931E-2,2.932109481E0
4.384449478E0,3.514698982E0,-2.664199114E0,-7.687289715E-1,4.476830361E0
4.389371866E0,4.625722885E0,-5.016893864E0,-2.515444040E0,7.272825790E0
4.394294022E0,5.760383129E0,-7.541061878E0,-3.693434954E0,1.018288220E1
4.399216250E0,6.800494194E0,-9.973290443E0,-4.076347828E0,1.274087341E1
4.404138712E0,7.660288811E0,-1.256053352E1,-4.376327991E0,1.534924343E1
4.409061097E0,8.489644051E0,-1.543207264E1,-4.820828915E0,1.826097789E1
4.413983313E0,8.565942764E0,-1.787180710E1,-5.657952785E0,2.061041713E1
4.418905696E0,8.140925407E0,-1.956849289E1,-6.934185982E0,2.229985461E1
4.423827621E0,7.418098927E0,-2.018739319E1,-7.856126785E0,2.289711256E1
4.428750081E0,6.186186790E0,-1.968345261E1,-8.345159531E0,2.225643505E1
4.433672236E0,5.224515915E0,-1.755378151E1,-7.719470024E0,1.987513596E1
4.438594619E0,3.795398951E0,-1.416828346E1,-6.893755913E0,1.620707191E1
4.443516852E0,1.986588001E0,-1.062228394E1,-7.792413235E0,1.332295582E1
4.448439258E0,1.189453006E0,-7.690134048E0,-8.930526733E0,1.184513689E1
4.453361491E0,7.793409824E-1,-5.608043194E0,-1.003077126E1,1.151841538E1
4.458283889E0,4.630849957E-1,-3.856700897E0,-1.050796890E1,1.120294604E1
4.463206045E0,1.157789946E0,-2.555629015E0,-1.014532471E1,1.052612610E1
4.468128581E0,1.943778038E0,-1.428385973E0,-9.608359337E0,9.906519505E0
4.473050722E0,2.652478933E0,-5.190070271E-1,-9.076482773E0,9.470351224E0
4.477973105E0,3.074369907E0,1.284299940E-1,-8.526292801E0,9.064541550E0
4.482895337E0,3.419773102E0,2.638030052E-1,-7.791265011E0,8.512828588E0
4.487817506E0,3.732249975E0,1.443749964E-1,-7.665128231E0,8.526706563E0
4.492739889E0,4.021195889E0,1.343580037E-1,-6.550970078E0,7.687865595E0
4.497662126E0,4.116345882E0,1.772799939E-1,-5.678641796E0,7.015889414E0
4.502584508E0,4.351469040E0,3.373990059E-1,-4.958456039E0,6.605710196E0
4.507506741E0,4.572362900E0,6.528710127E-1,-3.768743038E0,5.961221950E0
4.512429129E0,4.012447834E0,9.835889935E-1,-2.333336115E0,4.744643543E0
4.517351285E0,3.491091013E0,1.215877056E0,-7.900019884E-1,3.780234995E0
4.522273513E0,3.209264994E0,1.379441023E0,2.682580054E-1,3.503455679E0
4.527195913E0,2.511451006E0,1.623167038E0,1.301514030E0,3.261287500E0
4.532118375E0,1.857905030E0,1.947113037E0,2.381449938E0,3.593656089E0
4.537040607E0,1.399737954E0,2.441376925E0,2.948736906E0,4.076105613E0
4.541962999E0,5.422090292E-1,3.306992054E0,3.141825914E0,4.593610470E0
4.546885232E0,-2.797319889E-1,4.211634159E0,2.926876068E0,5.136410789E0
4.551807396E0,-8.869649768E-1,4.992898941E0,2.462017059E0,5.637133554E0
4.556729778E0,-1.462488055E0,5.572737217E0,1.796388030E0,6.035004669E0
4.561652020E0,-2.038402081E0,5.686200142E0,1.268543959E0,6.172289597E0
4.566574403E0,-1.908419013E0,5.341518879E0,8.388900161E-1,5.733901248E0
4.571496635E0,-1.644701958E0,4.887246132E0,5.417749882E-1,5.184953174E0
4.576418799E0,-1.457465053E0,4.277063847E0,3.820390105E-1,4.534692198E0
4.581341182E0,-1.194928050E0,3.716191053E0,-9.536600113E-2,3.904743739E0
4.586263415E0,-1.297001004E0,3.098572016E0,-7.471470237E-1,3.441160969E0
4.591185797E0,-1.343060017E0,2.609416008E0,-1.691864967E0,3.387516668E0
4.596108259E0,-1.654407978E0,2.530597925E0,-2.893388987E0,4.184816776E0
4.601030415E0,-2.206943989E0,2.325262070E0,-4.009133816E0,5.133283493E0
4.605952627E0,-3.091799974E0,1.819808006E0,-4.745800018E0,5.949247522E0
4.610875009E0,-3.456631899E0,1.485934973E0,-4.461365223E0,5.836101994E0
4.615797179E0,-3.842688084E0,1.125339985E0,-4.137054920E0,5.757418276E0
4.620719408E0,-3.891494989E0,1.001322985E0,-3.755039930E0,5.499700524E0
4.625641792E0,-3.978286028E0,8.621829748E-1,-3.432904959E0,5.324937151E0
4.630564025E0,-4.074650764E0,8.047490120E-1,-3.282702923E0,5.294009662E0
4.635486427E0,-3.929239988E0,7.100049853E-1,-3.266777992E0,5.158960401E0
4.640408660E0,-3.500956059E0,4.541560113E-1,-3.235177040E0,4.788457109E0
4.645330813E0,-2.917881966E0,1.553640068E-1,-3.361393929E0,4.453890690E0
4.650253263E0,-2.370091915E0,-2.511399984E-2,-3.335514069E0,4.091896932E0
4.655175419E0,-1.846308947E0,-1.582259983E-1,-3.101536036E0,3.612951421E0
4.660097878E0,-1.550348043E0,-1.806389987E-1,-2.711097002E0,3.128299292E0
4.665020249E0,-1.378906965E0,-3.076899983E-2,-1.135272026E0,1.786385659E0
4.669942482E0,-1.311105013E0,2.390719950E-1,9.589939713E-1,1.641895615E0
4.674864864E0,-1.510946989E0,4.880110025E-1,-2.900002956E0,3.306226352E0
4.679787097E0,-1.336336970E0,6.716970205E-1,-2.079164028E0,2.561229479E0
4.684709251E0,-5.438799858E-1,7.016260028E-1,-8.043239713E-1,1.197923845E0
4.689631405E0,-2.366700023E-2,8.322659731E-1,-5.375940204E-1,9.910772460E-1
4.694553788E0,-4.936899990E-2,1.165722013E0,-8.036159873E-1,1.416737013E0
4.699476249E0,-2.791410089E-1,1.485728025E0,-1.164731026E0,1.908377801E0
4.704398467E0,-2.531380057E-1,1.708575010E0,-1.436993957E0,2.246833115E0
4.709320621E0,-2.936199903E-1,1.959841013E0,-1.212695003E0,2.323320612E0
4.714243004E0,-1.987089962E-1,2.205454111E0,-1.076307058E0,2.462102757E0
4.719165237E0,-1.805949956E-1,2.345756054E0,-1.139188051E0,2.613988415E0
4.724087697E0,7.816299796E-2,2.413274050E0,-1.191022992E0,2.692310692E0
4.729010083E0,3.572379947E-1,2.383373976E0,-1.127660990E0,2.660772407E0
4.733932237E0,6.304619908E-1,2.322504997E0,-9.454470277E-1,2.585610540E0
4.738854468E0,8.359950185E-1,2.278112888E0,-6.046370268E-1,2.500854241E0
4.743776832E0,1.049154997E0,2.336604118E0,-2.959699929E-1,2.578379966E0
4.748698987E0,1.288136005E0,2.497819901E0,4.513000138E-3,2.810412602E0
4.753621192E0,1.591034055E0,2.472659111E0,4.080410004E-1,2.968489498E0
4.758543577E0,1.716994047E0,1.946874976E0,1.007501006E0,2.784501573E0
4.763465810E0,1.911923051E0,1.044931054E0,1.402557015E0,2.591234617E0
4.768388197E0,2.378344059E0,1.483619958E-1,1.456954956E0,2.793071694E0
4.773310430E0,3.163644075E0,-5.400829911E-1,1.546285033E0,3.562489421E0
4.778232813E0,3.935674906E0,-1.080484986E0,1.737010002E0,4.435559549E0
4.783155032E0,4.379668236E0,-1.632488012E0,1.880836010E0,5.038259130E0
4.788077414E0,4.762675762E0,-2.104598045E0,1.714966059E0,5.482109259E0
4.792999647E0,4.909110069E0,-2.418370008E0,1.453466058E0,5.662193811E0
4.797922034E0,5.002868176E0,-2.810971022E0,9.144440293E-1,5.810891149E0
4.802844266E0,4.906723022E0,-3.221046925E0,2.355570048E-1,5.874228563E0
4.807766440E0,4.722393990E0,-3.609936953E0,-3.182100058E-1,5.952638692E0
4.812688900E0,4.669744015E0,-3.855642080E0,-7.337170243E-1,6.100067679E0
4.817611045E0,4.761028767E0,-3.907533884E0,-1.021306992E0,6.243339166E0
4.822533427E0,5.077799797E0,-3.690651894E0,-1.221665025E0,6.395109664E0
4.827455674E0,5.304336071E0,-3.294181108E0,-1.350456953E0,6.388375718E0
4.832378057E0,4.485157967E0,-2.649828911E0,-1.486093044E0,5.417260173E0
4.837300289E0,3.808820963E0,-2.426537037E0,-1.036910057E0,4.633614311E0
4.842222658E0,3.639861107E0,-2.451530933E0,-5.337989926E-1,4.420806958E0
4.847144814E0,3.188378096E0,-2.473715067E0,-2.045989931E-1,4.040653643E0
4.852067273E0,3.669641018E0,-2.243390083E0,-2.847279906E-1,4.310467990E0
4.856989501E0,3.158905983E0,-2.017929077E0,1.634930074E-1,3.751993435E0
4.861911884E0,3.639170885E0,-1.594195008E0,6.707890034E-1,4.029265484E0
4.866834117E0,4.002367020E0,-1.209964991E0,1.398156047E0,4.408831747E0
4.871756485E0,3.463567972E0,-1.140485048E0,2.712897062E0,4.544977416E0
4.876678641E0,2.421576977E0,-1.224236965E0,3.841065884E0,4.702826631E0
4.881600865E0,1.363911986E0,-1.508123994E0,4.252340794E0,4.713501471E0
4.886523250E0,7.084230185E-1,-1.925758958E0,3.915190935E0,4.420308903E0
4.891445482E0,1.502050012E-1,-2.512026072E0,3.152524948E0,4.033763760E0
4.896367636E0,-5.393869877E-1,-3.247721910E0,2.299143076E0,4.015556601E0
4.901290019E0,-1.255136967E0,-3.876116037E0,1.591606021E0,4.374111803E0
4.906212281E0,-1.661685944E0,-4.328282833E0,1.002544999E0,4.743451163E0
4.911134740E0,-2.263384104E0,-4.624131203E0,7.042369843E-1,5.196291631E0
4.916057125E0,-2.812378883E0,-4.714231968E0,4.959670007E-1,5.511754829E0
4.920979358E0,-3.228601933E0,-4.520064831E0,1.537159979E-1,5.556841290E0
4.925901740E0,-4.030693054E0,-4.085418224E0,-3.960820138E-1,5.752739306E0
4.930823896E0,-4.728653908E0,-3.609035969E0,-1.354086995E0,6.100726186E0
4.935746125E0,-5.921404839E0,-3.114381075E0,-2.840559959E0,7.268506423E0
4.940668281E0,-6.381239891E0,-2.732449055E0,-4.743915081E0,8.407807721E0
4.945590667E0,-6.831058025E0,-2.332406998E0,-6.214620113E0,9.524966105E0
4.950513129E0,-7.926727772E0,-1.754138947E0,-6.953525066E0,1.068931838E1
4.955435285E0,-8.576013565E0,-1.374155998E0,-6.747561932E0,1.099845014E1
4.960357544E0,-8.862513542E0,-1.042901993E0,-5.850693226E0,1.067063269E1
4.965279698E0,-8.502031326E0,-7.724210024E-1,-4.643006802E0,9.717956732E0
4.970202389E0,-8.148793221E0,-5.806170106E-1,-3.603260994E0,8.928798175E0
4.975124319E0,-7.362906933E0,-6.196399927E-1,-2.708724976E0,7.869786733E0
4.980046778E0,-6.535087109E0,-8.666179776E-1,-1.992370963E0,6.886794050E0
4.984969177E0,-5.820230007E0,-1.391185045E0,-1.619673967E0,6.199501345E0
4.989891410E0,-5.038834095E0,-2.158126116E0,-1.548459053E0,5.696058533E0
4.994813792E0,-4.365911007E0,-2.960266113E0,-1.712221980E0,5.545814502E0
4.999735939E0,-3.587622881E0,-3.792635918E0,-1.909775972E0,5.558989963E0
5.004658168E0,-2.740540981E0,-4.444760799E0,-1.984446049E0,5.586097883E0
5.009580630E0,-2.013366938E0,-4.949744225E0,-2.085002899E0,5.735926377E0
5.014503014E0,-1.465626955E0,-5.288586140E0,-1.980847001E0,5.834463178E0
5.019425170E0,-1.083037019E0,-5.515906811E0,-1.887444019E0,5.929640972E0
5.024347410E0,-7.923660278E-1,-5.593770027E0,-1.545328975E0,5.857145096E0
5.029269564E0,-7.162349820E-1,-5.435773849E0,-1.100842953E0,5.592180710E0
5.034191946E0,-6.603220105E-1,-4.893570900E0,-6.260709763E-1,4.977451776E0
5.039114408E0,-6.316800117E-1,-4.074658871E0,-2.830240130E-1,4.133033649E0
5.044036641E0,-8.854249716E-1,-3.165446043E0,-5.419100076E-2,3.287394515E0
5.048959023E0,-9.573349953E-1,-2.405344963E0,2.140299976E-2,2.588944336E0
5.053881242E0,-1.089984059E0,-1.651147008E0,1.684200019E-1,1.985627606E0
5.058803625E0,-1.157631993E0,-8.691229820E-1,3.198539913E-1,1.482495587E0
5.063725766E0,-9.775170088E-1,-1.737760007E-1,2.680749893E-1,1.028397686E0
5.068647995E0,-8.326950073E-1,4.059560001E-1,1.495990008E-1,9.383821771E-1
5.073570156E0,-8.265799880E-1,8.744969964E-1,9.566400200E-2,1.207116844E0
5.078492539E0,-8.205459714E-1,1.235995054E0,1.025609970E-1,1.487110696E0
5.083414781E0,-7.885059714E-1,1.537791014E0,3.983899951E-2,1.728620842E0
5.088337163E0,-7.071719766E-1,1.875350952E0,-7.375799865E-2,2.005610541E0
5.093259396E0,-7.881519794E-1,2.140677929E0,-8.052200079E-2,2.282579534E0
5.098181779E0,-7.786570191E-1,2.357620001E0,-6.894099712E-2,2.483834069E0
5.103104011E0,-7.610189915E-1,2.552386045E0,-7.265599817E-2,2.664414255E0
5.108026394E0,-7.145059705E-1,2.700947046E0,1.115899999E-2,2.793878711E0
5.112948613E0,-6.012060046E-1,2.724149942E0,8.868400007E-2,2.791112040E0
5.117871072E0,-5.408290029E-1,2.710370064E0,1.159349978E-1,2.766232604E0
5.122793228E0,-4.422839880E-1,2.683398008E0,1.951380074E-1,2.726594733E0
5.127715391E0,-3.698480129E-1,2.669450998E0,2.609220147E-1,2.707551751E0
5.132637774E0,-5.212900043E-1,2.721040010E0,2.811749876E-1,2.784755174E0
5.137559992E0,-6.567080021E-1,2.816303968E0,2.568480074E-1,2.903240318E0
5.142482375E0,-5.362340212E-1,2.815691948E0,6.057799980E-2,2.866938745E0
5.147404608E0,-4.391309917E-1,2.933784008E0,2.248400003E-1,2.974975237E0
5.152326995E0,-1.740030050E-1,3.031610012E0,7.127100229E-2,3.037435739E0
5.157249151E0,2.773930132E-1,2.915545940E0,-3.656649888E-1,2.951451490E0
5.162171380E0,5.248730183E-1,2.963871956E0,-7.654160261E-1,3.105783371E0
5.167093751E0,5.441840291E-1,3.088172913E0,-1.218315959E0,3.364110874E0
5.172016212E0,4.005099833E-2,3.180737019E0,-1.812803984E0,3.661277147E0
5.176938445E0,-6.233400106E-1,3.224751949E0,-2.493935108E0,4.123989601E0
5.181860818E0,-1.139410973E0,3.380661964E0,-3.055726051E0,4.697296497E0
5.186783050E0,-1.111361027E0,3.562824965E0,-3.718759060E0,5.268587477E0
5.191705199E0,-8.802580237E-1,3.526588917E0,-4.084627151E0,5.467710905E0
5.196627582E0,-5.416870117E-1,3.283874989E0,-4.086082935E0,5.270041130E0
5.201549729E0,-1.257809997E-1,2.870791912E0,-3.659642935E0,4.652983287E0
5.206471958E0,2.067610025E-1,2.258830070E0,-2.698501110E0,3.525191008E0
5.211394342E0,5.209990144E-1,1.477424979E0,-1.575572968E0,2.221858393E0
5.216316574E0,7.363430262E-1,5.735000130E-3,1.477691054E0,1.651001149E0
5.221238957E0,1.207434058E0,-1.584738970E0,7.012355804E0,7.289885358E0
5.226161189E0,1.831846952E0,-2.729765892E0,9.580635071E0,1.012896112E1
5.231083572E0,2.168680906E0,-2.662918091E0,7.434600830E0,8.189481005E0
5.236006034E0,2.483302116E0,-1.899459958E0,4.312843800E0,5.326852652E0
5.240928189E0,2.668562889E0,-9.796370268E-1,2.256042957E0,3.629138523E0
5.245850420E0,2.789494038E0,-2.605969906E-1,1.064563036E0,2.997078950E0
5.250772803E0,2.719765902E0,7.058219910E-1,2.441579998E-1,2.820447548E0
5.255694969E0,2.808136940E0,1.376957059E0,-1.765480042E-1,3.132540984E0
5.260617197E0,3.119179010E0,1.754328012E0,-2.891489863E-1,3.590341434E0
5.265539582E0,3.013952971E0,2.009872913E0,-1.576620042E-1,3.626066594E0
5.270461815E0,2.937560081E0,2.189038992E0,1.717430055E-1,3.667512318E0
5.275384198E0,3.050115108E0,2.306715012E0,6.571819782E-1,3.880209334E0
5.280306439E0,2.674386978E0,2.260693073E0,9.609919786E-1,3.631333703E0
5.285228822E0,2.693104982E0,2.245781898E0,1.059309959E0,3.663125492E0
5.290151055E0,2.914462090E0,2.149310112E0,9.109730124E-1,3.734098962E0
5.295073205E0,3.050137997E0,1.940556049E0,4.890030026E-1,3.648043793E0
5.299995664E0,3.222368002E0,1.700863957E0,-4.701530039E-1,3.673913117E0
5.304918049E0,2.792151928E0,1.467973948E0,-1.274157047E0,3.402136987E0
5.309840267E0,2.370198011E0,1.283905983E0,-1.553140044E0,3.111028316E0
5.314762649E0,2.081495047E0,1.067281008E0,-1.449898958E0,2.752075102E0
5.319684805E0,1.839792967E0,8.672369719E-1,-9.070050120E-1,2.227015092E0
5.324607029E0,1.656883955E0,6.698589921E-1,-3.685069978E-1,1.824766538E0
5.329529490E0,1.557968020E0,5.330979824E-1,2.049070001E-1,1.659350683E0
5.334451646E0,1.471704960E0,4.429430068E-1,7.022470236E-1,1.689752905E0
5.339374020E0,1.488808990E0,4.114840031E-1,1.209908962E0,1.962078232E0
5.344296176E0,1.010622978E0,1.872459948E-1,1.582085967E0,1.886641427E0
5.349218404E0,7.341150045E-1,5.505000055E-2,2.032524109E0,2.161737633E0
5.354140880E0,5.199530125E-1,1.251060069E-1,2.319454908E0,2.380309585E0
5.359063265E0,4.089500010E-1,1.863459945E-1,2.615022898E0,2.653358191E0
5.363985497E0,2.169570029E-1,2.802740037E-1,2.750493050E0,2.773235633E0
5.368907890E0,8.460900187E-2,4.284569919E-1,2.988711119E0,3.020451660E0
5.373830123E0,7.833199948E-2,7.244240046E-1,3.360893011E0,3.438971921E0
5.378752505E0,7.793200016E-2,1.060670972E0,3.539570093E0,3.695896745E0
5.383674416E0,7.865999639E-2,1.420485973E0,3.618237019E0,3.887879489E0
5.388596798E0,2.285300009E-2,1.720213056E0,3.623609066E0,4.011258890E0
5.393519036E0,2.804209888E-1,1.955404043E0,3.563255072E0,4.074190424E0
5.398441419E0,6.158019900E-1,2.073677063E0,3.578814983E0,4.181777772E0
5.403363651E0,5.644389987E-1,2.182781935E0,3.443473101E0,4.115900309E0
5.408286024E0,5.885750055E-1,2.321240902E0,3.226794958E0,4.018306305E0
5.413208257E0,7.183520198E-1,2.453291893E0,3.000268936E0,3.941609370E0
5.418130639E0,1.077952981E0,2.512447119E0,2.744640112E0,3.873941468E0
5.423052887E0,1.473031998E0,2.539484978E0,2.459786892E0,3.830059891E0
5.427975347E0,1.602658033E0,2.648380995E0,2.240048885E0,3.821027830E0
5.432897503E0,1.554695964E0,2.709127903E0,2.196321011E0,3.818413220E0
5.437819880E0,1.529274940E0,2.489677906E0,2.285669088E0,3.709644336E0
5.442742113E0,1.435711980E0,1.918529034E0,2.368719101E0,3.369399460E0
5.447664261E0,1.233973980E0,1.409543037E0,2.466217041E0,3.097051800E0
5.452586643E0,9.389780164E-1,1.192152977E0,2.529098034E0,2.949448304E0
5.457508871E0,5.656729937E-1,1.263368011E0,2.653754950E0,2.993075341E0
5.462431254E0,1.975280046E-1,1.565454960E0,2.779268026E0,3.195934497E0
5.467353410E0,-6.188400090E-2,1.959666014E0,2.929177046E0,3.524797679E0
5.472275874E0,-6.750299782E-2,2.370019913E0,3.034687042E0,3.851087702E0
5.477198107E0,3.005770147E-1,2.747103930E0,3.032030106E0,4.102454522E0
5.482120490E0,6.990029812E-1,3.055073023E0,3.041589022E0,4.367303530E0
5.487042736E0,1.255179048E0,3.282145023E0,3.126406908E0,4.703442415E0
5.491965119E0,1.797598004E0,3.622596025E0,3.129121065E0,5.113311959E0
5.496887352E0,1.704414964E0,3.817578077E0,2.649343967E0,4.949541009E0
5.501809721E0,1.579735041E0,3.965365887E0,2.187491894E0,4.796332995E0
5.506731953E0,1.453546047E0,4.058805943E0,1.765383005E0,4.658677811E0
5.511654025E0,1.329995990E0,4.026006222E0,1.414494038E0,4.469721335E0
5.516576485E0,1.276134014E0,3.941044092E0,1.159271002E0,4.301657333E0
5.521498651E0,1.327978969E0,3.746350050E0,9.094790220E-1,4.077477030E0
5.526420879E0,1.483803034E0,3.393893003E0,7.473400235E-1,3.778716485E0
5.531343341E0,1.692191958E0,2.931312084E0,5.632900000E-1,3.431238812E0
5.536265501E0,1.990749955E0,2.248246908E0,2.238170058E-1,3.011277735E0
5.541187883E0,2.260195971E0,1.392161965E0,-1.851550043E-1,2.660992886E0
5.546110116E0,2.419523954E0,4.343590140E-1,-4.111149907E-1,2.492344169E0
5.551032480E0,2.400533915E0,-6.757869720E-1,-5.075160265E-1,2.544960437E0
5.555954941E0,2.534627914E0,-1.964872956E0,-9.204130173E-1,3.336498842E0
5.560877174E0,2.710196972E0,-3.600900888E0,-1.335139990E0,4.700452492E0
5.565799314E0,3.091053963E0,-5.780622959E0,-2.488428116E0,7.011596885E0
5.570721697E0,3.603003979E0,-8.401380539E0,-3.912256002E0,9.943368627E0
5.575643834E0,4.251111031E0,-1.124395275E1,-4.208046913E0,1.273601497E1
5.580566062E0,4.887677193E0,-1.449537754E1,-4.285653114E0,1.588622614E1
5.585488447E0,5.282001972E0,-1.777740860E1,-4.408410072E0,1.906226326E1
5.590410680E0,5.375995159E0,-2.048904228E1,-4.597911835E0,2.167586148E1
5.595333062E0,5.407592773E0,-2.249115372E1,-5.851671219E0,2.386076510E1
5.600255218E0,5.237618923E0,-2.259133148E1,-7.421587944E0,2.434914532E1
5.605177678E0,4.438008785E0,-2.106034088E1,-8.683668137E0,2.320861849E1
5.610099911E0,2.580499887E0,-1.789134789E1,-9.417043686E0,2.038234581E1
5.615022293E0,7.356230021E-1,-1.408090210E1,-9.339944839E0,1.691293927E1
5.619944526E0,-1.347749949E0,-1.012790775E1,-8.264592171E0,1.314132524E1
5.624866909E0,-2.732935905E0,-6.727222919E0,-7.918735981E0,1.074387483E1
5.629789141E0,-3.669593096E0,-3.947211981E0,-8.177338600E0,9.793633774E0
5.634711524E0,-4.375912189E0,-1.851258993E0,-8.477761269E0,9.718446557E0
5.639633671E0,-4.268901825E0,-3.061420023E-1,-8.274698257E0,9.316001125E0
5.644555900E0,-2.969868898E0,4.769519866E-1,-8.840385437E0,9.338095049E0
5.649478288E0,-9.443259835E-1,4.822230041E-1,-8.471179008E0,8.537280854E0
5.654400521E0,1.101464987E0,-4.256900027E-2,-7.812143803E0,7.889526477E0
5.659322675E0,2.298274994E0,-1.608960032E-1,-6.494608879E0,6.891146491E0
5.664245068E0,2.683554888E0,6.797499955E-2,-5.119427204E0,5.780538239E0
5.669167529E0,2.690661907E0,2.518459857E-1,-4.058030128E0,4.875520118E0
5.674089762E0,2.955008984E0,5.057899952E-1,-2.741724014E0,4.062628728E0
5.679012144E0,3.532982111E0,9.954959750E-1,-2.047466993E0,4.202986548E0
5.683934377E0,3.625070095E0,1.744997978E0,-1.001863003E0,4.146068091E0
5.688856760E0,3.887691021E0,2.400285959E0,6.338459849E-1,4.612729658E0
5.693778902E0,4.119977951E0,2.940732956E0,1.708407044E0,5.342357463E0
5.698701361E0,3.878202915E0,3.540585995E0,2.321487904E0,5.741560165E0
5.703623300E0,3.271384001E0,4.078481197E0,2.751610994E0,5.908242143E0
5.708545683E0,1.798184991E0,4.747749805E0,3.026833057E0,5.910695038E0
5.713467930E0,-5.945299938E-2,5.751702785E0,2.499058962E0,6.271436461E0
5.718390312E0,-1.014857054E0,6.447224140E0,2.156302929E0,6.873592676E0
5.723312545E0,-1.575222015E0,6.746341228E0,1.704931021E0,7.134510085E0
5.728234933E0,-1.952294946E0,6.807855129E0,9.350590110E-1,7.143716286E0
5.733157166E0,-2.299839973E0,6.601294041E0,-3.678570092E-1,7.000118977E0
5.738079319E0,-2.494312048E0,5.560280800E0,-9.158980250E-1,6.162563132E0
5.743001779E0,-1.796512961E0,4.440577030E0,-8.570640087E-1,4.866286253E0
5.747924164E0,-1.198791981E0,3.474654913E0,-5.266379714E-1,3.713176070E0
5.752846396E0,-8.894180059E-1,2.681663036E0,-5.899919868E-1,2.886255632E0
5.757768789E0,-1.266095042E0,2.230768919E0,-1.263303995E0,2.859241789E0
5.762691022E0,-2.017592907E0,2.067949057E0,-2.049397945E0,3.542192312E0
5.767613200E0,-2.722390890E0,1.946007967E0,-2.821686029E0,4.377244706E0
5.772535582E0,-3.340581894E0,1.961292028E0,-3.445736885E0,5.184520855E0
5.777457805E0,-3.771353960E0,1.906013966E0,-3.865405083E0,5.726897623E0
5.782380188E0,-4.124941826E0,1.881945014E0,-4.105574131E0,6.116584100E0
5.787302421E0,-4.253858089E0,1.773463964E0,-4.101417065E0,6.169449328E0
5.792224588E0,-4.166925907E0,1.472715974E0,-3.874857903E0,5.877643033E0
5.797146971E0,-3.762892962E0,1.028749943E0,-3.811681986E0,5.454045237E0
5.802069204E0,-3.128379107E0,4.784759879E-1,-3.508690119E0,4.725103327E0
5.806991586E0,-2.506635904E0,1.321379989E-1,-3.075171947E0,3.969554952E0
5.811914048E0,-1.801252007E0,3.968999907E-2,-1.009011984E0,2.064991350E0
5.816836281E0,-1.857463002E0,2.040610015E-1,-2.233226061E0,2.911890852E0
5.821758658E0,-2.074486017E0,4.489560127E-1,-3.547879934E0,4.134308378E0
5.826680891E0,-1.926844001E0,6.009600163E-1,-3.021107912E0,3.633314432E0
5.831603045E0,-1.323233962E0,6.119909883E-1,-2.026390076E0,2.496344893E0
5.836525199E0,-1.037758946E0,6.694989800E-1,-1.523463964E0,1.961151439E0
5.841447663E0,-1.176180959E0,8.664199710E-1,-1.457805991E0,2.063803169E0
5.846369819E0,-1.291643023E0,1.112498999E0,-1.471380949E0,2.251878687E0
5.851292202E0,-1.221176028E0,1.394575000E0,-1.381873012E0,2.312073386E0
5.856214435E0,-1.199797988E0,1.699957013E0,-1.125615954E0,2.365666996E0
5.861136817E0,-1.268579006E0,1.927845955E0,-5.184230208E-1,2.365300224E0
5.866059050E0,-8.480319977E-1,2.243267059E0,-5.015140176E-1,2.450086055E0
5.870981515E0,-3.739449978E-1,2.622064114E0,-5.699700117E-1,2.709228837E0
5.875903901E0,-1.289909929E-1,2.865122080E0,-7.339040041E-1,2.960435491E0
5.880826055E0,4.973300174E-2,3.036971092E0,-8.823819757E-1,3.162951902E0
5.885748286E0,2.883900106E-1,3.165613890E0,-8.736709952E-1,3.296601448E0
5.890670669E0,5.974659920E-1,3.258569956E0,-6.342419982E-1,3.373055985E0
5.895592833E0,1.146927953E0,3.118582964E0,-3.071399964E-2,3.322942488E0
5.900515062E0,2.110483885E0,2.541587114E0,1.763795972E0,3.744967759E0
5.905437447E0,3.204771042E0,2.013803005E0,2.382688999E0,4.472490005E0
5.910359680E0,3.821727991E0,1.482023001E0,2.196265936E0,4.650331286E0
5.915282062E0,4.002327919E0,9.921730161E-1,1.959360003E0,4.565317918E0
5.920204286E0,3.795629025E0,4.331589937E-1,2.033834934E0,4.327922243E0
5.925126669E0,3.747931957E0,-2.203750014E-1,2.315174103E0,4.410849150E0
5.930048901E0,3.882061005E0,-8.616110086E-1,2.558163881E0,4.728316150E0
5.934971055E0,4.326703072E0,-1.570652962E0,2.581918001E0,5.277652012E0
5.939893515E0,4.781888008E0,-2.229299068E0,2.411858082E0,5.801145289E0
5.944815899E0,5.066806793E0,-2.929614067E0,1.925804019E0,6.161484462E0
5.949738132E0,5.196872234E0,-3.752057076E0,1.189648986E0,6.519254407E0
5.954660286E0,5.330330849E0,-4.573412895E0,4.333620071E-1,7.036784429E0
5.959582664E0,5.230823994E0,-5.144103050E0,-3.110420108E-1,7.343028188E0
5.964505125E0,4.885814190E0,-5.271957874E0,-9.392489791E-1,7.248924663E0
5.969427348E0,4.313189030E0,-4.889237881E0,-1.348912954E0,6.657913548E0
5.974349502E0,3.363245010E0,-4.037600994E0,-1.467326045E0,5.455885309E0
5.979271685E0,3.476037979E0,-3.613146067E0,-6.043710113E-1,5.050042460E0
5.984194144E0,3.664150953E0,-3.339875937E0,1.967200078E-2,4.957939135E0
5.989116529E0,3.361283064E0,-2.875790119E0,8.453000337E-3,4.423625673E0
5.994038762E0,2.562750101E0,-2.328583956E0,-2.035329938E-1,3.468633304E0
5.998961144E0,1.897732973E0,-1.705523968E0,-1.744569987E-1,2.557467045E0
6.003883377E0,1.645161986E0,-1.077677011E0,5.397830009E-1,2.039438989E0
6.008805545E0,2.185000896E0,-4.691379964E-1,1.522932053E0,2.704374496E0
6.013727928E0,2.590744019E0,1.173409969E-1,2.701060057E0,3.744522521E0
6.018650389E0,2.546674013E0,4.100750089E-1,3.723867893E0,4.530000235E0
6.023572305E0,2.200422049E0,5.013809800E-1,3.830966949E0,4.446295969E0
6.028494688E0,1.831078053E0,3.409369886E-1,3.132272959E0,3.644203446E0
6.033417144E0,1.279265046E0,-2.226899937E-2,2.210890055E0,2.554417703E0
6.038339300E0,6.136360168E-1,-5.954589844E-1,1.403532028E0,1.643478846E0
6.043261531E0,1.166999992E-2,-1.276638985E0,7.157409787E-1,1.463635349E0
6.048183937E0,-3.925999999E-1,-2.098648071E0,1.804759949E-1,2.142668913E0
6.053106169E0,-6.216139793E-1,-2.518104076E0,-3.553389907E-1,2.617922435E0
6.058028552E0,-1.157907963E0,-3.100811005E0,-6.062999964E-1,3.365022945E0
6.062950791E0,-1.775632977E0,-3.682190895E0,-6.506369710E-1,4.139411882E0
6.067873173E0,-2.583031893E0,-4.105583191E0,-7.919279933E-1,4.914775381E0
6.072795406E0,-3.487715006E0,-4.567678928E0,-1.084295034E0,5.848379474E0
6.077717774E0,-4.524075031E0,-5.138341904E0,-1.633092046E0,7.038238561E0
6.082639930E0,-5.815619946E0,-5.655402184E0,-2.460048914E0,8.476841975E0
6.087562145E0,-7.639451981E0,-5.950314045E0,-4.485838890E0,1.067193583E1
6.092484300E0,-9.446330070E0,-5.810957909E0,-6.586267948E0,1.289881038E1
6.097406750E0,-1.086437416E1,-4.961905956E0,-7.417329788E0,1.405958455E1
6.102328906E0,-1.145820999E1,-3.618534088E0,-7.146564007E0,1.398062024E1
6.107251274E0,-1.093617630E1,-2.348845005E0,-6.196195126E0,1.278709736E1
6.112173736E0,-9.615731239E0,-1.540786982E0,-4.772477150E0,1.084494582E1
6.117095892E0,-7.714869022E0,-1.253775954E0,-3.263885021E0,8.470189113E0
6.122018128E0,-6.100735188E0,-1.400084019E0,-2.305986881E0,6.670590722E0
6.126940587E0,-4.763152122E0,-1.977942944E0,-1.769569039E0,5.452637070E0
6.131862972E0,-3.482841969E0,-2.843246937E0,-1.588538051E0,4.768405861E0
6.136785205E0,-2.445373058E0,-3.681418896E0,-1.505218029E0,4.668873075E0
6.141707587E0,-1.691717982E0,-4.417146206E0,-1.421334982E0,4.938955706E0
6.146629521E0,-1.051270008E0,-4.956724167E0,-1.258785963E0,5.220998487E0
6.151551904E0,-6.066640019E-1,-5.333434105E0,-1.014281988E0,5.462813242E0
6.156474137E0,-3.743439913E-1,-5.554639816E0,-7.655950189E-1,5.619634565E0
6.161396519E0,-2.310280055E-1,-5.546601772E0,-4.935899973E-1,5.573311067E0
6.166318752E0,-3.176049888E-1,-5.261024952E0,-2.490539998E-1,5.276484092E0
6.171241135E0,-4.873880148E-1,-4.630908966E0,-7.289399952E-2,4.657056846E0
6.176163373E0,-8.386939764E-1,-3.762720108E0,9.767699987E-2,3.856294983E0
6.181085755E0,-1.399237037E0,-2.790885925E0,1.495440006E-1,3.125583456E0
6.186007988E0,-2.146786928E0,-1.823428988E0,2.235769928E-1,2.825521910E0
6.190930371E0,-2.926639080E0,-1.068894982E0,2.511189878E-1,3.125830055E0
6.195852832E0,-3.419076920E0,-4.349929988E-1,2.776269913E-1,3.457800260E0
6.200774988E0,-3.790375948E0,6.576000154E-2,1.066149995E-1,3.792445248E0
6.205697219E0,-4.034935951E0,4.070169926E-1,9.679199755E-2,4.056567472E0
6.210619373E0,-4.105850220E0,6.865810156E-1,8.747699857E-2,4.163778542E0
6.215541755E0,-3.977008104E0,9.733729959E-1,-6.855200231E-2,4.094966157E0
6.220463973E0,-3.813822985E0,1.190341949E0,-3.076420128E-1,4.007094125E0
6.225386356E0,-3.676861048E0,1.267959952E0,-5.722489953E-1,3.931220996E0
6.230308617E0,-3.533696890E0,1.325857997E0,-7.280579805E-1,3.843823820E0
6.235230771E0,-3.402108908E0,1.411885977E0,-7.245370150E-1,3.754027293E0
6.240153231E0,-2.995162964E0,1.478127956E0,-6.263790131E-1,3.398266338E0
6.245075397E0,-2.429565907E0,1.574830055E0,-4.603570104E-1,2.931690429E0
6.249997779E0,-2.216609001E0,1.613456011E0,-2.339349985E-1,2.751603414E0
6.254920318E0,-2.032850981E0,1.696998954E0,1.127619967E-1,2.650472378E0
6.259842474E0,-1.782266974E0,1.763216972E0,3.498069942E-1,2.531358251E0
6.264764856E0,-1.639045954E0,1.804666996E0,4.881440103E-1,2.486278178E0
6.269687089E0,-1.483155966E0,1.928686976E0,5.765680075E-1,2.500403115E0
6.274609227E0,-1.288210988E0,2.111088037E0,5.231410265E-1,2.527816604E0
6.279531610E0,-1.140982032E0,2.406898975E0,2.535170019E-1,2.675681884E0
6.284453833E0,-7.695130110E-1,2.712871075E0,-1.111669987E-1,2.822087497E0
6.289376216E0,-2.837769985E-1,2.990255117E0,-6.566159725E-1,3.074621861E0
6.294298372E0,-6.114599854E-2,3.207454920E0,-9.947119951E-1,3.358713719E0
6.299220601E0,-6.346700341E-2,3.457657099E0,-1.382513046E0,3.724347325E0
6.304143062E0,-2.484239936E-1,3.649638891E0,-1.665328979E0,4.019315754E0
6.309065466E0,-4.375030100E-1,3.692416906E0,-1.905383945E0,4.178018606E0
6.313987699E0,-4.493539929E-1,3.732023954E0,-2.287096977E0,4.400083453E0
6.318909852E0,-3.724670112E-1,3.761070013E0,-2.904530048E0,4.766620828E0
6.323832326E0,-2.453919947E-1,3.676930904E0,-3.500080109E0,5.082381221E0
6.328754482E0,-9.328900278E-2,3.563114882E0,-3.952369928E0,5.322191142E0
6.333676864E0,3.390629888E-1,3.232965946E0,-4.085920811E0,5.221281585E0
6.338599011E0,8.770369887E-1,2.677062988E0,-3.775316000E0,4.710506451E0
6.343521240E0,1.061563015E0,2.094573975E0,-3.167113066E0,3.942684535E0
6.348443625E0,9.093629718E-1,1.471856952E0,-1.602632046E0,2.358332753E0
6.353365857E0,8.091750145E-1,7.126560211E-1,1.161214948E0,1.584633385E0
6.358288244E0,1.010933042E0,-1.145830005E-1,5.133345127E0,5.233196640E0
6.363210477E0,1.439779043E0,-7.647839785E-1,7.491807938E0,7.667140562E0
6.368132860E0,2.054239035E0,-1.038354993E0,7.188315868E0,7.547844999E0
6.373055030E0,2.508121014E0,-8.301180005E-1,5.206559181E0,5.838495133E0
6.377977259E0,2.856618881E0,-3.307479918E-1,3.490669966E0,4.522658784E0
6.382899721E0,3.104770899E0,1.913789958E-1,2.277981043E0,3.855570760E0
6.387822105E0,3.277760983E0,7.007319927E-1,1.474521995E0,3.661824340E0
6.392744338E0,3.430063963E0,1.183889031E0,8.344669938E-1,3.723340864E0
6.397666721E0,3.501373053E0,1.551345944E0,5.969280005E-1,3.875901254E0
6.402588930E0,3.472369909E0,1.893612027E0,2.695749998E-1,3.964314566E0
6.407511083E0,3.354861975E0,2.023679018E0,6.457100064E-2,3.918487597E0
6.412433451E0,3.229363918E0,2.154723883E0,7.516799867E-2,3.882946891E0
6.417355684E0,3.097531080E0,2.236970901E0,9.673400223E-2,3.822053777E0
6.422278066E0,2.928477049E0,2.163079023E0,-2.985199913E-2,3.640848779E0
6.427200222E0,2.686817884E0,2.019335985E0,-3.161279857E-1,3.375891744E0
6.432122451E0,2.464071989E0,1.865540981E0,-6.735200286E-1,3.163150826E0
6.437044822E0,1.990128994E0,1.598572969E0,-1.009045959E0,2.744853857E0
6.441967283E0,1.753209949E0,1.316362977E0,-1.124938011E0,2.464151404E0
6.446889439E0,1.150328040E0,8.415060043E-1,-1.175155044E0,1.847261847E0
6.451811899E0,3.865799904E-1,2.194299996E-1,-1.201153040E0,1.280766270E0
6.456734054E0,2.865279913E-1,-1.881690025E-1,-1.124302030E0,1.175398195E0
6.461656514E0,2.388339937E-1,-2.996110022E-1,-8.795890212E-1,9.594192386E-1
6.466578655E0,-5.192200094E-2,-2.798179984E-1,-4.452199936E-1,5.284078435E-1
6.471500886E0,3.330099955E-2,-2.478179932E-1,-5.640000105E-2,2.563272799E-1
6.476423279E0,-8.855000138E-3,-4.738900065E-2,4.572330117E-1,4.597675015E-1
6.481345512E0,-1.265249997E-1,1.939139962E-1,1.174844980E0,1.197443920E0
6.486267680E0,-4.843350053E-1,4.970200062E-1,1.987735987E0,2.105398688E0
6.491190063E0,-6.060799956E-1,9.630960226E-1,2.702466011E0,2.932270358E0
6.496112295E0,-7.643899918E-1,1.424038053E0,3.294411898E0,3.669513072E0
6.501034773E0,-6.067759991E-1,1.897259951E0,3.721903086E0,4.221413864E0
6.505956929E0,-8.247200251E-1,2.387487888E0,3.958436966E0,4.695687889E0
6.510879311E0,-2.795070112E-1,2.880595922E0,4.169264793E0,5.075305504E0
6.515801554E0,-1.399639994E-1,3.285780907E0,4.304380894E0,5.416977106E0
6.520723937E0,2.279170007E-1,3.651070118E0,4.186678886E0,5.559724747E0
6.525646170E0,7.863489985E-1,3.784231901E0,3.923226118E0,5.507309598E0
6.530568309E0,1.407731056E0,3.785159111E0,3.606312037E0,5.414297990E0
6.535490692E0,2.063698053E0,3.601275921E0,3.303955078E0,5.305106698E0
6.540413154E0,2.632122993E0,3.241924047E0,2.979101896E0,5.129638495E0
6.545335313E0,2.968580008E0,2.902400970E0,2.707247019E0,4.956368134E0
6.550257544E0,3.079010010E0,2.612664938E0,2.593911886E0,4.799447842E0
6.555179927E0,2.980366945E0,2.407888889E0,2.546891928E0,4.600779773E0
6.560102175E0,2.686587095E0,2.110469103E0,2.587390900E0,4.285606342E0
6.565024329E0,2.308240891E0,1.780130982E0,2.739089012E0,3.999931367E0
6.569946701E0,1.973075986E0,1.529526949E0,2.941669941E0,3.858225444E0
6.574869163E0,1.691849947E0,1.390030026E0,3.087801933E0,3.785374552E0
6.579791395E0,1.349419951E0,1.395442009E0,3.039777994E0,3.606721899E0
6.584713549E0,9.812279940E-1,1.536172032E0,2.929096937E0,3.449962573E0
6.589635932E0,5.819500089E-1,1.809726000E0,2.791177034E0,3.377046527E0
6.594558165E0,2.339430004E-1,2.108429909E0,2.666426897E0,3.407350643E0
6.599480542E0,1.606909931E-1,2.530766010E0,2.489593983E0,3.553684903E0
6.604402775E0,1.590609998E-1,2.892488956E0,2.363533020E0,3.738727203E0
6.609324944E0,2.910479903E-1,3.232234001E0,2.216923952E0,3.930241390E0
6.614247327E0,4.643000066E-1,3.595343113E0,2.150078058E0,4.214843088E0
6.619169578E0,6.057429910E-1,3.902546883E0,2.123872042E0,4.484153119E0
6.624092038E0,6.682069898E-1,4.124245167E0,1.887771010E0,4.584711350E0
6.629014423E0,5.942990184E-1,4.334753036E0,1.502650023E0,4.626146593E0
6.633936578E0,4.222449958E-1,4.557877064E0,1.112457037E0,4.710636350E0
6.638858809E0,1.925870031E-1,4.673724174E0,8.443350196E-1,4.753281923E0
6.643781192E0,-6.306999829E-3,4.734879971E0,7.587419748E-1,4.795291180E0
6.648703439E0,-7.876200229E-2,4.683810234E0,7.870349884E-1,4.750126928E0
6.653625821E0,-2.941899933E-2,4.348184109E0,9.185450077E-1,4.444242956E0
6.658547977E0,1.853930056E-1,3.759674072E0,9.598050117E-1,3.884680856E0
6.663470201E0,4.401659966E-1,2.912902117E0,1.087463021E0,3.140273980E0
6.668392586E0,7.055169940E-1,1.704697967E0,1.117598057E0,2.157029161E0
6.673314804E0,1.036249042E0,1.920109987E-1,6.640089750E-1,1.245627640E0
6.678237187E0,1.693037033E0,-1.638038039E0,-1.056009978E-1,2.358112505E0
6.683159420E0,2.538727045E0,-3.942043066E0,-1.399938941E0,4.893328886E0
6.688081802E0,3.766187906E0,-7.008586884E0,-3.900681973E0,8.861138826E0
6.693003958E0,5.104178905E0,-1.056114006E1,-5.280072212E0,1.286349425E1
6.697926187E0,6.592460155E0,-1.449489689E1,-5.170361996E0,1.674201929E1
6.702848649E0,8.198475838E0,-1.893630409E1,-4.961931229E0,2.122308602E1
6.707771033E0,9.023457527E0,-2.309522629E1,-5.358883858E0,2.536789111E1
6.712693266E0,9.345746040E0,-2.611166382E1,-6.749580860E0,2.854327939E1
6.717615644E0,8.641150475E0,-2.699882317E1,-7.947888851E0,2.944104059E1
6.722537799E0,7.107858181E0,-2.600568390E1,-9.138131142E0,2.846616735E1
6.727459934E0,6.467294216E0,-2.287873840E1,-9.315917015E0,2.553524770E1
6.732382394E0,4.155031204E0,-1.804395676E1,-9.598452568E0,2.085614901E1
6.737304550E0,2.355302095E0,-1.348511600E1,-9.546148300E0,1.668906076E1
6.742226780E0,2.200669944E-1,-9.709095001E0,-9.346254349E0,1.347840590E1
6.747149163E0,-1.392995954E0,-6.730119228E0,-8.635709763E0,1.103677605E1
6.752071396E0,-3.569689989E0,-3.963320971E0,-8.447202682E0,9.990286927E0
6.756993779E0,-3.764395952E0,-2.015721083E0,-8.354937553E0,9.382898800E0
6.761916011E0,-3.386672974E0,-4.855880141E-1,-8.333031654E0,9.008038971E0
6.766838457E0,-3.162801027E0,6.505259871E-1,-8.059488297E0,8.682271938E0
6.771760613E0,-2.026741028E0,9.398049712E-1,-7.399311066E0,7.729211915E0
6.776682995E0,-2.289090008E-1,6.210569739E-1,-6.812726974E0,6.844805324E0
6.781605204E0,1.470831990E0,7.626099885E-2,-6.119820118E0,6.294550084E0
6.786527358E0,2.385488033E0,-2.414900064E-1,-5.829283237E0,6.303127291E0
6.791449722E0,3.035672903E0,-1.315589994E-1,-5.340060234E0,6.144010176E0
6.796371954E0,3.317612886E0,1.283079982E-1,-4.716016769E0,5.767480592E0
6.801294332E0,3.500624895E0,4.234929979E-1,-3.330851078E0,4.850596858E0
6.806216565E0,3.602545023E0,6.399449706E-1,-2.475207090E0,4.417523101E0
6.811138947E0,3.636365891E0,1.108142018E0,-1.780990958E0,4.197983375E0
6.816061175E0,3.335813046E0,1.765647054E0,-3.483420014E-1,3.790316655E0
6.820983558E0,2.864187956E0,2.466893911E0,1.097741008E0,3.936263906E0
6.825905714E0,2.346187115E0,3.199013948E0,2.079219103E0,4.478999475E0
6.830828168E0,1.457746029E0,3.930999994E0,2.461631060E0,4.861832156E0
6.835750401E0,1.594009995E-1,4.911948204E0,2.392554998E0,5.465982369E0
6.840672784E0,-8.461070061E-1,5.672424793E0,2.166152954E0,6.130621398E0
6.845595011E0,-1.640321016E0,6.263662815E0,2.000020981E0,6.776740280E0
6.850517165E0,-2.466170073E0,6.701250076E0,1.831536055E0,7.371788910E0
6.855439529E0,-2.868426085E0,6.577006817E0,1.417966962E0,7.314062973E0
6.860361762E0,-2.500893116E0,5.751083851E0,9.952480197E-1,6.349799245E0
6.865283911E0,-1.925897956E0,4.936472893E0,8.103749752E-1,5.360462215E0
6.870206370E0,-1.679216027E0,4.171528816E0,6.261829734E-1,4.540211917E0
6.875128755E0,-1.608701944E0,3.542506933E0,-4.772099853E-2,3.890958058E0
6.880051003E0,-1.672610998E0,3.152915001E0,-9.515460134E-1,3.693770481E0
6.884973385E0,-1.754122019E0,2.872781992E0,-1.994246006E0,3.912395374E0
6.889895541E0,-2.341018915E0,2.586230040E0,-3.045659065E0,4.630874056E0
6.894818010E0,-3.558651924E0,2.400392056E0,-4.412287235E0,6.155823599E0
6.899740242E0,-4.422530174E0,2.346554041E0,-4.893342972E0,7.000706711E0
6.904662625E0,-5.054747105E0,2.432014942E0,-4.682260990E0,7.306759401E0
6.909584776E0,-5.492435932E0,2.536597013E0,-4.355101109E0,7.454400214E0
6.914507005E0,-5.397511005E0,2.534300089E0,-4.162674904E0,7.272115535E0
6.919429375E0,-4.945486069E0,2.331967115E0,-3.913019896E0,6.723661784E0
6.924351608E0,-4.307312965E0,2.193377018E0,-3.967647076E0,6.253484712E0
6.929273767E0,-3.444830894E0,1.868031025E0,-3.827821970E0,5.478012490E0
6.934196149E0,-2.610886097E0,1.546154976E0,-3.634432077E0,4.734597971E0
6.939118611E0,-2.160907984E0,1.250545025E0,-3.497260094E0,4.297000621E0
6.944040863E0,-2.056075096E0,1.147426009E0,-3.198121071E0,3.971398951E0
6.948963017E0,-1.865095973E0,1.096511960E0,-1.192343950E0,2.470345231E0
6.953885399E0,-1.787852049E0,1.156391025E0,5.100399852E-1,2.189473895E0
6.958807637E0,-2.033844948E0,1.356480002E0,-3.917113066E0,4.617395157E0
6.963730020E0,-1.731564045E0,1.473747015E0,-3.231420994E0,3.951243595E0
6.968652252E0,-9.235640168E-1,1.388769984E0,-1.755725980E0,2.421616460E0
6.973574630E0,-4.861789942E-1,1.375511050E0,-1.101225972E0,1.827867420E0
6.978496786E0,-5.325109959E-1,1.519572020E0,-9.027889967E-1,1.845994327E0
6.983419034E0,-6.293720007E-1,1.731855989E0,-9.179850221E-1,2.058672092E0
6.988341418E0,-5.534060001E-1,1.944206953E0,-1.016106963E0,2.262448284E0
6.993263670E0,-4.109590054E-1,2.193308115E0,-1.031787038E0,2.458469500E0
6.998186053E0,-3.337390125E-1,2.388134956E0,-1.130226970E0,2.663077787E0
7.003108209E0,-2.726919949E-1,2.630316973E0,-1.195824981E0,2.902227711E0
7.008030442E0,-7.089000195E-3,2.863054037E0,-1.234576941E0,3.117901361E0
7.012952827E0,4.316479862E-1,2.986730099E0,-1.192968965E0,3.245004101E0
7.017875060E0,1.006446004E0,2.954186916E0,-9.347829819E-1,3.257909317E0
7.022797519E0,1.891867995E0,2.522413969E0,1.907099970E-2,3.153109647E0
7.027719675E0,3.025733948E0,1.983391047E0,1.296586990E0,3.843181467E0
7.032642135E0,3.996413946E0,1.375810027E0,2.072551966E0,4.707403670E0
7.037564519E0,4.595235825E0,7.986080050E-1,2.411539078E0,5.250665458E0
7.042486675E0,4.482731819E0,3.677060008E-1,2.536811113E0,5.163865112E0
7.047408896E0,4.473790169E0,-6.240999792E-3,2.548321962E0,5.148668007E0
7.052331279E0,4.563354015E0,-5.304189920E-1,2.393898964E0,5.180376089E0
7.057253440E0,4.814013004E0,-1.257117033E0,2.046217918E0,5.379783658E0
7.062175668E0,5.278958797E0,-2.067894936E0,1.579421997E0,5.885420061E0
7.067098053E0,5.624601841E0,-2.960344076E0,1.142624021E0,6.457969694E0
7.072020296E0,5.616898060E0,-3.814763069E0,7.461580038E-1,6.830718326E0
7.076942678E0,5.441843987E0,-4.484365940E0,3.895440102E-1,7.062219792E0
7.081864911E0,5.403446198E0,-4.980420113E0,1.135670021E-1,7.349470237E0
7.086787308E0,5.245780945E0,-5.059738159E0,-2.314590067E-1,7.291964155E0
7.091709541E0,4.995137215E0,-4.689757824E0,-4.122950137E-1,6.864052114E0
7.096631923E0,4.233561039E0,-3.786125898E0,-4.175829887E-1,5.694924402E0
7.101554131E0,3.662967920E0,-2.523566961E0,-5.042269826E-1,4.476602400E0
7.106476285E0,3.169783115E0,-1.777062058E0,-3.903799877E-2,3.634143437E0
7.111398658E0,3.518991947E0,-2.228447914E0,1.049654961E0,4.295469703E0
7.116320891E0,3.826075077E0,-2.545316935E0,1.687597990E0,4.895454603E0
7.121243274E0,3.125474930E0,-2.364479065E0,1.672206998E0,4.260942505E0
7.126165430E0,2.835185051E0,-1.895655990E0,1.423881054E0,3.695838627E0
7.131087889E0,2.543565035E0,-1.392006993E0,1.517029047E0,3.272427797E0
7.136010136E0,2.157675028E0,-1.008277059E0,2.091759920E0,3.169801842E0
7.140932290E0,1.633296013E0,-8.857010007E-1,2.603382111E0,3.198393431E0
7.145854668E0,1.252470016E0,-1.217437983E0,2.624289989E0,3.152417221E0
7.150777129E0,8.154140115E-1,-1.769193053E0,2.202775955E0,2.940606396E0
7.155699362E0,1.402949989E-1,-2.448930025E0,1.552422047E0,2.902921832E0
7.160621754E0,-4.385260046E-1,-3.221271992E0,8.476750255E-1,3.359680230E0
7.165543910E0,-7.822899818E-1,-3.979796886E0,9.028100222E-2,4.056958409E0
7.170466064E0,-8.625299931E-1,-4.554353237E0,-5.686450005E-1,4.670058729E0
7.175388519E0,-1.173210979E0,-5.003805161E0,-1.096187949E0,5.255104005E0
7.180310675E0,-1.541529059E0,-5.227381229E0,-1.335901976E0,5.611279751E0
7.185233134E0,-2.182957888E0,-5.125898838E0,-1.380177021E0,5.739776359E0
7.190155367E0,-3.014518023E0,-5.097321987E0,-1.503705025E0,6.109921370E0
7.195077750E0,-4.359279156E0,-5.207839966E0,-2.060322046E0,7.097171183E0
7.199999905E0,-5.746357918E0,-5.370234966E0,-3.833183050E0,8.749476853E0
7.204922365E0,-6.610326767E0,-5.408063889E0,-5.706510067E0,1.027170055E1
7.209844521E0,-8.513139725E0,-4.781270981E0,-6.562733173E0,1.176450453E1
7.214766752E0,-9.787801743E0,-3.713726997E0,-6.314970970E0,1.222586150E1
7.219689134E0,-9.607110977E0,-2.544426918E0,-5.490835190E0,1.135429261E1
7.224611367E0,-8.875280380E0,-1.548627973E0,-4.403892040E0,1.002811625E1
7.229533750E0,-8.112179756E0,-9.369450212E-1,-3.049789906E0,8.717026146E0
7.234455982E0,-6.543419838E0,-9.368799925E-1,-1.622084975E0,6.806265273E0
7.239378360E0,-4.491393089E0,-1.605995059E0,-6.950640082E-1,4.820264099E0
7.244300593E0,-3.492692947E0,-2.350157022E0,-4.197959900E-1,4.230646609E0
7.249222762E0,-2.943229914E0,-3.248085976E0,-5.375559926E-1,4.416065135E0
7.254145221E0,-2.159400940E0,-4.153450012E0,-7.859439850E-1,4.746774418E0
7.259067377E0,-1.390689969E0,-4.735681057E0,-1.112807989E0,5.059548921E0
7.263989760E0,-8.064720035E-1,-5.018720150E0,-1.390418053E0,5.269839789E0
7.268911916E0,-4.370909929E-1,-5.093863010E0,-1.494367957E0,5.326502088E0
7.273834144E0,-3.075839877E-1,-5.050160885E0,-1.385810018E0,5.245874787E0
7.278756615E0,-4.651480019E-1,-4.826023102E0,-1.112277985E0,4.974336534E0
7.283679000E0,-6.787930131E-1,-4.424092770E0,-7.948480248E-1,4.545892670E0
7.288601232E0,-1.040441036E0,-3.825025082E0,-4.319239855E-1,3.987466960E0
7.293523586E0,-1.443608999E0,-3.123877048E0,-9.968800098E-2,3.442753615E0
7.298445742E0,-1.835793972E0,-2.325716972E0,2.589659989E-1,2.974249877E0
7.303367971E0,-2.267108917E0,-1.363502979E0,5.055029988E-1,2.693409828E0
7.308290355E0,-2.609329939E0,-4.576930106E-1,6.549699903E-1,2.728932266E0
7.313212602E0,-2.851958990E0,1.927759945E-1,7.680370212E-1,2.959850255E0
7.318134756E0,-3.148170948E0,7.435950041E-1,7.975990176E-1,3.331677962E0
7.323057138E0,-3.369041920E0,1.121173024E0,9.239169955E-1,3.668936497E0
7.327979386E0,-3.741055012E0,1.408401012E0,1.011003971E0,4.123252969E0
7.332901769E0,-3.910310984E0,1.705122948E0,9.686539769E-1,4.374501890E0
7.337824002E0,-3.981084108E0,1.790835977E0,8.377329707E-1,4.444988268E0
7.342746461E0,-3.854585886E0,1.792420983E0,5.569199920E-1,4.287279465E0
7.347668848E0,-3.774599075E0,1.894317031E0,2.064200044E-1,4.228314606E0
7.352591002E0,-3.651516914E0,2.029395103E0,-5.785400048E-2,4.177962105E0
7.357513227E0,-3.574100971E0,2.096815109E0,-1.266790032E-1,4.145706083E0
7.362435610E0,-3.255083084E0,2.031697035E0,-7.281299680E-2,3.837793697E0
7.367357747E0,-2.720154047E0,1.980049014E0,-1.434070021E-1,3.367550698E0
7.372279976E0,-2.289160013E0,1.946727991E0,-3.243469894E-1,3.022450067E0
7.377202360E0,-2.155389071E0,1.948310971E0,-3.292970061E-1,2.924047572E0
7.382124593E0,-2.066976070E0,2.013330936E0,-2.813510001E-1,2.899146412E0
7.387046976E0,-1.918200970E0,2.172558069E0,-2.850149870E-1,2.912170508E0
7.391969213E0,-1.759161949E0,2.325093031E0,-3.250420094E-1,2.933659945E0
7.396891595E0,-1.726323962E0,2.434854031E0,-4.046759903E-1,3.012054321E0
7.401813751E0,-1.695335984E0,2.549516916E0,-5.751429796E-1,3.115283302E0
7.406736226E0,-1.702260017E0,2.800515890E0,-8.447589874E-1,3.384404846E0
7.411658458E0,-1.738899946E0,3.086889982E0,-1.109606981E0,3.712666217E0
7.416580841E0,-1.749747992E0,3.207418919E0,-1.123674035E0,3.822538095E0
7.421503069E0,-1.720553994E0,3.320116997E0,-1.176635027E0,3.920198070E0
7.426425223E0,-1.534057021E0,3.396284103E0,-1.373545051E0,3.971737990E0
7.431347590E0,-1.382061005E0,3.476676941E0,-1.735447049E0,4.124215275E0
7.436269823E0,-1.193825006E0,3.525593042E0,-2.282692909E0,4.366430048E0
7.441192226E0,-9.279839993E-1,3.449954033E0,-2.728904963E0,4.495582212E0
7.446114382E0,-4.518229961E-1,3.238553047E0,-2.992162943E0,4.432314174E0
7.451036610E0,4.956199974E-2,2.831408024E0,-2.981920004E0,4.112319868E0
7.455958999E0,3.015440106E-1,2.303078890E0,-2.646722078E0,3.521397297E0
7.460881232E0,3.117580116E-1,1.701957941E0,-1.276147008E0,2.149977925E0
7.465803614E0,2.685520053E-1,9.636809826E-1,9.433860183E-1,1.375055779E0
7.470726076E0,4.567660093E-1,2.370160073E-1,3.948941946E0,3.982330256E0
7.475648309E0,8.344470263E-1,-4.285979867E-1,5.952732086E0,6.026194269E0
7.480570691E0,1.274399042E0,-7.672039866E-1,5.869927883E0,6.055472585E0
7.485492828E0,1.736505032E0,-7.203500271E-1,4.570038795E0,4.941620026E0
7.490415059E0,2.367239952E0,-3.420949876E-1,3.080718040E0,3.900215073E0
7.495337447E0,2.992409945E0,1.067100018E-1,1.891304016E0,3.541600653E0
7.500259602E0,3.534702063E0,5.858049989E-1,1.180660963E0,3.772432435E0
7.505181840E0,3.886406898E0,1.010020018E0,6.982179880E-1,4.075758503E0
7.510104225E0,4.071152210E0,1.344933987E0,5.178030133E-1,4.318709033E0
7.515026458E0,4.088483810E0,1.632974029E0,5.532770157E-1,4.437163452E0
7.519948913E0,4.036521912E0,1.784955978E0,7.568929791E-1,4.477997763E0
7.524871299E0,4.166361809E0,1.812649012E0,1.163468003E0,4.690194554E0
7.529793531E0,4.384109974E0,1.778735042E0,1.537016034E0,4.974609221E0
7.534715688E0,4.504861832E0,1.717355013E0,1.797986031E0,5.145468116E0
7.539638071E0,4.562188148E0,1.595584035E0,1.977139950E0,5.221927948E0
7.544560304E0,4.396216869E0,1.442533016E0,1.872552037E0,4.991400144E0
7.549482658E0,4.261331081E0,1.335062027E0,1.492584944E0,4.708411942E0
7.554404891E0,4.105799198E0,1.162960052E0,7.441200018E-1,4.331717640E0
7.559327045E0,3.958995104E0,1.083955050E0,-1.891659945E-1,4.109061274E0
7.564249428E0,3.737411976E0,9.181270003E-1,-1.346670032E0,4.077342963E0
7.569171665E0,3.251630068E0,6.866260171E-1,-2.119530916E0,3.941695662E0
7.574094047E0,2.854577065E0,5.019249916E-1,-2.216655016E0,3.648848911E0
7.579016304E0,2.102762938E0,2.683219910E-1,-2.033241987E0,2.937291549E0
7.583938458E0,1.486351013E0,8.651100099E-2,-1.914085031E0,2.424962885E0
7.588860840E0,8.469640017E-1,-2.199600078E-2,-1.701804996E0,1.901044999E0
7.593783069E0,1.569499969E-1,-7.126200199E-2,-1.315073967E0,1.326322402E0
7.598705529E0,-3.712219894E-1,-2.494000085E-2,-7.312870026E-1,8.204928087E-1
7.603627914E0,-5.383599997E-1,1.897400059E-2,2.186969966E-1,5.813947697E-1
7.608550117E0,-9.277549982E-1,1.124970019E-1,1.358693957E0,1.649070702E0
7.613472271E0,-1.340509057E0,2.967309952E-1,2.396003962E0,2.761493943E0
7.618394654E0,-1.549448967E0,4.840750098E-1,3.302114010E0,3.679548566E0
7.623316886E0,-1.862722039E0,8.590790033E-1,4.147971153E0,4.627463108E0
7.628239040E0,-2.161192894E0,1.374371052E0,4.856635094E0,5.490587851E0
7.633161423E0,-2.086496115E0,1.942862034E0,5.321603775E0,6.037188556E0
7.638083641E0,-1.511787057E0,2.388560057E0,5.307310104E0,6.013173854E0
7.643006023E0,-5.425300002E-1,2.764096975E0,4.853994846E0,5.612115186E0
7.647928256E0,3.628329933E-1,3.061794043E0,4.364933014E0,5.344050033E0
7.652850634E0,1.019122958E0,3.261948109E0,3.929754019E0,5.207867483E0
7.657772867E0,1.578675032E0,3.354438066E0,3.422506094E0,5.045593876E0
7.662695249E0,2.011244059E0,3.360917091E0,2.979281902E0,4.921075798E0
7.667617497E0,2.229639053E0,3.259906054E0,2.620727062E0,4.739882712E0
7.672539880E0,2.228017092E0,3.035888910E0,2.516942978E0,4.529424201E0
7.677462112E0,2.117993116E0,2.851613045E0,2.262094021E0,4.211254107E0
7.682384256E0,1.922194958E0,2.574501991E0,2.422410011E0,4.023799724E0
7.687306639E0,1.515982985E0,2.204046965E0,2.784396887E0,3.861203628E0
7.692228882E0,1.078039050E0,1.900985003E0,3.174415112E0,3.853936101E0
7.697151035E0,7.778030038E-1,1.702090979E0,3.388554096E0,3.870967589E0
7.702073500E0,5.301820040E-1,1.679487944E0,3.480094910E0,3.900363225E0
7.706995656E0,5.436100066E-2,1.902282953E0,3.453881025E0,3.943466710E0
7.711918038E0,-3.875940144E-1,2.229393959E0,3.321896076E0,4.019380560E0
7.716840276E0,-7.260329723E-1,2.608328104E0,3.203337908E0,4.194266697E0
7.721762659E0,-8.087159991E-1,3.018090963E0,2.973984957E0,4.313638969E0
7.726685120E0,-6.370859742E-1,3.349138021E0,2.722748995E0,4.363022589E0
7.731607348E0,-2.807430029E-1,3.695262909E0,2.364026070E0,4.395725635E0
7.736529731E0,6.095099822E-2,4.013072968E0,2.134130955E0,4.545655574E0
7.741451887E0,2.908029854E-1,4.291613102E0,2.020397902E0,4.752317022E0
7.746374117E0,4.352569878E-1,4.563553810E0,1.794088960E0,4.922827157E0
7.751296271E0,4.006550014E-1,4.836149216E0,1.415433049E0,5.054929711E0
7.756218654E0,2.965640128E-1,5.087802887E0,9.974099994E-1,5.193121907E0
7.761140887E0,1.177090034E-1,5.292056084E0,6.912140250E-1,5.338304022E0
7.766063269E0,-4.668999929E-3,5.427237988E0,4.998280108E-1,5.450207520E0
7.770985502E0,-3.948700055E-2,5.416547775E0,4.047180116E-1,5.431790284E0
7.775907885E0,1.639550030E-1,5.144954205E0,3.853490055E-1,5.161969476E0
7.780830118E0,3.575569987E-1,4.674907207E0,4.584600031E-1,4.710922413E0
7.785752490E0,4.779550135E-1,3.938731909E0,5.277259946E-1,4.002567272E0
7.790674723E0,9.311770201E-1,2.940927029E0,5.217819810E-1,3.128641697E0
7.795597106E0,1.559262037E0,1.623510957E0,5.214769840E-1,2.310632851E0
7.800519338E0,2.245246887E0,-1.792089939E-1,2.361039966E-1,2.264728360E0
7.805441721E0,3.336287022E0,-2.499072075E0,-1.428519011E0,4.406454231E0
7.810363877E0,4.398292065E0,-5.298670769E0,-2.835846901E0,7.447342657E0
7.815286116E0,5.709039211E0,-8.870882988E0,-4.176332951E0,1.134581203E1
7.820208500E0,6.970284939E0,-1.287157345E1,-4.273696899E0,1.524882816E1
7.825130733E0,8.363594055E0,-1.769326782E1,-3.999392033E0,1.997489846E1
7.830053198E0,9.740323067E0,-2.234482193E1,-4.665369987E0,2.481794991E1
7.834975353E0,1.026509953E1,-2.581304550E1,-5.795454025E0,2.837733028E1
7.839897736E0,9.926379204E0,-2.724290657E1,-7.336206913E0,2.990867590E1
7.844819998E0,8.981425285E0,-2.689543152E1,-8.836092949E0,2.970028241E1
7.849742381E0,7.429782867E0,-2.395204544E1,-9.380153656E0,2.677479107E1
7.854664613E0,6.282020092E0,-1.951246262E1,-9.245273590E0,2.248721987E1
7.859586996E0,4.065271854E0,-1.481385612E1,-9.439958572E0,1.803024089E1
7.864509229E0,2.378273010E0,-1.083331013E1,-9.533393860E0,1.462540219E1
7.869431596E0,1.256374955E0,-7.618772984E0,-9.643562317E0,1.235404687E1
7.874353829E0,-8.120000362E-3,-4.892471790E0,-9.042108536E0,1.028085954E1
7.879275887E0,-5.459520221E-1,-2.869199038E0,-8.544677734E0,9.030054502E0
7.884198347E0,-1.006376028E0,-1.243361950E0,-8.108573914E0,8.264848006E0
7.889120579E0,-9.340159893E-1,-5.853499845E-2,-7.851739883E0,7.907315057E0
7.894042976E0,-6.126610041E-1,8.475829959E-1,-6.947688103E0,7.025960462E0
7.898965132E0,-1.368049979E-1,1.065559983E0,-6.901813984E0,6.984924477E0
7.903887361E0,9.248949885E-1,9.603409767E-1,-6.731884956E0,6.862649678E0
7.908809745E0,2.172633886E0,6.640580297E-1,-6.010045052E0,6.425103314E0
7.913731978E0,2.988615036E0,4.384070039E-1,-5.705973148E0,6.456171474E0
7.918654361E0,3.531836987E0,2.858090103E-1,-4.288040161E0,5.562629568E0
7.923576612E0,3.507071018E0,1.234169975E-1,-3.305150986E0,4.820664054E0
7.928498995E0,3.759388924E0,4.991099983E-2,-2.001477003E0,4.259272987E0
7.933421228E0,3.375159025E0,2.002789974E-1,-8.317490220E-1,3.481898413E0
7.938343368E0,3.370359898E0,8.259620070E-1,1.556310058E-1,3.473580298E0
7.943265750E0,3.374437094E0,1.591632962E0,1.266556025E0,3.940086972E0
7.948187978E0,3.194730043E0,2.341922045E0,2.168175936E0,4.515737570E0
7.953110361E0,3.002285957E0,3.071974993E0,2.685305119E0,5.065729454E0
7.958032594E0,2.551182032E0,3.855551958E0,2.965548992E0,5.492566930E0
7.962955019E0,1.426507950E0,4.704286098E0,3.260896921E0,5.899040715E0
7.967877252E0,-3.373099864E-2,5.631229877E0,3.181237936E0,6.467778793E0
7.972799411E0,-1.423069000E0,6.197546005E0,2.861208916E0,6.972891676E0
7.977721793E0,-1.870306969E0,6.542260170E0,2.224555969E0,7.158761454E0
7.982644255E0,-2.651215076E0,6.592189789E0,1.404628038E0,7.242850787E0
7.987566488E0,-2.715631962E0,5.821537971E0,6.012200117E-1,6.451854525E0
7.992488870E0,-2.048269033E0,4.870707989E0,3.574329913E-1,5.295938131E0
7.997411026E0,-1.328534007E0,4.048449039E0,2.083909959E-1,4.265954646E0
8.002333247E0,-1.072721004E0,3.240801096E0,-2.035109997E-1,3.419786371E0
8.007255402E0,-1.539682984E0,2.708386898E0,-9.443590045E-1,3.255425811E0
8.012177856E0,-2.368259907E0,2.311845064E0,-1.914639950E0,3.823496924E0
8.017100012E0,-3.158233881E0,2.274739027E0,-2.836384058E0,4.816010113E0
8.022022395E0,-3.882256985E0,2.214474916E0,-4.027538776E0,6.016384882E0
8.026944875E0,-4.716139793E0,2.382217884E0,-4.559173107E0,6.978753185E0
8.031867108E0,-5.224291801E0,2.684434891E0,-4.762033939E0,7.561506645E0
8.036789262E0,-5.610807896E0,2.878328085E0,-4.746785164E0,7.892902330E0
8.041711645E0,-5.703921795E0,3.033158064E0,-4.650514126E0,7.960028475E0
8.046633878E0,-5.256790161E0,2.879650116E0,-4.356521130E0,7.409824825E0
8.051556260E0,-4.406647205E0,2.617738008E0,-4.188479900E0,6.619248881E0
8.056478464E0,-3.303663969E0,2.248677969E0,-3.879482031E0,5.569661485E0
8.061400847E0,-2.549202919E0,1.867216945E0,-3.326062918E0,4.587769521E0
8.066322973E0,-2.099860907E0,1.518406987E0,-2.256606102E0,3.436167444E0
8.071245433E0,-1.499511957E0,1.416183949E0,1.286594987E0,2.430933925E0
8.076167604E0,-1.752212048E0,1.625820994E0,-1.616435051E0,2.885550769E0
8.081089835E0,-2.308660030E0,2.008897066E0,-3.143062115E0,4.386846021E0
8.086011988E0,-2.301866055E0,2.095797062E0,-2.159033060E0,3.788453037E0
8.090934467E0,-1.722759008E0,2.064455032E0,-1.274158955E0,2.975458658E0
8.095856852E0,-1.354580045E0,2.124442101E0,-9.043589830E-1,2.676939765E0
8.100779007E0,-1.229819059E0,2.310520887E0,-8.759819865E-1,2.760127919E0
8.105701252E0,-1.208449960E0,2.583046913E0,-9.212440252E-1,2.996860560E0
8.110623712E0,-1.098935962E0,2.811765909E0,-7.951329947E-1,3.121846289E0
8.115546096E0,-8.754739761E-1,3.029587984E0,-6.827509999E-1,3.226609205E0
8.120468324E0,-7.108160257E-1,3.243331909E0,-6.946470141E-1,3.392196305E0
8.125390707E0,-6.270359755E-1,3.303905010E0,-8.508200049E-1,3.468840889E0
8.130312829E0,-3.471440077E-1,3.286946058E0,-9.539650083E-1,3.440141362E0
8.135235058E0,-1.766799949E-2,3.251543045E0,-9.765269756E-1,3.395062483E0
8.140157442E0,2.607089877E-1,3.238492966E0,-9.508100152E-1,3.385239364E0
8.145079598E0,4.766750038E-1,3.154227018E0,-6.513450146E-1,3.255858945E0
8.150002058E0,8.355979919E-1,2.940366030E0,-1.649500057E-2,3.056836351E0
8.154924309E0,1.445727944E0,2.465023994E0,1.346704006E0,3.159127136E0
8.159846692E0,2.430254936E0,1.766065955E0,2.584630013E0,3.963008998E0
8.164768925E0,3.675976992E0,1.037443042E0,3.006918907E0,4.861137338E0
8.169691283E0,4.513819218E0,4.031099975E-1,3.283446074E0,5.596255866E0
8.174613516E0,4.960351944E0,-3.541300073E-2,3.273914099E0,5.943471966E0
8.179535670E0,5.143808842E0,-4.811390042E-1,2.920041084E0,5.934383209E0
