"Time (s)","Linear Acceleration x (m/s^2)","Linear Acceleration y (m/s^2)","Linear Acceleration z (m/s^2)","Absolute acceleration (m/s^2)"
3.126979600E-2,8.118330240E-1,7.193880081E-1,-1.752659976E-1,1.098776654E0
3.619225600E-2,8.118330240E-1,7.193880081E-1,-1.752659976E-1,1.098776654E0
4.111464200E-2,8.118330240E-1,7.193880081E-1,-1.752659976E-1,1.098776654E0
4.603681000E-2,8.118330240E-1,7.193880081E-1,-1.752659976E-1,1.098776654E0
5.095904100E-2,8.118330240E-1,7.193880081E-1,-1.752659976E-1,1.098776654E0
5.588119500E-2,8.118330240E-1,7.193880081E-1,-1.752659976E-1,1.098776654E0
6.080333400E-2,8.118330240E-1,7.193880081E-1,-1.752659976E-1,1.098776654E0
6.572571600E-2,8.118330240E-1,7.193880081E-1,-1.752659976E-1,1.098776654E0
7.064795400E-2,8.118330240E-1,7.193880081E-1,-1.752659976E-1,1.098776654E0
7.557033700E-2,8.118330240E-1,7.193880081E-1,-1.752659976E-1,1.098776654E0
8.049256900E-2,8.118330240E-1,7.193880081E-1,-1.752659976E-1,1.098776654E0
8.541469900E-2,8.118330240E-1,7.193880081E-1,-1.752659976E-1,1.098776654E0
9.033708200E-2,8.118330240E-1,7.193880081E-1,-1.752659976E-1,1.098776654E0
9.525931500E-2,8.118330240E-1,7.193880081E-1,-1.752659976E-1,1.098776654E0
1.001816730E-1,8.118330240E-1,7.193880081E-1,-1.752659976E-1,1.098776654E0
1.051039060E-1,8.118330240E-1,7.193880081E-1,-1.752659976E-1,1.098776654E0
1.100262890E-1,1.322769970E-1,-1.194370016E-1,-2.240470052E-1,2.862856298E-1
1.149484160E-1,2.111019939E-1,-6.047999859E-2,-3.642539978E-1,4.253267649E-1
1.198706440E-1,1.291680038E-1,1.104400028E-2,-5.207549930E-1,5.366489596E-1
1.247930090E-1,7.697799802E-2,4.324400052E-2,-5.439209938E-1,5.510405641E-1
1.297151650E-1,-9.922000021E-2,2.169290036E-1,-6.114529967E-1,6.563364749E-1
1.346373190E-1,-3.078869879E-1,3.351890147E-1,-5.585039854E-1,7.204670531E-1
1.395597730E-1,-4.148040116E-1,5.487509966E-1,-5.124340057E-1,8.577753986E-1
1.444819290E-1,-3.895860016E-1,7.497540116E-1,-4.544630051E-1,9.593982247E-1
1.494041560E-1,-2.752049863E-1,8.927540183E-1,-4.058249891E-1,1.018548695E0
1.543263100E-1,-1.955749989E-1,9.801440239E-1,-3.354989886E-1,1.054272953E0
1.592486920E-1,-1.312399954E-1,1.002359033E0,-2.506760061E-1,1.041530617E0
1.641709440E-1,-8.418899775E-2,1.000362039E0,-2.100500017E-1,1.025637850E0
1.690933270E-1,-4.000800103E-2,1.012541056E0,-1.869170070E-1,1.030426124E0
1.740155600E-1,-1.110699996E-1,9.959300160E-1,-1.665689945E-1,1.015853519E0
1.789379510E-1,-1.170670018E-1,9.671930075E-1,-1.349470019E-1,9.835536030E-1
1.838601070E-1,-1.064009964E-1,9.050269723E-1,-1.530369967E-1,9.240212741E-1
1.887822560E-1,-4.885200039E-2,8.239340186E-1,-2.056660056E-1,8.506187694E-1
1.937044850E-1,-3.452200070E-2,6.758930087E-1,-2.193730026E-1,7.114405401E-1
1.986268740E-1,2.676500008E-2,5.089719892E-1,-2.864629924E-1,5.846622076E-1
2.035491070E-1,2.162699960E-2,4.309450090E-1,-3.781979978E-1,5.737726496E-1
2.084712610E-1,8.740299940E-2,2.787419856E-1,-4.166780114E-1,5.088781229E-1
2.133936540E-1,7.963799685E-2,2.249809951E-1,-5.253840089E-1,5.770502712E-1
2.183158090E-1,1.149400026E-1,9.445299953E-2,-5.340449810E-1,5.543794865E-1
2.232382880E-1,4.222900048E-2,1.004839987E-1,-6.093729734E-1,6.190442175E-1
2.281605210E-1,-9.646000341E-3,5.835000053E-2,-5.856840014E-1,5.886624818E-1
2.330826750E-1,-8.109500259E-2,5.450699851E-2,-6.364369988E-1,6.438939865E-1
2.380050710E-1,-1.389410049E-1,7.924900204E-2,-6.569520235E-1,6.761441920E-1
2.429273040E-1,-2.164659947E-1,1.274670064E-1,-5.868380070E-1,6.383448997E-1
2.478494390E-1,-2.172490060E-1,1.419979930E-1,-6.109409928E-1,6.637841949E-1
2.527715930E-1,-2.249370068E-1,1.539119929E-1,-6.075260043E-1,6.658629022E-1
2.576939800E-1,-2.348310053E-1,1.991540045E-1,-6.051279902E-1,6.789608259E-1
2.626164420E-1,-2.398419976E-1,2.082619965E-1,-5.919830203E-1,6.718192758E-1
2.675385930E-1,-2.518259883E-1,2.170809954E-1,-5.589129925E-1,6.503262413E-1
2.724607470E-1,-3.057579994E-1,2.208220065E-1,-5.061479807E-1,6.312179426E-1
2.773829750E-1,-3.610509932E-1,2.100130022E-1,-4.833360016E-1,6.388090256E-1
2.823053890E-1,-3.943710029E-1,1.845789999E-1,-4.357540011E-1,6.160190294E-1
2.872275450E-1,-4.319689870E-1,1.422120035E-1,-4.083920121E-1,6.112327668E-1
2.921500040E-1,-4.316099882E-1,1.021459997E-1,-4.126450121E-1,6.058026851E-1
2.970722560E-1,-4.362570047E-1,6.922999769E-2,-4.337770045E-1,6.190924457E-1
3.019944100E-1,-4.388050139E-1,2.912900038E-2,-4.524849951E-1,6.309841596E-1
3.069167930E-1,-4.509699941E-1,-5.389299989E-2,-5.203790069E-1,6.907044967E-1
3.118389490E-1,-4.585610032E-1,-1.081779972E-1,-5.498809814E-1,7.241199945E-1
3.167611770E-1,-4.663929939E-1,-1.624020040E-1,-5.885339975E-1,7.682897253E-1
3.216836300E-1,-4.979020059E-1,-2.262410074E-1,-5.915269852E-1,8.056026161E-1
3.266057090E-1,-4.587480128E-1,-3.260459900E-1,-5.922279954E-1,8.170004439E-1
3.315279380E-1,-4.463649988E-1,-4.018689990E-1,-6.165789962E-1,8.607613276E-1
3.364503220E-1,-4.248679876E-1,-4.634599984E-1,-5.889760256E-1,8.615107287E-1
3.413725550E-1,-4.202310145E-1,-5.059180260E-1,-5.902010202E-1,8.836766370E-1
3.462947130E-1,-4.249939919E-1,-5.317549706E-1,-5.491849780E-1,8.746355709E-1
3.512168670E-1,-4.201779962E-1,-5.792989731E-1,-4.899899960E-1,8.673102356E-1
3.561393260E-1,-4.034720063E-1,-5.671200156E-1,-4.411459863E-1,8.240294614E-1
3.610616970E-1,-3.657140136E-1,-5.621590018E-1,-4.116170108E-1,7.868913817E-1
3.659839300E-1,-3.423810005E-1,-5.428649783E-1,-3.726989925E-1,7.421803509E-1
3.709060840E-1,-3.425549865E-1,-4.996089935E-1,-3.408960104E-1,6.950993850E-1
3.758284660E-1,-3.422189951E-1,-4.705930054E-1,-3.275620043E-1,6.677338422E-1
3.807506990E-1,-3.250159919E-1,-4.391010106E-1,-2.993420064E-1,6.229371793E-1
3.856728530E-1,-3.169850111E-1,-3.906719983E-1,-2.940390110E-1,5.827203853E-1
3.905952350E-1,-2.967129946E-1,-3.635930121E-1,-2.947269976E-1,5.541682801E-1
3.955173720E-1,-3.442899883E-1,-3.506290019E-1,-3.036130071E-1,5.776306355E-1
4.004396010E-1,-3.362750113E-1,-3.014189899E-1,-3.511649966E-1,5.720586907E-1
4.053619860E-1,-2.949639857E-1,-2.662509978E-1,-4.134050012E-1,5.734082679E-1
4.102841460E-1,-2.656019926E-1,-1.973129958E-1,-4.643900096E-1,5.702060310E-1
4.152063740E-1,-2.669309974E-1,-1.569280028E-1,-4.950459898E-1,5.839084581E-1
4.201288360E-1,-2.467910051E-1,-5.193800107E-2,-4.779419899E-1,5.403997612E-1
4.250509780E-1,-2.409060001E-1,-1.157100033E-2,-4.797390103E-1,5.369535427E-1
4.299733600E-1,-2.045480013E-1,5.499900132E-2,-4.414890110E-1,4.896706259E-1
4.348955160E-1,-1.687680036E-1,1.359329969E-1,-4.461799860E-1,4.960211675E-1
4.398177310E-1,-1.876789927E-1,1.953029931E-1,-4.485009909E-1,5.239463734E-1
4.447398870E-1,-2.016080022E-1,2.929329872E-1,-4.486379921E-1,5.724784446E-1
4.496622830E-1,-1.731919944E-1,3.736329973E-1,-4.066570103E-1,5.787633434E-1
4.545845160E-1,-1.971630007E-1,4.636830091E-1,-3.469710052E-1,6.117712483E-1
4.595069760E-1,-1.459970027E-1,5.367429852E-1,-2.934249938E-1,6.288929829E-1
4.644291470E-1,-8.215899765E-2,6.096079946E-1,-2.433930039E-1,6.615226091E-1
4.693513010E-1,-1.747800037E-2,6.462500095E-1,-1.522269994E-1,6.641668576E-1
4.742736830E-1,1.070300024E-2,6.802570224E-1,-7.940500230E-2,6.849593602E-1
4.791958580E-1,9.234800190E-2,6.877700090E-1,-2.904600091E-2,6.945497887E-1
4.841183180E-1,1.585440040E-1,7.119609714E-1,-5.485000089E-3,7.294208053E-1
4.890405500E-1,2.214969993E-1,6.883119941E-1,-1.504500024E-2,7.232293370E-1
4.939626800E-1,2.625600100E-1,6.766909957E-1,-3.375000134E-2,7.266275009E-1
4.988850630E-1,3.339880109E-1,6.387559772E-1,-4.737300053E-2,7.223582151E-1
5.038072190E-1,3.905139863E-1,5.937520266E-1,-8.648499846E-2,7.159066263E-1
5.087293400E-1,4.559749961E-1,5.105170012E-1,-1.201450005E-1,6.949644787E-1
5.136517990E-1,5.020959973E-1,4.536769986E-1,-1.533520073E-1,6.938588097E-1
5.185739590E-1,5.549380183E-1,4.088039994E-1,-1.744849980E-1,7.110006531E-1
5.234961900E-1,5.347390175E-1,3.545100093E-1,-2.377270013E-1,6.842055909E-1
5.284185720E-1,4.638080001E-1,3.673129976E-1,-2.863880098E-1,6.573087488E-1
5.333407380E-1,4.532209933E-1,4.112760127E-1,-3.372499943E-1,6.987809285E-1
5.382629670E-1,3.633480072E-1,4.720709920E-1,-4.021970034E-1,7.187734172E-1
5.431853520E-1,2.800230086E-1,5.688580275E-1,-4.739579856E-1,7.916113395E-1
5.481075700E-1,2.381590009E-1,6.847890019E-1,-5.243290067E-1,8.947494589E-1
5.530299530E-1,1.899449974E-1,8.126839995E-1,-5.820009708E-1,1.017477034E0
5.579521860E-1,1.567869931E-1,9.285349846E-1,-6.139119864E-1,1.124120681E0
5.628743300E-1,1.757449955E-1,1.096861005E0,-6.064829826E-1,1.265627108E0
5.677964840E-1,1.777870059E-1,1.248100996E0,-5.463590026E-1,1.373998717E0
5.727188900E-1,1.983799934E-1,1.396633029E0,-4.884360135E-1,1.492818870E0
5.776411230E-1,2.067719996E-1,1.568627000E0,-3.646109998E-1,1.623664530E0
5.825634910E-1,1.963589936E-1,1.692317963E0,-2.486740053E-1,1.721724630E0
5.874856460E-1,2.005729973E-1,1.767655015E0,-1.026069969E-1,1.781954538E0
5.924078750E-1,1.771270037E-1,1.828181982E0,4.978499934E-2,1.837417177E0
5.973302700E-1,1.783750057E-1,1.826241970E0,1.503729969E-1,1.841083761E0
6.022524260E-1,1.362980008E-1,1.812023044E0,2.918109894E-1,1.840423405E0
6.071746540E-1,9.879399836E-2,1.725805998E0,4.105289876E-1,1.776710625E0
6.120971300E-1,-2.066999907E-3,1.617823005E0,5.683789849E-1,1.714762438E0
6.170192860E-1,-6.210099906E-2,1.447644949E0,6.597110033E-1,1.592090148E0
6.219416690E-1,-9.642600268E-2,1.272987008E0,6.767209768E-1,1.444903172E0
6.268638920E-1,-1.104850024E-1,1.048550963E0,6.375100017E-1,1.232105945E0
6.317859690E-1,-2.102459967E-1,8.389199972E-1,6.085230112E-1,1.057492504E0
6.367081780E-1,-2.865029871E-1,6.511620283E-1,5.891159773E-1,9.236631331E-1
6.416305630E-1,-3.957479894E-1,5.388420224E-1,5.900009871E-1,8.916660591E-1
6.465527950E-1,-4.353019893E-1,4.194020033E-1,6.250749826E-1,8.695427512E-1
6.514749490E-1,-5.243549943E-1,3.527820110E-1,5.704280138E-1,8.513468308E-1
6.563973320E-1,-5.795220137E-1,2.743180096E-1,5.073360205E-1,8.176099146E-1
6.613195560E-1,-5.845770240E-1,1.935880035E-1,3.975290060E-1,7.329637936E-1
6.662417100E-1,-4.994429946E-1,1.489219964E-1,2.243780047E-1,5.674209679E-1
6.711640920E-1,-3.483990133E-1,1.067150012E-1,6.384199858E-2,3.699267018E-1
6.760865540E-1,-1.908529997E-1,1.147819981E-1,-1.036579981E-1,2.456516948E-1
6.810087870E-1,-8.568099886E-2,1.873629987E-1,-2.454009950E-1,3.204181256E-1
6.859309400E-1,-1.244539991E-1,2.979890108E-1,-3.549039960E-1,4.798365293E-1
6.908533080E-1,-3.248310089E-1,4.632419944E-1,-4.067609906E-1,6.968233874E-1
6.957754640E-1,-3.893150091E-1,5.344870090E-1,-3.041880131E-1,7.278549900E-1
7.006977030E-1,-4.094560146E-1,5.475680232E-1,-1.433939934E-1,6.986034679E-1
7.056198580E-1,-3.739680052E-1,5.167369843E-1,1.394889951E-1,6.529367194E-1
7.105422700E-1,-3.068990111E-1,4.396370053E-1,4.514000118E-1,7.008777854E-1
7.154645030E-1,-2.675549984E-1,2.948139906E-1,7.669299841E-1,8.641079601E-1
7.203868860E-1,-2.341520041E-1,1.470350027E-1,1.044013977E0,1.080005388E0
7.253091320E-1,-2.231580019E-1,-9.937000275E-2,1.324228048E0,1.346571133E0
7.302312860E-1,-1.941329986E-1,-4.849750102E-1,1.622861981E0,1.704866385E0
7.351534400E-1,-2.018930018E-1,-9.425330162E-1,1.843233943E0,2.080057845E0
7.400759050E-1,-2.584860027E-1,-1.574769020E0,1.977193952E0,2.540867648E0
7.449982890E-1,-2.736130059E-1,-2.328846931E0,2.035113096E0,3.104847407E0
7.499205220E-1,-3.859440088E-1,-3.168740988E0,2.005695105E0,3.769971496E0
7.548426900E-1,-4.363099933E-1,-4.214118958E0,1.950994968E0,4.664284121E0
7.597650720E-1,-5.588319898E-1,-5.321322918E0,1.770354033E0,5.635860555E0
7.646872230E-1,-6.632549763E-1,-6.461636066E0,1.470479012E0,6.659951677E0
7.696094520E-1,-8.191440105E-1,-7.563383102E0,1.067139983E0,7.682092723E0
7.745318370E-1,-9.790130258E-1,-8.456691742E0,5.018180013E-1,8.527949521E0
7.794540610E-1,-1.162387967E0,-9.034110069E0,-5.265599862E-2,9.108735543E0
7.843762140E-1,-1.247931957E0,-8.946236610E0,-6.456680298E-1,9.055902543E0
7.892983680E-1,-9.763789773E-1,-8.281782150E0,-1.135226011E0,8.416054277E0
7.942207700E-1,-7.037019730E-1,-7.014615059E0,-1.500784039E0,7.207799499E0
7.991430030E-1,-4.104110003E-1,-5.695516109E0,-1.788120985E0,5.983704338E0
8.040653850E-1,-2.838720083E-1,-4.389416218E0,-1.880584955E0,4.783738896E0
8.089878370E-1,-5.484439731E-1,-3.302764893E0,-1.719370008E0,3.763679044E0
8.139099930E-1,-8.495789766E-1,-2.390120029E0,-1.421571970E0,2.907804164E0
8.188321470E-1,-1.123075962E0,-1.608450055E0,-9.943339825E-1,2.199343371E0
8.237543560E-1,-1.295694947E0,-9.719640017E-1,-5.230190158E-1,1.702083520E0
8.286765120E-1,-1.313408971E0,-4.586420059E-1,-1.824180037E-1,1.403093704E0
8.335988850E-1,-1.359881997E0,3.587000072E-3,7.719799876E-2,1.362076152E0
8.385211180E-1,-1.389268994E0,3.815670013E-1,2.243289948E-1,1.458075860E0
8.434432710E-1,-1.508002043E0,6.777859926E-1,3.534870148E-1,1.690685388E0
8.483656640E-1,-1.731508017E0,9.235429764E-1,4.397040009E-1,2.011067192E0
8.532878970E-1,-1.830973983E0,1.076339006E0,4.370700121E-1,2.168409919E0
8.582100510E-1,-1.757477045E0,1.144034028E0,3.187479973E-1,2.121117561E0
8.631324470E-1,-1.853863955E0,1.234202027E0,2.714309990E-1,2.243600007E0
8.680549090E-1,-1.926396966E0,1.397065043E0,3.113020062E-1,2.399938529E0
8.729771420E-1,-2.004143953E0,1.543827057E0,5.257850289E-1,2.583881743E0
8.778995240E-1,-1.968848944E0,1.708148956E0,7.948729992E-1,2.725061853E0
8.828216800E-1,-1.921293020E0,1.916545987E0,1.032835960E0,2.903664153E0
8.877438340E-1,-1.901999950E0,2.171480894E0,1.235139966E0,3.139825444E0
8.926660480E-1,-1.832687020E0,2.444436073E0,1.375795960E0,3.350645304E0
8.975882040E-1,-1.751317978E0,2.778704882E0,1.364706039E0,3.556787603E0
9.025105910E-1,-1.584105015E0,3.088381052E0,1.212283015E0,3.676563114E0
9.074328240E-1,-1.461627007E0,3.426127911E0,9.551299810E-1,3.845384148E0
9.123549780E-1,-1.448905945E0,3.767889023E0,5.511429906E-1,4.074318927E0
9.172773800E-1,-1.207988977E0,4.007485867E0,-2.816849947E-1,4.195059806E0
9.221996120E-1,-1.241758943E0,4.118797779E0,-1.288741946E0,4.490803516E0
9.271217660E-1,-1.301401973E0,4.143582821E0,-1.980530977E0,4.773408493E0
9.320442260E-1,-1.266011000E0,4.078486919E0,-2.389378071E0,4.893461655E0
9.369666100E-1,-1.128124952E0,3.994672060E0,-2.608290911E0,4.902372104E0
9.418888430E-1,-8.775420189E-1,3.894278049E0,-2.688082933E0,4.812615856E0
9.468112120E-1,-6.948950291E-1,3.810148954E0,-2.652884007E0,4.694454996E0
9.517333680E-1,-5.902469754E-1,3.813721895E0,-2.594532013E0,4.650211022E0
9.566555160E-1,-5.335890055E-1,3.876233101E0,-2.589183092E0,4.691883349E0
9.615777450E-1,-4.550639987E-1,4.094682217E0,-2.524298906E0,4.831727503E0
9.664998720E-1,-3.492900133E-1,4.385704994E0,-2.439722061E0,5.030770870E0
9.714222550E-1,-1.993499994E-1,4.780262947E0,-2.296467066E0,5.307015663E0
9.763444880E-1,-7.832500339E-2,5.160569191E0,-2.097054958E0,5.570928888E0
9.812666500E-1,2.370930016E-1,5.580437183E0,-1.843955040E0,5.881977766E0
9.861891100E-1,3.644550145E-1,5.915593147E0,-1.517321944E0,6.117951914E0
9.911112660E-1,6.321790218E-1,6.220808029E0,-1.133602977E0,6.354774470E0
9.960336480E-1,7.544919848E-1,6.387731075E0,-7.109379768E-1,6.471305838E0
1.000955881E0,1.091966033E0,6.623575211E0,-3.842310011E-1,6.723969947E0
1.005878264E0,1.434888005E0,6.859347820E0,-1.535589993E-1,7.009503297E0
1.010800478E0,1.782176018E0,7.081061840E0,-1.983999973E-3,7.301889624E0
1.015722631E0,2.204595089E0,7.356509209E0,4.645799845E-2,7.679884478E0
1.020645009E0,2.637094021E0,7.635528088E0,6.369200349E-2,8.078342078E0
1.025567165E0,3.036447048E0,7.948977947E0,9.638999589E-3,8.509192323E0
1.030489399E0,3.275577068E0,8.229334831E0,-1.531530023E-1,8.858601060E0
1.035411783E0,3.295953989E0,8.555929184E0,-2.466029972E-1,9.172134426E0
1.040334016E0,3.327950001E0,8.822143555E0,-4.913980067E-1,9.441765730E0
1.045256418E0,3.092292070E0,9.100813866E0,-7.784519792E-1,9.643291489E0
1.050178651E0,2.996889114E0,9.332397461E0,-1.259930968E0,9.882429498E0
1.055100804E0,2.859612942E0,9.584061623E0,-1.549535036E0,1.012090323E1
1.060023192E0,2.674787045E0,9.805128098E0,-1.643967986E0,1.029551618E1
1.064945425E0,2.365602016E0,9.950418472E0,-1.415339947E0,1.032521612E1
1.069867579E0,2.559461117E0,9.938231468E0,-1.155848026E0,1.032740386E1
1.074789956E0,2.413978100E0,9.931476593E0,-7.575489879E-1,1.024867787E1
1.079712112E0,2.130440950E0,9.870086670E0,-1.735959947E-1,1.009888732E1
1.084634341E0,2.030982018E0,9.729461670E0,3.293760121E-1,9.944636791E0
1.089556726E0,2.145864964E0,9.163092613E0,8.184249997E-1,9.446524343E0
1.094478969E0,2.156932116E0,8.228896141E0,1.261942029E0,8.599975903E0
1.099401352E0,1.398326993E0,7.259747982E0,2.060518980E0,7.674959128E0
1.104323508E0,3.925929964E-1,5.899129868E0,3.258224010E0,6.750547101E0
1.109245737E0,-2.957690060E-1,2.550585032E0,4.856891155E0,5.493847013E0
1.114167892E0,2.659800090E-2,-5.500589848E0,7.214766979E0,9.072489112E0
1.119090260E0,1.859238982E0,-1.915264893E1,1.082123280E1,2.207668022E1
1.124012493E0,3.153681993E0,-3.548328400E1,1.543392086E1,3.882286783E1
1.128934875E0,4.505551815E0,-5.200351715E1,1.995507431E1,5.588265191E1
1.133857103E0,5.452657223E0,-6.397214508E1,2.199078751E1,6.786576127E1
1.138779257E0,5.400627136E0,-6.625711823E1,1.837728691E1,6.897026289E1
1.143701411E0,4.096605778E0,-5.632843781E1,1.061725998E1,5.746652325E1
1.148623809E0,1.829879045E0,-4.170695496E1,4.701167107E0,4.201094525E1
1.153546041E0,-1.483847976E0,-3.125168228E1,-4.094099998E-2,3.128691622E1
1.158468199E0,-4.050192833E0,-2.404953003E1,-3.427447081E0,2.462785720E1
1.163390582E0,-5.798647881E0,-1.898125458E1,-4.891085148E0,2.044101408E1
1.168312815E0,-7.074118137E0,-1.545136738E1,-4.705403805E0,1.763317119E1
1.173234998E0,-7.961521149E0,-1.318954182E1,-3.861268997E0,1.588267076E1
1.178157380E0,-8.120230675E0,-1.182082272E1,-2.389158964E0,1.453884715E1
1.183079613E0,-7.444850922E0,-1.141837311E1,-4.358440042E-1,1.363799874E1
1.188002067E0,-6.510032177E0,-1.154978085E1,1.755658984E0,1.337386612E1
1.192924223E0,-5.613333225E0,-1.181868744E1,4.242057800E0,1.375448789E1
1.197846606E0,-4.369585037E0,-1.193068790E1,6.374217987E0,1.421496543E1
1.202768810E0,-2.660547018E0,-1.162760925E1,8.846820831E0,1.485079278E1
1.207690964E0,-3.809759915E-1,-1.094616222E1,1.089984131E1,1.545218919E1
1.212613132E0,4.344319999E-1,-9.733275414E0,7.849394798E0,1.251152989E1
1.217535515E0,1.096379980E-1,-7.605857849E0,2.850586891E0,8.123234561E0
1.222457776E0,-8.286319971E-1,-4.974946976E0,-1.771160960E0,5.345441006E0
1.227379930E0,-1.392688990E0,-2.591017008E0,-4.228872776E0,5.151341254E0
1.232302312E0,-1.906726003E0,-4.010609984E-1,-7.139688015E0,7.400783670E0
1.237224554E0,-1.943603039E0,1.409865975E0,-8.579364777E0,8.909029959E0
1.242146937E0,-1.656394005E0,2.916502953E0,-8.451880455E0,9.093069548E0
1.247069093E0,-1.154170036E0,4.077898026E0,-7.062337875E0,8.236381308E0
1.251991552E0,-6.455940008E-1,4.990015984E0,-5.034564972E0,7.117857514E0
1.256913785E0,-2.031030059E-1,5.686749935E0,-3.214132071E0,6.535366908E0
1.261835939E0,9.997399896E-2,6.292751789E0,-1.841629982E0,6.557462990E0
1.266758321E0,3.878810108E-1,6.889517784E0,-8.947280049E-1,6.958192666E0
1.271680477E0,6.348729730E-1,7.573130131E0,-3.650549948E-1,7.608457716E0
1.276602617E0,7.859830260E-1,8.317483902E0,-2.637220025E-1,8.358699484E0
1.281524846E0,9.747790098E-1,8.988354683E0,-4.419479966E-1,9.051852410E0
1.286447231E0,1.188717008E0,9.556241989E0,-6.570960283E-1,9.652283889E0
1.291369463E0,1.367823005E0,9.932319641E0,-7.784119844E-1,1.005623381E1
1.296291846E0,1.406643987E0,1.032791615E1,-1.013301969E0,1.047240565E1
1.301214008E0,1.551571965E0,1.068234444E1,-1.491623044E0,1.089700865E1
1.306136237E0,1.725597024E0,1.106589413E1,-2.221304893E0,1.141778846E1
1.311058621E0,1.946174979E0,1.143071365E1,-2.625897884E0,1.188882464E1
1.315980844E0,2.093122959E0,1.163515663E1,-2.920507908E0,1.217733140E1
1.320903227E0,2.062623978E0,1.180736542E1,-3.271018028E0,1.242448609E1
1.325825459E0,2.063191891E0,1.193791008E1,-3.725150108E0,1.267466770E1
1.330747584E0,2.096574068E0,1.202246857E1,-3.930624008E0,1.282127834E1
1.335669738E0,2.194349051E0,1.214227581E1,-4.169563770E0,1.302441137E1
1.340592126E0,2.225765944E0,1.226513386E1,-4.271817207E0,1.317710002E1
1.345514359E0,2.139991045E0,1.240914345E1,-4.179474831E0,1.326779607E1
1.350436526E0,2.281863928E0,1.245516109E1,-3.940927029E0,1.326155522E1
1.355358986E0,2.273403883E0,1.243849754E1,-3.537796021E0,1.313014040E1
1.360281371E0,2.351147890E0,1.241074276E1,-3.384697914E0,1.307710259E1
1.365203522E0,2.407682896E0,1.230580997E1,-3.375386953E0,1.298549703E1
1.370125905E0,2.332400084E0,1.230610371E1,-3.605307102E0,1.303374535E1
1.375048061E0,2.431914091E0,1.206228256E1,-3.519119024E0,1.279832276E1
1.379970289E0,2.380151987E0,1.201687813E1,-3.129266977E0,1.264368598E1
1.384892444E0,2.455530882E0,1.205325031E1,-2.908886909E0,1.264009882E1
1.389814827E0,2.385128975E0,1.206836987E1,-2.768047094E0,1.260938048E1
1.394737036E0,2.380223036E0,1.216138268E1,-2.792089939E0,1.270277358E1
1.399659190E0,2.188971996E0,1.214192104E1,-2.669847965E0,1.262322990E1
1.404581664E0,2.025155067E0,1.214241982E1,-2.648729086E0,1.259187745E1
1.409503820E0,1.835086942E0,1.210813141E1,-2.654884100E0,1.253087387E1
1.414425993E0,1.816704035E0,1.203675365E1,-2.677512884E0,1.246406544E1
1.419348376E0,1.608531952E0,1.204970169E1,-2.696743011E0,1.245211262E1
1.424270522E0,1.576207042E0,1.184781170E1,-2.406090975E0,1.219197869E1
1.429192750E0,1.490344048E0,1.170442486E1,-2.524821997E0,1.206604379E1
1.434114906E0,1.374642015E0,1.155256462E1,-2.437678099E0,1.188670116E1
1.439037371E0,1.334135056E0,1.150756359E1,-2.703752995E0,1.189597480E1
1.443959755E0,1.212695003E0,1.143757153E1,-2.555372000E0,1.178213044E1
1.448881988E0,1.088786960E0,1.129943848E1,-2.807466984E0,1.169378629E1
1.453804366E0,9.849960208E-1,1.122589493E1,-2.942604065E0,1.164688168E1
1.458726522E0,8.312730193E-1,1.108002853E1,-3.029234886E0,1.151669706E1
1.463648646E0,6.446670294E-1,1.090409470E1,-3.053118944E0,1.134179933E1
1.468570875E0,4.628860056E-1,1.079587746E1,-2.946768999E0,1.120038754E1
1.473493265E0,3.144659996E-1,1.067593956E1,-2.948132038E0,1.107998452E1
1.478415498E0,2.319629937E-1,1.056168079E1,-2.874458075E0,1.094830659E1
1.483337651E0,1.184040010E-1,1.047512436E1,-2.841022968E0,1.085420017E1
1.488260029E0,-2.979999990E-4,1.037395859E1,-2.754586935E0,1.073344148E1
1.493182262E0,-3.522200137E-2,1.025179005E1,-2.725642920E0,1.060799553E1
1.498104416E0,-6.926099956E-2,1.017622471E1,-2.816675901E0,1.055907238E1
1.503026798E0,-2.021909952E-1,1.012025356E1,-2.800832987E0,1.050262247E1
1.507949260E0,-2.553530037E-1,1.006882954E1,-2.789333105E0,1.045116800E1
1.512871416E0,-3.573110104E-1,1.000735760E1,-2.703845978E0,1.037235076E1
1.517793647E0,-4.357379973E-1,9.988345146E0,-2.556938887E0,1.031963385E1
1.522716029E0,-4.320139885E-1,9.978475571E0,-2.609402895E0,1.032306128E1
1.527638185E0,-4.101339877E-1,9.930688858E0,-2.635694981E0,1.028268832E1
1.532560339E0,-3.542689979E-1,9.909239769E0,-2.682251930E0,1.027195282E1
1.537482539E0,-3.939929903E-1,9.826878548E0,-2.658099890E0,1.018765270E1
1.542404923E0,-4.778119922E-1,9.802846909E0,-2.551991940E0,1.014084684E1
1.547327079E0,-4.610469937E-1,9.787880898E0,-2.674045086E0,1.015705144E1
1.552249280E0,-5.213170052E-1,9.729082108E0,-2.751195908E0,1.012402534E1
1.557171665E0,-8.676319718E-1,9.533085823E0,-2.516799927E0,9.897817558E0
1.562093820E0,-1.255864978E0,8.994341850E0,-2.336947918E0,9.377457424E0
1.567016130E0,-1.048789024E0,8.211806297E0,-2.597496033E0,8.676445512E0
1.571938592E0,-1.092443943E0,7.716308117E0,-2.836287022E0,8.293332792E0
1.576860976E0,-1.485743046E0,6.886364937E0,-2.359334946E0,7.429395388E0
1.581783108E0,-1.578899026E0,4.827443123E0,5.529549718E-1,5.109098594E0
1.586705339E0,-2.419842005E0,2.212869883E0,6.767250061E0,7.519847195E0
1.591627493E0,-4.702670097E0,1.510884047E0,1.351712227E1,1.439133319E1
1.596549876E0,-6.182486057E0,1.312811971E0,2.020659256E1,2.117198602E1
1.601472108E0,-7.448513031E0,2.469040006E-1,3.145998383E1,3.233066486E1
1.606394291E0,-5.640520096E0,6.307499856E-2,3.293584061E1,3.341540127E1
1.611316674E0,-6.368569732E-1,-5.698101044E0,3.317677307E1,3.366856418E1
1.616238806E0,5.306786060E0,-3.444801331E1,4.189347076E1,5.449670166E1
1.621161034E0,4.879237175E0,-6.687008667E1,4.722142792E1,8.200779659E1
1.626083419E0,6.125016212E0,-6.986837006E1,5.383885574E1,8.841791304E1
1.631005876E0,6.889423847E0,-6.981681061E1,4.125797272E1,8.138839916E1
1.635928031E0,8.366301537E0,-6.977110291E1,1.621084595E1,7.211652604E1
1.640850262E0,5.399116039E0,-6.920909119E1,3.074441910E0,6.948741577E1
1.645772626E0,3.677181005E0,-5.458573914E1,-4.895686150E0,5.492806496E1
1.650694782E0,2.899334908E0,-3.509274673E1,-1.731283951E1,3.923826485E1
1.655616936E0,1.414564013E0,-1.967484665E1,-3.741886902E1,4.229979126E1
1.660539164E0,-1.367030978E0,-1.014515209E1,-3.592379379E1,3.735387323E1
1.665461549E0,-6.918110251E-1,-5.363321781E0,-2.198617172E1,2.264145689E1
1.670383801E0,-4.139049947E-1,-3.296144009E0,-1.222327709E1,1.266666434E1
1.675306183E0,-8.984529972E-1,-1.977010965E0,-8.311457634E0,8.590466701E0
1.680228416E0,-1.383563995E0,-4.822329879E-1,-7.083491802E0,7.233439990E0
1.685150594E0,-1.838897943E0,1.318850994E0,-7.706532955E0,8.031909099E0
1.690072977E0,-1.550297976E0,2.836631060E0,-7.691983223E0,8.343650609E0
1.694995233E0,-5.329499841E-1,4.069954872E0,-6.627328873E0,7.795515142E0
1.699917616E0,1.706120074E-1,5.216071129E0,-5.903388977E0,7.879499216E0
1.704839772E0,1.338312984E0,5.417819977E0,-5.788177967E0,8.040327053E0
1.709761971E0,2.299227953E0,5.061050892E0,-5.730073929E0,7.983384780E0
1.714684355E0,2.488941908E0,5.046038151E0,-5.288870811E0,7.722013164E0
1.719606242E0,2.119074106E0,5.248560905E0,-3.934077978E0,6.893100622E0
1.724528702E0,2.122911930E0,5.358676910E0,-3.399171114E0,6.691527296E0
1.729451111E0,2.479198933E0,5.346160889E0,-2.548933029E0,6.420663765E0
1.734373343E0,2.861829042E0,5.470407009E0,-1.751574993E0,6.417431984E0
1.739295420E0,3.078232050E0,5.885552883E0,-1.215484023E0,6.752232720E0
1.744217663E0,3.433533907E0,6.468388081E0,-7.261689901E-1,7.359111417E0
1.749140048E0,3.559297085E0,7.170155048E0,-3.516530097E-1,8.012701105E0
1.754062295E0,3.541665077E0,8.123776436E0,-2.949509919E-1,8.867137711E0
1.758984677E0,3.680347919E0,9.016021729E0,-1.001930013E-1,9.738770315E0
1.763906910E0,3.738035917E0,9.668602943E0,1.251839995E-1,1.036679634E1
1.768829293E0,3.798688889E0,1.014748383E1,-5.599299818E-2,1.083534035E1
1.773751448E0,3.623733044E0,1.062829399E1,-2.771160007E-1,1.123249160E1
1.778673602E0,3.363075972E0,1.101336956E1,-7.109259963E-1,1.153733092E1
1.783595851E0,3.021625996E0,1.137222862E1,-1.322566986E0,1.184090330E1
1.788518236E0,2.631067038E0,1.167366219E1,-1.941179037E0,1.212291543E1
1.793440416E0,2.132201910E0,1.188877106E1,-2.384447098E0,1.231156977E1
1.798362875E0,1.666332006E0,1.200332832E1,-3.034960985E0,1.249269952E1
1.803285031E0,1.366889000E0,1.207013321E1,-3.675295115E0,1.269111088E1
1.808207247E0,1.412580013E0,1.206784153E1,-4.009335995E0,1.279464562E1
1.813129629E0,1.623677015E0,1.210541725E1,-4.367277145E0,1.297114349E1
1.818051785E0,1.928086042E0,1.211737823E1,-4.495223999E0,1.306734135E1
1.822974024E0,2.323597908E0,1.210797596E1,-4.401460171E0,1.309102902E1
1.827896409E0,2.716480017E0,1.202670288E1,-4.167623043E0,1.301498858E1
1.832818641E0,3.003777981E0,1.197002697E1,-3.748114109E0,1.289777451E1
1.837741019E0,3.235352993E0,1.191494560E1,-3.524804115E0,1.283969165E1
1.842663175E0,3.344928026E0,1.189366817E1,-3.626164913E0,1.287621676E1
1.847585329E0,3.339751005E0,1.191484833E1,-3.763048887E0,1.293360292E1
1.852507807E0,3.325529099E0,1.180739117E1,-3.740340948E0,1.282434327E1
1.857429963E0,3.267049074E0,1.171268559E1,-3.625700951E0,1.268882661E1
1.862352194E0,3.141283035E0,1.159963894E1,-3.563739061E0,1.253473249E1
1.867274348E0,2.932540894E0,1.148028946E1,-3.624793053E0,1.239096311E1
1.872196807E0,2.701370001E0,1.136664677E1,-3.783966064E0,1.228073523E1
1.877118963E0,2.483930111E0,1.120370483E1,-3.966450930E0,1.214189622E1
1.882041360E0,2.244676113E0,1.111825180E1,-3.987823963E0,1.202317903E1
1.886963593E0,2.015033960E0,1.101212883E1,-3.890841007E0,1.185183475E1
1.891885975E0,1.817157984E0,1.089049530E1,-4.059463024E0,1.176368102E1
1.896808199E0,1.677978992E0,1.087075520E1,-4.026295185E0,1.171323973E1
1.901730353E0,1.528836966E0,1.085289001E1,-4.050566196E0,1.168459031E1
1.906652507E0,1.465765953E0,1.088307190E1,-4.068295002E0,1.171071082E1
1.911574956E0,1.371639013E0,1.087352467E1,-4.147003174E0,1.171804453E1
1.916497035E0,1.284379959E0,1.092057705E1,-4.027233124E0,1.171013414E1
1.921419264E0,1.165534973E0,1.087400055E1,-4.014352798E0,1.164978060E1
1.926341649E0,1.095831037E0,1.070776367E1,-3.872108936E0,1.143898055E1
1.931264110E0,1.047669053E0,1.051906776E1,-3.666892052E0,1.118903456E1
1.936186319E0,1.084633946E0,1.035664272E1,-3.723825932E0,1.105908490E1
1.941108473E0,1.034294963E0,1.018476200E1,-3.582340002E0,1.084584266E1
1.946030702E0,1.035585999E0,9.990238190E0,-3.449657917E0,1.061967218E1
1.950953172E0,1.032312036E0,9.913537025E0,-3.558557034E0,1.058334600E1
1.955875328E0,9.625610113E-1,9.816567421E0,-3.477116108E0,1.045857811E1
1.960797711E0,9.450100064E-1,9.694626808E0,-3.511173010E0,1.035408947E1
1.965719924E0,9.430029988E-1,9.585107803E0,-3.630916119E0,1.029306068E1
1.970642078E0,9.423609972E-1,9.523493767E0,-3.717291117E0,1.026660757E1
1.975564213E0,8.362360001E-1,9.411248207E0,-3.608071089E0,1.011380544E1
1.980486596E0,8.115239739E-1,9.342988968E0,-3.691246033E0,1.007845778E1
1.985408815E0,7.825679779E-1,9.304564476E0,-3.826745033E0,1.009115010E1
1.990331197E0,8.008769751E-1,9.263001442E0,-4.011559963E0,1.012606602E1
1.995253430E0,8.462989926E-1,9.184735298E0,-4.195887089E0,1.013316599E1
2.000175817E0,8.914489746E-1,9.121809959E0,-4.431616783E0,1.018043838E1
2.005098049E0,9.635879993E-1,9.058403015E0,-4.692617893E0,1.024713763E1
2.010020203E0,9.914219975E-1,9.039205551E0,-4.974265099E0,1.036501171E1
2.014942591E0,1.018211007E0,8.991815567E0,-5.268574238E0,1.047126427E1
2.019864824E0,1.007797956E0,8.971888542E0,-5.572554111E0,1.060960886E1
2.024786978E0,9.990919828E-1,8.943689346E0,-5.820736885E0,1.071768360E1
2.029709331E0,9.044389725E-1,8.849395752E0,-5.996198177E0,1.072773078E1
2.034631487E0,5.986899734E-1,8.620040894E0,-6.083619118E0,1.056758990E1
2.039553928E0,3.838950098E-1,8.298467636E0,-6.102544785E0,1.030790926E1
2.044476083E0,3.917140067E-1,7.692815781E0,-6.096520901E0,9.823462811E0
2.049398319E0,8.923599869E-2,6.802816868E0,-6.243807793E0,9.234252333E0
2.054320473E0,-2.567110062E-1,3.569019079E0,-4.293628216E0,5.589189654E0
2.059242627E0,-1.845708966E0,2.302469015E0,-1.263460070E-1,2.953636482E0
2.064165010E0,-1.925776005E0,-2.603399940E-2,8.586494446E0,8.799839650E0
2.069087242E0,-5.843278885E0,-2.738661051E0,2.310146713E1,2.398586993E1
2.074009625E0,-7.078102112E0,-2.084373951E0,3.698900986E1,3.771778088E1
2.078931853E0,-5.307531834E0,-2.099282980E0,4.601738358E1,4.636999541E1
2.083854235E0,-2.340457916E0,-2.994818926E0,5.356431580E1,5.369900009E1
2.088776468E0,1.878662944E0,-6.731444836E0,5.411506653E1,5.456447699E1
2.093698617E0,7.824137211E0,-3.696846390E1,5.662527847E1,6.807574170E1
2.098620771E0,9.119114876E0,-6.952575684E1,6.730814362E1,9.719760962E1
2.103543154E0,1.141280079E1,-7.093046570E1,6.793536377E1,9.887667387E1
2.108465386E0,1.351801968E1,-7.075971222E1,4.279612732E1,8.379249515E1
2.113387540E0,9.969125748E0,-7.059379578E1,1.623252678E1,7.311882381E1
2.118309923E0,7.183190823E0,-6.754850769E1,5.241148949E0,6.813126128E1
2.123232156E0,1.065578938E1,-4.722530746E1,-4.866463089E1,6.864416808E1
2.128154538E0,2.704514027E0,-2.885354233E1,-8.361212158E1,8.849196673E1
2.133076738E0,1.286226988E0,-1.732960129E1,-5.571908188E1,5.836596222E1
2.137998967E0,2.552555084E0,-9.997439384E0,-2.560786247E1,2.760845798E1
2.142921428E0,3.388289928E0,-5.543015003E0,-1.633425140E1,1.757877393E1
2.147843584E0,3.710352898E0,-2.279472113E0,-1.032407379E1,1.120487445E1
2.152765967E0,3.643968105E0,2.475250065E-1,-7.031295776E0,7.923313226E0
2.157688200E0,2.601597071E0,2.352788925E0,-5.482191086E0,6.508328675E0
2.162610339E0,1.402631044E0,4.400337219E0,-4.941700935E0,6.763930043E0
2.167532493E0,4.571470022E-1,6.099084854E0,-5.394782066E0,8.155457865E0
2.172454910E0,-6.155279875E-1,7.205894947E0,-6.241670132E0,9.553127379E0
2.177377143E0,-1.160930991E0,7.836532116E0,-7.006459236E0,1.057589086E1
2.182299544E0,-8.795869946E-1,8.345399857E0,-7.028662205E0,1.094629912E1
2.187221700E0,-3.927350044E-1,8.530047417E0,-6.256937027E0,1.058608571E1
2.192143929E0,-2.324369997E-1,8.548002243E0,-4.885974884E0,9.848610048E0
2.197066314E0,-2.384019941E-1,8.282157898E0,-3.434634924E0,8.969263739E0
2.201988470E0,-7.558999956E-2,8.149215698E0,-2.433970928E0,8.505271590E0
2.206910929E0,3.391219974E-1,8.201099396E0,-1.499704957E0,8.343988853E0
2.211833166E0,7.357469797E-1,8.299906731E0,-4.230340123E-1,8.343184831E0
2.216755320E0,1.141257048E0,8.465840340E0,6.287789941E-1,8.565528783E0
2.221677702E0,1.668092966E0,8.590328217E0,1.330772042E0,8.851396909E0
2.226599873E0,2.224328041E0,8.739715576E0,1.599562049E0,9.159086326E0
2.231522102E0,2.569773912E0,9.107703209E0,1.531887054E0,9.586483904E0
2.236444282E0,2.915359974E0,9.511211395E0,9.912419915E-1,9.997250956E0
2.241366664E0,3.391876936E0,9.837217331E0,-1.320710033E-1,1.040639787E1
2.246288916E0,3.432666063E0,1.010430717E1,-1.095857024E0,1.072758698E1
2.251211070E0,3.295670033E0,1.042696953E1,-2.036144018E0,1.112335457E1
2.256133453E0,3.038532972E0,1.075209427E1,-3.002552032E0,1.156959517E1
2.261055691E0,2.766865969E0,1.104336071E1,-3.891596079E0,1.203145391E1
2.265978073E0,2.361524105E0,1.130725288E1,-4.650761127E0,1.245232279E1
2.270900306E0,2.145292044E0,1.155981636E1,-5.036840916E0,1.279067624E1
2.275822684E0,2.158902884E0,1.173399544E1,-5.200246811E0,1.301499433E1
2.280744916E0,2.265794039E0,1.185470486E1,-5.303666115E0,1.318319855E1
2.285667070E0,2.384476900E0,1.192165947E1,-5.253973007E0,1.324446779E1
2.290589429E0,2.550157070E0,1.197910976E1,-5.035017967E0,1.324212135E1
2.295511585E0,2.853118896E0,1.194036865E1,-4.859417915E0,1.320328116E1
2.300433837E0,3.077953100E0,1.178623486E1,-4.650771141E0,1.303912572E1
2.305356222E0,3.225671053E0,1.160777473E1,-4.475028992E0,1.285189762E1
2.310278684E0,3.303076029E0,1.143339729E1,-4.323880196E0,1.266210191E1
2.315200834E0,3.299619913E0,1.136312866E1,-4.229022980E0,1.256554097E1
2.320122988E0,3.322945118E0,1.130002880E1,-4.229833126E0,1.251495519E1
2.325045142E0,3.228087902E0,1.120174408E1,-4.338725090E0,1.243881656E1
2.329967376E0,3.084899902E0,1.107703400E1,-4.341880798E0,1.229102186E1
2.334889838E0,2.898607016E0,1.091212559E1,-4.083862782E0,1.200642922E1
2.339811993E0,2.663789034E0,1.085340977E1,-4.032094002E0,1.188065897E1
2.344734356E0,2.408190012E0,1.072154331E1,-4.199674129E0,1.176384856E1
2.349656589E0,2.180480957E0,1.063635445E1,-4.466216087E0,1.174025635E1
2.354578743E0,1.938534021E0,1.056656456E1,-4.668827057E0,1.171358813E1
2.359501163E0,1.766890049E0,1.047145462E1,-4.855144024E0,1.167671554E1
2.364423319E0,1.556396961E0,1.037248039E1,-5.034670830E0,1.163437284E1
2.369345468E0,1.331684947E0,1.036768723E1,-5.162017822E0,1.165799087E1
2.374267622E0,1.156049013E0,1.035185719E1,-5.236744881E0,1.165851163E1
2.379190081E0,1.016067982E0,1.039508724E1,-5.595127106E0,1.184886831E1
2.384112252E0,8.405839801E-1,1.049781704E1,-5.831767082E0,1.203828274E1
2.389034635E0,6.803159714E-1,1.054099464E1,-6.074892044E0,1.218522512E1
2.393956868E0,5.393009782E-1,1.059721565E1,-6.318758011E0,1.234983919E1
2.398879235E0,4.237140119E-1,1.054983902E1,-6.426121235E0,1.236016468E1
2.403801468E0,3.299829960E-1,1.046412468E1,-6.595044136E0,1.237341510E1
2.408723851E0,2.634649873E-1,1.030653477E1,-6.632141113E0,1.225884858E1
2.413645997E0,2.418040037E-1,1.013643837E1,-6.409339905E0,1.199522780E1
2.418568151E0,2.119580060E-1,9.939393997E0,-6.108199120E0,1.166818648E1
2.423490347E0,2.455819994E-1,9.726183891E0,-5.889601231E0,1.137305439E1
2.428412732E0,2.544009984E-1,9.536325455E0,-5.683402061E0,1.110438121E1
2.433334869E0,2.267130017E-1,9.424686432E0,-5.650900841E0,1.099130536E1
2.438257097E0,6.713400036E-2,9.393035889E0,-5.706227779E0,1.099066266E1
2.443179482E0,7.137499750E-2,9.245076180E0,-5.488822937E0,1.075191635E1
2.448101705E0,1.472460032E-1,9.138590813E0,-5.458390236E0,1.064563513E1
2.453023859E0,2.139720023E-1,9.026435852E0,-5.581803799E0,1.061503000E1
2.457946241E0,2.808699906E-1,8.925780296E0,-5.656636238E0,1.057099690E1
2.462868708E0,2.417780012E-1,8.847060204E0,-5.586739063E0,1.046616378E1
2.467790864E0,2.109829932E-1,8.793727875E0,-5.369674206E0,1.030570545E1
2.472713094E0,2.626979947E-1,8.673272133E0,-5.171451092E0,1.010141407E1
2.477635328E0,2.930400074E-1,8.474007607E0,-5.140747070E0,9.915742927E0
2.482557253E0,3.491939902E-1,8.238661766E0,-5.030376911E0,9.659305151E0
2.487479713E0,5.589510202E-1,7.937076092E0,-4.897076130E0,9.342963007E0
2.492401888E0,6.774529815E-1,7.831110001E0,-4.833018780E0,9.227312551E0
2.497324270E0,5.204210281E-1,7.577117920E0,-4.627007961E0,8.893410858E0
2.502246551E0,4.139310122E-1,7.414670944E0,-4.541825771E0,8.704990835E0
2.507168705E0,7.281400263E-2,6.780274868E0,-4.085590839E0,7.916405856E0
2.512091087E0,-5.584509969E-1,5.317936897E0,-1.701959968E0,5.611504976E0
2.517013300E0,-2.471012115E0,4.529726982E0,2.257013083E0,5.631912238E0
2.521935454E0,-3.591233015E0,2.945465088E0,1.213197517E1,1.299067130E1
2.526857914E0,-3.723850965E0,2.273912907E0,2.313249207E1,2.354038944E1
2.531780323E0,-3.237579107E0,9.156399965E-1,3.405673599E1,3.422253032E1
2.536702556E0,-5.960789919E-1,3.185940087E-1,3.793495941E1,3.794097993E1
2.541624710E0,4.908338070E0,-7.070232868E0,3.661064911E1,3.760877030E1
2.546546859E0,1.102047157E1,-4.739324188E1,4.239454651E1,6.453578653E1
2.551469241E0,1.378835392E1,-7.026476288E1,5.095215225E1,8.788274817E1
2.556391397E0,1.852147865E1,-7.027142334E1,4.727727890E1,8.669636215E1
2.561313626E0,1.783137131E1,-7.017702484E1,2.943638802E1,7.816184208E1
2.566235782E0,1.372611713E1,-7.009199524E1,8.641207695E0,7.194417668E1
2.571158241E0,1.079248714E1,-6.294281387E1,-1.479158401E1,6.555201412E1
2.576080440E0,1.126925182E1,-4.126261139E1,-4.867477417E1,6.479840103E1
2.581002823E0,5.816133022E0,-2.494686508E1,-5.451768494E1,6.023579875E1
2.585925056E0,2.816371918E0,-1.525238132E1,-3.576072311E1,3.897943566E1
2.590847452E0,2.505016088E0,-9.516415596E0,-1.904070473E1,2.143328505E1
2.595769685E0,3.490020990E0,-6.267735004E0,-1.096675038E0,7.257233959E0
2.600692068E0,3.330965042E0,-4.352913857E0,4.384243965E0,7.018887540E0
2.605614277E0,2.166868925E0,-2.739697933E0,3.747612000E0,5.123071481E0
2.610536353E0,4.238939881E-1,-1.241783977E0,1.134163976E0,1.734370630E0
2.615458577E0,-1.539031982E0,1.263490021E-1,-1.129520059E0,1.913216944E0
2.620381039E0,-4.237728119E0,1.797397971E0,-3.127386093E0,5.565026761E0
2.625303423E0,-5.066896915E0,3.264756918E0,-4.794542789E0,7.701929800E0
2.630225589E0,-4.638024807E0,4.179905891E0,-6.031478882E0,8.681107353E0
2.635147743E0,-3.819528103E0,4.912427902E0,-6.673576832E0,9.124547690E0
2.640069972E0,-2.770623922E0,5.373022079E0,-5.915173054E0,8.457836333E0
2.644992386E0,-1.606259942E0,5.552649021E0,-4.854580879E0,7.548439419E0
2.649914541E0,-2.926380038E-1,5.610373020E0,-3.880422115E0,6.827854584E0
2.654837001E0,7.469419837E-1,5.602300167E0,-2.991391897E0,6.394694283E0
2.659759243E0,1.456928015E0,5.610669136E0,-2.063219070E0,6.152976542E0
2.664681397E0,2.040864944E0,5.619874001E0,-1.046823978E0,6.069922071E0
2.669603779E0,2.451255083E0,5.720075130E0,-3.736900166E-2,6.223287509E0
2.674526022E0,2.743685007E0,5.925282001E0,7.188720107E-1,6.569136259E0
2.679448176E0,2.992537975E0,6.315615177E0,1.130627036E0,7.079590108E0
2.684370520E0,3.170304060E0,6.906025887E0,1.080003023E0,7.675312887E0
2.689292752E0,3.702811003E0,7.638868809E0,3.070339859E-1,8.494550952E0
2.694214906E0,3.819230080E0,8.410948753E0,-5.179309845E-1,9.251963567E0
2.699137433E0,3.576838017E0,9.114497185E0,-1.143497944E0,9.857759212E0
2.704059589E0,3.419536114E0,9.699489594E0,-1.738703012E0,1.043055194E1
2.708981797E0,3.432763100E0,1.009211254E1,-2.383506060E0,1.092317258E1
2.713904182E0,3.518800020E0,1.046019554E1,-3.050045013E0,1.144990912E1
2.718826415E0,3.492347956E0,1.078665447E1,-3.605994940E0,1.189754632E1
2.723748783E0,3.333245993E0,1.115012836E1,-3.909884930E0,1.227693331E1
2.728671016E0,3.102180004E0,1.141676426E1,-4.109070778E0,1.252399655E1
2.733593170E0,2.714189053E0,1.159402847E1,-4.396063805E0,1.269305698E1
2.738515319E0,2.520298958E0,1.176765633E1,-4.352440834E0,1.279739753E1
2.743437702E0,2.519089937E0,1.186418343E1,-4.641190052E0,1.298635082E1
2.748359911E0,2.649107933E0,1.191097546E1,-4.470023155E0,1.299500736E1
2.753282065E0,3.029311895E0,1.182789230E1,-3.868299961E0,1.280779105E1
2.758204448E0,3.505639076E0,1.171482658E1,-3.287781000E0,1.266239200E1
2.763126686E0,3.867382050E0,1.154953003E1,-2.922261953E0,1.252549012E1
2.768049068E0,4.304654121E0,1.138970280E1,-2.968552113E0,1.253266446E1
2.772971224E0,4.532083035E0,1.126048756E1,-3.113914967E0,1.253135360E1
2.777893457E0,4.714157104E0,1.111946011E1,-3.358870029E0,1.253585570E1
2.782815918E0,4.767339230E0,1.103828907E1,-3.737055063E0,1.259114488E1
2.787738303E0,4.823867798E0,1.096821976E1,-4.034364223E0,1.264308664E1
2.792660440E0,4.749242783E0,1.090008545E1,-4.244206905E0,1.262459750E1
2.797582671E0,4.688103199E0,1.091199493E1,-4.738379955E0,1.278679747E1
2.802504806E0,4.695825100E0,1.082908058E1,-5.131010056E0,1.287039330E1
2.807426959E0,4.696625233E0,1.077085686E1,-5.589244843E0,1.301189087E1
2.812349337E0,4.609899998E0,1.078254890E1,-6.072152138E0,1.320551288E1
2.817271570E0,4.450623989E0,1.081128216E1,-6.330504894E0,1.329538145E1
2.822193724E0,4.315421104E0,1.090974331E1,-6.593363762E0,1.345800149E1
2.827116111E0,4.076335907E0,1.109021759E1,-6.804008961E0,1.363466093E1
2.832038344E0,3.820934057E0,1.123367691E1,-6.830924988E0,1.369147801E1
2.836960498E0,3.551012039E0,1.150860977E1,-6.834276199E0,1.384792824E1
2.841882895E0,3.377218008E0,1.153807354E1,-6.737226009E0,1.378125382E1
2.846805356E0,3.139030933E0,1.146659660E1,-6.368601799E0,1.348686182E1
2.851727589E0,2.926008940E0,1.123036957E1,-5.936309814E0,1.303543260E1
2.856649729E0,2.754880905E0,1.087515163E1,-5.563590050E0,1.252245288E1
2.861572111E0,2.596913099E0,1.054020691E1,-5.139929771E0,1.201077838E1
2.866494267E0,2.484422922E0,1.024170876E1,-4.731126785E0,1.155199187E1
2.871416467E0,2.389884949E0,9.962545395E0,-4.435814857E0,1.116424266E1
2.876338623E0,2.339653969E0,9.760828018E0,-4.183580875E0,1.087428587E1
2.881261016E0,2.284260988E0,9.541164398E0,-4.083288193E0,1.062661323E1
2.886183248E0,2.209080935E0,9.352352142E0,-4.048154831E0,1.042756380E1
2.891105631E0,2.103317022E0,9.245462418E0,-4.099083900E0,1.032981155E1
2.896027897E0,2.024372101E0,9.088694572E0,-4.136609077E0,1.018891486E1
2.900950051E0,1.990556002E0,8.894530296E0,-4.218457222E0,1.004342390E1
2.905872204E0,1.993152976E0,8.787813187E0,-4.274974823E0,9.973651745E0
2.910794669E0,1.940441012E0,8.676641464E0,-4.229242802E0,9.845603745E0
2.915717054E0,1.875501037E0,8.570141792E0,-4.277259827E0,9.760111992E0
2.920639286E0,1.875146031E0,8.528412819E0,-4.306744099E0,9.736428636E0
2.925561430E0,1.830737948E0,8.481244087E0,-4.362892151E0,9.711741894E0
2.930483813E0,1.822458982E0,8.435913086E0,-4.421901226E0,9.697380924E0
2.935406027E0,1.868677020E0,8.342911720E0,-4.512231827E0,9.667283271E0
2.940328409E0,2.076822996E0,8.030080795E0,-4.637794018E0,9.502869287E0
2.945250642E0,2.158973932E0,7.552984238E0,-4.644906044E0,9.126000849E0
2.950172801E0,1.861099958E0,7.039965153E0,-4.545138836E0,8.583885452E0
2.955094955E0,1.460559964E0,6.747893810E0,-4.529884815E0,8.257551860E0
2.960017337E0,1.299684048E0,6.557423115E0,-4.618817806E0,8.125420263E0
2.964939570E0,1.132931948E0,6.174965858E0,-4.582965851E0,7.772857527E0
2.969861724E0,1.311457992E0,5.291273117E0,-3.531867027E0,6.495504442E0
2.974784107E0,1.679015994E0,3.197503090E0,1.053249985E-1,3.613061593E0
2.979706525E0,1.711349010E0,2.087150097E0,5.683989048E0,6.292268467E0
2.984628681E0,1.426691055E0,-4.574710131E-1,1.743267441E1,1.749693871E1
2.989550896E0,2.323163033E0,-1.586197019E0,2.820459557E1,2.834452890E1
2.994473278E0,4.451692104E0,-2.540208101E0,3.738300705E1,3.773273693E1
2.999395511E0,7.095353127E0,-3.031183958E0,4.018421173E1,4.091824758E1
3.004317665E0,1.065084076E1,-5.377415180E0,3.669388580E1,3.858494860E1
3.009239824E0,1.786194038E1,-3.636698914E1,3.850924683E1,5.589784347E1
3.014162207E0,1.853271675E1,-7.045076752E1,5.307682419E1,9.013279925E1
3.019084439E0,1.735378456E1,-7.144312286E1,5.190721130E1,8.999795680E1
3.024006607E0,1.045420933E1,-7.129964447E1,3.124239349E1,7.854308974E1
3.028928990E0,5.630659103E0,-7.117131042E1,6.313111782E0,7.167227588E1
3.033851223E0,3.478692055E0,-6.797048950E1,-5.497633934E0,6.828113005E1
3.038773620E0,2.303105116E0,-5.027206421E1,-2.105516434E1,5.455185311E1
3.043695853E0,-4.194887161E0,-3.145701981E1,-6.987783813E1,7.674668355E1
3.048618236E0,-6.433847904E0,-1.713259125E1,-6.659046936E1,6.905947213E1
3.053540358E0,-3.150760889E0,-9.177629471E0,-2.346230316E1,2.538967992E1
3.058462511E0,2.018540055E-1,-5.741350174E0,-4.292668819E0,7.171530691E0
3.063384740E0,2.487850040E-1,-4.951711178E0,-5.415769100E0,7.342471826E0
3.068307125E0,-5.726889968E-1,-4.271794796E0,-6.531713963E0,7.825566481E0
3.073229387E0,-1.928326964E0,-2.897880077E0,-8.842244148E0,9.502706741E0
3.078151540E0,-3.257352114E0,-1.284279943E0,-1.055678368E1,1.112229290E1
3.083073923E0,-4.258892059E0,4.532960057E-1,-9.624677658E0,1.053461242E1
3.087996137E0,-5.065580845E0,2.374773979E0,-7.915081024E0,9.692686334E0
3.092918519E0,-4.348147869E0,3.545650959E0,-6.846446991E0,8.851658998E0
3.097840675E0,-3.579802036E0,4.125764847E0,-6.354388237E0,8.379449150E0
3.102763144E0,-2.460191965E0,4.538160801E0,-6.300889015E0,8.145468086E0
3.107685300E0,-1.469460011E0,4.863387108E0,-6.064051151E0,7.911040592E0
3.112607531E0,-8.705589771E-1,5.091748238E0,-5.113933086E0,7.268843420E0
3.117529899E0,-6.157760024E-1,5.288427830E0,-5.489807129E0,7.647524522E0
3.122452055E0,-2.091280073E-1,5.441117764E0,-4.929557800E0,7.345068900E0
3.127374204E0,3.519240022E-1,5.526644230E0,-3.843940020E0,6.741181041E0
3.132296433E0,8.242599964E-1,5.749772072E0,-2.564492941E0,6.349480881E0
3.137218817E0,1.282029033E0,5.985569954E0,-1.506690979E0,6.304027587E0
3.142141069E0,1.684849024E0,6.406249046E0,-8.879539967E-1,6.683352854E0
3.147063223E0,2.031761885E0,7.018346786E0,-7.974299788E-1,7.349907655E0
3.151985606E0,2.843565941E0,7.552795887E0,-1.196848989E0,8.158617559E0
3.156907804E0,3.846354961E0,7.943299770E0,-1.621523976E0,8.973282439E0
3.161830187E0,4.010608196E0,8.254739761E0,-1.996098042E0,9.392023958E0
3.166752406E0,3.809883118E0,8.808509827E0,-2.553563118E0,9.931049256E0
3.171674788E0,3.571440935E0,9.389571190E0,-3.211052895E0,1.054656808E1
3.176597021E0,3.309853077E0,9.842580795E0,-3.849802017E0,1.107485890E1
3.181519213E0,3.122072935E0,1.015811920E1,-4.444452763E0,1.151902277E1
3.186441367E0,2.914695024E0,1.046544647E1,-5.312037945E0,1.209292207E1
3.191363755E0,2.714155912E0,1.066108704E1,-6.112084866E0,1.258503081E1
3.196285988E0,2.564243078E0,1.076080036E1,-6.861601830E0,1.301736328E1
3.201208147E0,2.464987993E0,1.082830811E1,-7.419948101E0,1.335604927E1
3.206130530E0,2.440073967E0,1.096125698E1,-7.502492905E0,1.350520327E1
3.211052763E0,2.560987949E0,1.109303856E1,-7.179677010E0,1.345964062E1
3.215974916E0,2.875128031E0,1.117943954E1,-6.508701801E0,1.325177078E1
3.220897299E0,3.387810946E0,1.111569214E1,-5.884772778E0,1.302560653E1
3.225819537E0,3.727715969E0,1.109038639E1,-5.489245892E0,1.292379035E1
3.230741919E0,3.970005035E0,1.107376480E1,-5.226599216E0,1.287270547E1
3.235664152E0,4.005677223E0,1.099109554E1,-5.207376003E0,1.280493640E1
3.240586511E0,3.978967905E0,1.076531601E1,-5.476348877E0,1.271670600E1
3.245508744E0,4.045105934E0,1.057478714E1,-5.574014187E0,1.261977176E1
3.250430925E0,4.122037888E0,1.046674633E1,-5.660237789E0,1.259294512E1
3.255353308E0,4.075657845E0,1.038628578E1,-5.712552071E0,1.253471860E1
3.260275541E0,4.005043030E0,1.035695553E1,-6.136689186E0,1.268723184E1
3.265197709E0,3.951541901E0,1.022775364E1,-6.245220184E0,1.261841524E1
3.270119863E0,3.735209942E0,1.016139793E1,-6.453908920E0,1.260391771E1
3.275042240E0,3.531893969E0,1.009091091E1,-6.747766972E0,1.264251230E1
3.279964473E0,3.249332905E0,9.980308533E0,-6.975571156E0,1.260251228E1
3.284886856E0,2.967194080E0,9.891847610E0,-7.225621223E0,1.260406648E1
3.289809102E0,2.736188889E0,9.760970116E0,-7.449741840E0,1.258021942E1
3.294731485E0,2.461412907E0,9.757733345E0,-7.580543995E0,1.259906984E1
3.299653718E0,2.199230909E0,9.827482224E0,-7.574053764E0,1.260088544E1
3.304575844E0,1.963840008E0,9.801284790E0,-7.694200993E0,1.261437989E1
3.309498226E0,1.784639001E0,9.794973373E0,-7.614254951E0,1.253408625E1
3.314420459E0,1.630790949E0,9.776399612E0,-7.639171124E0,1.251376858E1
3.319342622E0,1.492200017E0,9.691406250E0,-7.646144867E0,1.243436960E1
3.324264776E0,1.416738987E0,9.520217896E0,-7.612907887E0,1.227184031E1
3.329187235E0,1.315868020E0,9.250189781E0,-7.441624165E0,1.194467621E1
3.334109410E0,1.265722036E0,8.959541321E0,-7.167956829E0,1.154361460E1
3.339031564E0,1.274384975E0,8.681436539E0,-6.953570843E0,1.119569314E1
3.343953928E0,1.195976019E0,8.512160301E0,-6.713976860E0,1.090709480E1
3.348876160E0,1.153069973E0,8.339115143E0,-6.635408878E0,1.071909804E1
3.353798543E0,1.141242027E0,8.163570404E0,-6.611386776E0,1.056677577E1
3.358721039E0,1.104683042E0,8.022693634E0,-6.592402935E0,1.044239983E1
3.363643195E0,1.099256992E0,7.907824993E0,-6.523429871E0,1.031005331E1
3.368565425E0,1.082743049E0,7.743336201E0,-6.478907108E0,1.015420235E1
3.373487588E0,1.013548017E0,7.597047806E0,-6.470650196E0,1.003053981E1
3.378409742E0,9.989020228E-1,7.465110779E0,-6.507762909E0,9.953726050E0
3.383332125E0,9.854580164E-1,7.307281971E0,-6.541450024E0,9.856879106E0
3.388254280E0,9.454470277E-1,7.170141220E0,-6.558419228E0,9.763076255E0
3.393176520E0,8.743450046E-1,7.018575191E0,-6.496088028E0,9.603334659E0
3.398098905E0,7.355660200E-1,6.833723068E0,-6.352153778E0,9.358989580E0
3.403021138E0,6.168950200E-1,6.620549202E0,-6.224953175E0,9.108362818E0
3.407943292E0,5.509459972E-1,6.337959766E0,-6.165750980E0,8.859444714E0
3.412865674E0,8.949369788E-1,5.957832813E0,-6.305434227E0,8.720962379E0
3.417787921E0,1.069720030E0,5.605216980E0,-6.305087090E0,8.503933298E0
3.422710381E0,1.036059022E0,5.425006866E0,-6.183332920E0,8.290821660E0
3.427632766E0,8.685100079E-1,5.107799053E0,-5.882987976E0,7.839226258E0
3.432554902E0,5.144529939E-1,4.233653069E0,-5.005947113E0,6.576320148E0
3.437477133E0,-5.020310283E-1,2.847925901E0,-2.445182085E0,3.787034793E0
3.442399520E0,-3.092890024E0,2.391453028E0,1.157297015E0,4.077297226E0
3.447321676E0,-6.886993885E0,6.828920245E-1,1.021178818E1,1.233603032E1
3.452243905E0,-1.112495613E1,-4.104600102E-2,2.064459610E1,2.345134712E1
3.457166061E0,-1.061554146E1,-6.428099871E-1,2.966209793E1,3.151099774E1
3.462088444E0,-7.481976986E0,-4.253990054E-1,2.960900307E1,3.054265880E1
3.467010656E0,-2.013891935E0,-5.389670849E0,2.587085915E1,2.650293692E1
3.471932810E0,3.272773027E0,-4.019084930E1,2.931159592E1,4.985163053E1
3.476854964E0,5.331793785E0,-7.173063660E1,4.283920670E1,8.371923245E1
3.481777654E0,1.478697681E1,-7.236570740E1,4.375068283E1,8.584621447E1
3.486699810E0,2.100307846E1,-7.222422028E1,2.606459808E1,7.960421203E1
3.491622041E0,1.651126289E1,-7.210530090E1,7.065391064E0,7.430824969E1
3.496544410E0,1.214661026E1,-6.330269241E1,-1.755573034E0,6.448141627E1
3.501466565E0,1.022212601E1,-4.521625137E1,-1.509085846E1,4.875177184E1
3.506388724E0,7.271155834E0,-3.199840736E1,-2.747063065E1,4.279489840E1
3.511310953E0,2.614219904E0,-2.228505325E1,-3.321529007E1,4.008382764E1
3.516233328E0,-6.218900084E-1,-1.443065262E1,-3.070834351E1,3.393571633E1
3.521155561E0,-8.470439911E-1,-9.229530334E0,-2.218762016E1,2.404562751E1
3.526077700E0,-1.402750015E-1,-6.676225185E0,-1.509040546E1,1.650187859E1
3.531000083E0,1.710021973E0,-5.867671013E0,2.087000059E-3,6.111770825E0
3.535922316E0,3.341238976E0,-6.338993073E0,1.042391205E1,1.264929458E1
3.540844722E0,3.380342960E0,-6.545131207E0,5.436896801E0,9.155616193E0
3.545766878E0,2.343621016E0,-6.108359814E0,-2.182140052E-1,6.546161962E0
3.550689338E0,6.070259809E-1,-4.976230145E0,-4.778944969E0,6.926013428E0
3.555611489E0,-1.410951018E0,-3.484302044E0,-7.912076950E0,8.759686363E0
3.560533719E0,-3.980843067E0,-1.406218052E0,-9.732959747E0,1.060919724E1
3.565456102E0,-3.984502077E0,2.530539930E-1,-9.673906326E0,1.046540762E1
3.570378330E0,-3.170452118E0,1.287711024E0,-9.215251923E0,9.830098388E0
3.575300484E0,-2.427582026E0,1.996399999E0,-8.836808205E0,9.379122917E0
3.580222871E0,-1.310323000E0,2.346200943E0,-8.305603027E0,8.729527300E0
3.585145027E0,-2.974030077E-1,2.462325096E0,-7.822322845E0,8.206109195E0
3.590067256E0,6.557750106E-1,2.627425909E0,-7.168523788E0,7.662972079E0
3.594989396E0,1.239457965E0,2.854070902E0,-6.358036995E0,7.078602347E0
3.599911778E0,1.676098943E0,3.162694931E0,-5.819551945E0,6.832212799E0
3.604834240E0,1.982921958E0,3.648236036E0,-5.429581165E0,6.835346173E0
3.609756401E0,2.202692032E0,4.232923031E0,-5.197195053E0,7.055517415E0
3.614678632E0,2.626526117E0,4.630650997E0,-4.914074898E0,7.244977585E0
3.619601014E0,3.386485100E0,5.088016033E0,-5.217774868E0,8.036253048E0
3.624523170E0,4.065958977E0,5.654489994E0,-4.821798801E0,8.470833676E0
3.629445399E0,4.642754078E0,6.144670010E0,-5.012803078E0,9.189141943E0
3.634367565E0,4.963438034E0,6.624431133E0,-5.224152088E0,9.788287388E0
3.639290024E0,5.149980068E0,6.979119778E0,-5.454755783E0,1.024620750E1
3.644212179E0,5.314591885E0,7.328217030E0,-5.785268784E0,1.074322980E1
3.649134333E0,5.436036110E0,7.622154236E0,-6.077061176E0,1.116146927E1
3.654056707E0,5.388463020E0,7.859630108E0,-6.288831234E0,1.141747421E1
3.658978939E0,5.261876106E0,8.079125404E0,-6.521390915E0,1.163993758E1
3.663901322E0,5.053321838E0,8.269125938E0,-6.803290844E0,1.184057734E1
3.668823497E0,4.901148796E0,8.461532593E0,-7.100506783E0,1.208453515E1
3.673745726E0,4.672853947E0,8.656693459E0,-7.486445904E0,1.236207013E1
3.678668110E0,4.585959911E0,8.867130280E0,-7.858560085E0,1.270488073E1
3.683590343E0,4.422699928E0,9.047055244E0,-8.267376900E0,1.302915976E1
3.688512726E0,4.480051041E0,9.202493668E0,-8.505533218E0,1.330792404E1
3.693434959E0,4.814116955E0,9.258050919E0,-8.727024078E0,1.360324146E1
3.698357122E0,4.978880882E0,9.266613007E0,-8.838717461E0,1.373980705E1
3.703279276E0,4.824005127E0,9.212200165E0,-8.824758530E0,1.363862238E1
3.708201654E0,4.753940105E0,9.230996132E0,-8.829009056E0,1.362947677E1
3.713123887E0,4.724926949E0,9.238789558E0,-9.060536385E0,1.377582980E1
3.718046041E0,4.589310169E0,9.207630157E0,-8.950745583E0,1.363664429E1
3.722968442E0,4.415448189E0,9.376846313E0,-9.213914871E0,1.386786417E1
3.727890675E0,4.181869984E0,9.231612206E0,-8.993434906E0,1.354963364E1
3.732813058E0,4.105801105E0,9.149430275E0,-8.890382767E0,1.340181267E1
3.737735222E0,3.922821999E0,9.124412537E0,-8.949861526E0,1.336949729E1
3.742657682E0,3.715985060E0,9.018328667E0,-8.911199570E0,1.321167191E1
3.747579838E0,3.504209042E0,8.951367378E0,-8.954028130E0,1.313701179E1
3.752502045E0,3.153934956E0,8.857151031E0,-8.991521835E0,1.300937720E1
3.757424427E0,2.827054977E0,8.820296288E0,-9.092693329E0,1.297948144E1
3.762346569E0,2.523916006E0,8.712770462E0,-9.266570091E0,1.296733752E1
3.767268798E0,2.223743916E0,8.623516083E0,-9.084639549E0,1.272166429E1
3.772191182E0,1.865571976E0,8.441065788E0,-9.013218880E0,1.248879758E1
3.777113352E0,1.589761019E0,8.290190697E0,-8.738640785E0,1.214983311E1
3.782035581E0,1.403087974E0,7.951381207E0,-8.590847015E0,1.178964679E1
3.786957966E0,1.135828972E0,7.628085136E0,-8.220292091E0,1.127168986E1
3.791880137E0,1.108729005E0,7.391565800E0,-8.003133774E0,1.095055593E1
3.796802365E0,9.379780293E-1,7.099432945E0,-7.595161915E0,1.043878515E1
3.801724750E0,8.543720245E-1,6.814931870E0,-7.522338867E0,1.018620783E1
3.806647003E0,8.132910132E-1,6.536451817E0,-7.363367081E0,9.879565749E0
3.811569385E0,7.561119795E-1,6.342507839E0,-7.279770851E0,9.684739267E0
3.816491618E0,6.557430029E-1,6.142574787E0,-7.299680233E0,9.562769233E0
3.821413738E0,5.762799978E-1,5.966169834E0,-7.222083092E0,9.385401713E0
3.826335892E0,4.927650094E-1,5.784439087E0,-7.190762043E0,9.241732071E0
3.831258246E0,4.667389989E-1,5.585472107E0,-7.153539181E0,9.087819692E0
3.836180478E0,4.145880044E-1,5.379496098E0,-7.126698017E0,8.938718370E0
3.841102623E0,3.631759882E-1,5.243477821E0,-7.089960098E0,8.825728902E0
3.846025006E0,2.951779962E-1,5.094013214E0,-7.052653790E0,8.704942628E0
3.850947239E0,2.464119941E-1,4.961324215E0,-7.015411854E0,8.596014211E0
3.855869630E0,2.232159972E-1,4.798394203E0,-6.963594913E0,8.459672951E0
3.860791786E0,2.046339959E-1,4.663773060E0,-6.912318230E0,8.341030964E0
3.865714015E0,1.668779999E-1,4.526216984E0,-6.763541222E0,8.140023238E0
3.870636452E0,1.044619977E-1,4.378159046E0,-6.615583897E0,7.933797277E0
3.875558608E0,7.767199725E-2,4.152001858E0,-6.458174229E0,7.678096557E0
3.880480991E0,-9.699999937E-4,3.923384905E0,-6.287024021E0,7.410777361E0
3.885403195E0,-8.513700217E-2,3.635509968E0,-6.094798088E0,7.097235009E0
3.890325349E0,-1.746159941E-1,3.323338032E0,-5.865394115E0,6.743731500E0
3.895247731E0,-2.563689947E-1,2.954946041E0,-5.532392979E0,6.277324529E0
3.900169887E0,-3.419390023E-1,2.525369883E0,-4.905662060E0,5.528104157E0
3.905092116E0,-5.912340283E-1,1.851487041E0,-3.556622982E0,4.053039473E0
3.910014272E0,-1.047927022E0,7.759640217E-1,1.430950016E-1,1.311772612E0
3.914936722E0,-2.476754904E0,-1.827865958E0,8.796945572E0,9.319960312E0
3.919859107E0,-4.010683060E0,-2.456307888E0,1.949526596E1,2.005453619E1
3.924781340E0,-5.935008049E0,-3.567754984E0,3.123805809E1,3.199639776E1
3.929703741E0,-6.773194790E0,-3.680648088E0,3.632474518E1,3.713368350E1
3.934625897E0,-4.441078186E0,-3.208774090E0,3.086727333E1,3.134976825E1
3.939548126E0,2.736268044E0,-1.847588348E1,2.489289093E1,3.112075597E1
3.944470287E0,5.664024830E0,-6.229169846E1,3.355926514E1,7.098282292E1
3.949392669E0,7.723266125E0,-7.421593475E1,3.907518768E1,8.422899800E1
3.954314829E0,1.192966747E1,-7.403184509E1,3.249519348E1,8.172495735E1
3.959236983E0,1.244116783E1,-7.384403229E1,1.241744328E1,7.590728989E1
3.964159227E0,9.873995781E0,-7.296926880E1,-5.141501904E0,7.381358292E1
3.969081688E0,7.986435890E0,-5.611329651E1,-4.098900986E1,6.994700946E1
3.974003844E0,1.580505967E0,-3.533723068E1,-7.171298981E1,7.996230849E1
3.978926003E0,5.458059907E-1,-2.257492256E1,-5.737028122E1,6.165447429E1
3.983848463E0,1.520998955E0,-1.718393707E1,-2.962698746E1,3.428351669E1
3.988770619E0,2.293855906E0,-1.288454914E1,-6.722595215E0,1.471280626E1
3.993693015E0,3.248894930E0,-1.163937569E1,1.131648254E1,1.655575917E1
3.998615477E0,1.851459026E0,-1.092742157E1,4.079332829E0,1.181005500E1
4.003537633E0,-3.893679976E-1,-9.422440529E0,-2.688638926E0,9.806261889E0
4.008459844E0,-2.811688900E0,-7.665218830E0,-7.250164986E0,1.091906894E1
4.013382227E0,-5.329771996E0,-6.073789120E0,-9.761684418E0,1.267232680E1
4.018304362E0,-7.556259155E0,-4.241928101E0,-1.059395599E1,1.368659600E1
4.023226516E0,-6.995618820E0,-2.778117895E0,-1.024394417E1,1.271200275E1
4.028148773E0,-5.518466949E0,-1.825577021E0,-9.099411011E0,1.079747608E1
4.033071158E0,-3.935471058E0,-1.107043028E0,-8.020096779E0,9.001968066E0
4.037993415E0,-2.368431091E0,-6.935240030E-1,-7.678651810E0,8.065490375E0
4.042915569E0,-1.344043016E0,-2.964609861E-1,-7.690198898E0,7.812393989E0
4.047837951E0,-6.593670249E-1,1.670109928E-1,-7.434058189E0,7.465110763E0
4.052760199E0,5.031299964E-2,6.012769938E-1,-7.034493923E0,7.060323659E0
4.057682582E0,5.693789721E-1,1.033496976E0,-6.920496941E0,7.020369386E0
4.062604815E0,1.170642972E0,1.449820995E0,-6.366649151E0,6.633747606E0
4.067527221E0,1.879444003E0,1.953091979E0,-5.877610207E0,6.472494093E0
4.072449454E0,2.814814091E0,2.576957941E0,-6.052410126E0,7.155107192E0
4.077371608E0,3.514556885E0,3.257951975E0,-6.049589157E0,7.717764582E0
4.082293767E0,3.924787998E0,3.800045013E0,-6.061085224E0,8.159721627E0
4.087216149E0,3.847546101E0,4.586500168E0,-6.326752186E0,8.710188747E0
4.092138324E0,3.607230902E0,5.394307137E0,-6.847290039E0,9.433771523E0
4.097060553E0,3.603039980E0,6.074137211E0,-7.334020138E0,1.018159572E1
4.101982938E0,3.799170971E0,6.508224010E0,-7.538640022E0,1.065935144E1
4.106905093E0,4.085468769E0,6.850317955E0,-7.758145809E0,1.112684760E1
4.111827247E0,4.452395916E0,7.175168037E0,-8.095624924E0,1.169811988E1
4.116749630E0,4.507883072E0,7.504175186E0,-8.307405472E0,1.206841500E1
4.121671877E0,4.411246777E0,7.894249916E0,-8.422973633E0,1.235818614E1
4.126594259E0,4.182032108E0,8.194894791E0,-8.538134575E0,1.255171045E1
4.131516492E0,3.807136059E0,8.534738541E0,-8.852469444E0,1.287253907E1
4.136438861E0,3.512630939E0,8.806613922E0,-9.217323303E0,1.322323991E1
4.141361093E0,3.467029095E0,8.935571671E0,-9.072874069E0,1.319779435E1
4.146283150E0,3.344696045E0,8.976002693E0,-8.876585007E0,1.305945548E1
4.151205379E0,3.093441010E0,8.864319801E0,-8.568968773E0,1.271112775E1
4.156127750E0,3.062418938E0,8.703937531E0,-8.277625084E0,1.239580636E1
4.161049983E0,3.107208014E0,8.472052574E0,-8.052723885E0,1.209449372E1
4.165972136E0,3.100847960E0,8.124346733E0,-7.991931915E0,1.181064112E1
4.170894524E0,3.181531906E0,7.748592854E0,-8.094730377E0,1.164849760E1
4.175816757E0,3.080611944E0,7.481810093E0,-8.381113052E0,1.164949390E1
4.180738911E0,2.808788061E0,7.379368782E0,-8.555930138E0,1.164252183E1
4.185661370E0,2.675904989E0,7.131634235E0,-8.758314133E0,1.160727103E1
4.190583755E0,2.554286957E0,6.879021168E0,-8.804055214E0,1.146109516E1
4.195505988E0,2.186569929E0,6.913125992E0,-8.800395966E0,1.140260357E1
4.200428113E0,2.104326963E0,6.708099842E0,-8.904811859E0,1.134559252E1
4.205350495E0,1.986593008E0,6.520285130E0,-9.002065659E0,1.129149486E1
4.210272728E0,1.778759003E0,6.371323109E0,-9.158919334E0,1.129794429E1
4.215194872E0,1.537927985E0,6.338264942E0,-9.413310051E0,1.145204048E1
4.220117026E0,1.323658943E0,6.344999790E0,-9.630780220E0,1.160874769E1
4.225039408E0,1.157462955E0,6.354124069E0,-9.817918777E0,1.175185697E1
4.229961656E0,1.029073000E0,6.362102032E0,-9.904562950E0,1.181675508E1
4.234884039E0,9.440299869E-1,6.346323013E0,-9.760714531E0,1.168069161E1
4.239806271E0,9.167850018E-1,6.266306877E0,-9.916634560E0,1.176633918E1
4.244728411E0,8.496959805E-1,6.214808941E0,-1.017548275E1,1.195350504E1
4.249650794E0,7.406579852E-1,6.091904163E0,-1.042029476E1,1.209307296E1
4.254573027E0,6.565489769E-1,5.923874855E0,-1.060165119E1,1.216216913E1
4.259495419E0,5.124930143E-1,5.693383217E0,-1.060569859E1,1.204815770E1
4.264417652E0,6.127129793E-1,5.436117172E0,-1.031747913E1,1.167806331E1
4.269339791E0,6.996089816E-1,5.192560196E0,-9.954650879E0,1.124932035E1
4.274262174E0,7.955279946E-1,4.983961105E0,-9.471301079E0,1.073211429E1
4.279184315E0,8.964189887E-1,4.620046139E0,-9.166282654E0,1.030384060E1
4.284106544E0,9.477859735E-1,4.391719818E0,-8.938762665E0,1.000434801E1
4.289028972E0,9.658039808E-1,4.180202961E0,-8.793306351E0,9.784125444E0
4.293951128E0,8.770369887E-1,4.026894093E0,-8.784659386E0,9.703365933E0
4.298873357E0,8.276280165E-1,3.854226112E0,-8.680753708E0,9.533913782E0
4.303795512E0,7.796069980E-1,3.689552069E0,-8.694654465E0,9.477214665E0
4.308717895E0,7.652059793E-1,3.612629890E0,-8.696483612E0,9.448040121E0
4.313640128E0,6.779580116E-1,3.469472885E0,-8.618597031E0,9.315421834E0
4.318562650E0,6.519680023E-1,3.355576992E0,-8.625534058E0,9.278189317E0
4.323484806E0,5.843889713E-1,3.277209997E0,-8.522695541E0,9.149751643E0
4.328407189E0,5.197240114E-1,3.182269096E0,-8.508764267E0,9.099231781E0
4.333329335E0,5.584509969E-1,3.079540014E0,-8.642763138E0,9.191995913E0
4.338251489E0,5.292909741E-1,2.984698057E0,-8.770274162E0,9.279346976E0
4.343173957E0,4.722419977E-1,2.850615978E0,-8.825025558E0,9.286016372E0
4.348096113E0,2.728840113E-1,2.675862074E0,-8.785565376E0,9.188082635E0
4.353018349E0,1.880510002E-1,2.280306101E0,-8.748323441E0,9.042583818E0
4.357940731E0,4.486359954E-1,1.696295977E0,-8.860417366E0,9.032479737E0
4.362862887E0,1.310440004E-1,1.086182952E0,-8.874538422E0,8.941722325E0
4.367785111E0,-2.666549981E-1,6.858900189E-1,-8.758143425E0,8.789005988E0
4.372707496E0,-1.637292981E0,-4.435209930E-1,-7.423573017E0,7.614911393E0
4.377629651E0,-3.658905029E0,-3.272069931E0,-2.024019957E0,5.309490035E0
4.382552111E0,-8.327692032E0,-7.280522823E0,1.002102947E1,1.492573277E1
4.387474344E0,-1.420887947E1,-7.258358955E0,2.215160942E1,2.729963059E1
4.392396498E0,-1.643680573E1,-6.751969814E0,3.383728027E1,3.821935655E1
4.397318648E0,-1.427328396E1,-5.715485096E0,3.663818359E1,3.973348590E1
4.402241030E0,-9.693790436E0,-4.986446857E0,3.139106178E1,3.323000128E1
4.407163272E0,-2.970441103E0,-1.704243469E1,2.601571274E1,3.124236563E1
4.412085655E0,-1.857123971E0,-6.219270706E1,3.596994019E1,7.186945330E1
4.417007902E0,-5.153369904E-1,-7.649959564E1,4.882978439E1,9.075682646E1
4.421930056E0,1.149100685E1,-7.632008362E1,4.035666275E1,8.709453846E1
4.426852439E0,1.893488693E1,-7.612643433E1,1.892495728E1,8.069645565E1
4.431774667E0,1.511843204E1,-7.595780182E1,3.574776888E0,7.753021137E1
4.436697049E0,1.312470341E1,-6.786097717E1,-1.512482452E1,7.075401317E1
4.441619282E0,1.463799000E1,-4.748055649E1,-4.443170166E1,6.665470807E1
4.446541450E0,7.556879997E0,-3.157646179E1,-5.117448807E1,6.060534303E1
4.451463832E0,3.678613901E0,-2.139622307E1,-3.942489624E1,4.500725503E1
4.456386065E0,1.970170975E0,-1.456015873E1,-2.885836411E1,3.238340585E1
4.461308210E0,1.701290011E0,-1.075921535E1,-2.170146179E1,2.428185633E1
4.466230593E0,1.458068013E0,-8.447991371E0,-1.538855553E1,1.761539559E1
4.471152763E0,9.653369784E-1,-6.690664768E0,-1.032769680E1,1.234334605E1
4.476074991E0,1.610690057E-1,-5.163951874E0,-7.504840851E0,9.111255587E0
4.480997376E0,-1.156401992E0,-3.625730038E0,-6.839352131E0,7.826871753E0
4.485919609E0,-2.469897985E0,-1.813413024E0,-7.451772213E0,8.057156568E0
4.490841763E0,-2.880191088E0,-3.400259912E-1,-8.776371956E0,9.243150063E0
4.495764150E0,-2.848437071E0,5.009409785E-1,-9.949381828E0,1.036121298E1
4.500686383E0,-1.980386972E0,9.903050065E-1,-1.029742241E1,1.053278429E1
4.505608843E0,-9.518960118E-1,1.100096941E0,-9.654706001E0,9.763691273E0
4.510530988E0,-3.437609971E-1,1.120347977E0,-8.255194664E0,8.337960791E0
4.515453371E0,-1.436540037E-1,1.045446992E0,-7.024569988E0,7.103392106E0
4.520375604E0,2.582989931E-1,9.337760210E-1,-5.977734089E0,6.055737846E0
4.525297758E0,6.797729731E-1,8.363739848E-1,-4.982778072E0,5.098008440E0
4.530220140E0,1.203088999E0,8.597779870E-1,-4.160262108E0,4.415248819E0
4.535142286E0,1.697051048E0,1.179584026E0,-3.717856884E0,4.253687876E0
4.540064515E0,2.152249098E0,1.695685983E0,-3.449795961E0,4.405521457E0
4.544986671E0,2.545236111E0,2.303539991E0,-3.186897993E0,4.684105269E0
4.549909135E0,3.017857075E0,2.784712076E0,-3.045075893E0,5.112198144E0
4.554831520E0,3.685198069E0,3.173029900E0,-3.408365011E0,5.938497756E0
4.559753676E0,4.081728935E0,3.598433971E0,-4.147199154E0,6.841673697E0
4.564675897E0,4.023137093E0,3.987237930E0,-4.694703102E0,7.356897145E0
4.569598279E0,3.900437117E0,4.420302868E0,-5.250529766E0,7.894336576E0
4.574520512E0,3.731336117E0,4.923395157E0,-5.827448845E0,8.492458368E0
4.579442686E0,3.366960049E0,5.402159214E0,-6.545919895E0,9.130652300E0
4.584365069E0,2.964371920E0,5.833015919E0,-7.672619820E0,1.008368338E1
4.589287204E0,2.671804905E0,6.228159904E0,-9.220434189E0,1.144311688E1
4.594209433E0,2.622005939E0,6.468332767E0,-1.098965836E1,1.301871095E1
4.599131589E0,2.933945894E0,6.619202137E0,-1.204195499E1,1.405099838E1
4.604053972E0,3.088027954E0,6.687483788E0,-1.252770805E1,1.453278449E1
4.608976209E0,3.044681072E0,6.750051975E0,-1.269501591E1,1.469682664E1
4.613898363E0,3.052401066E0,6.745174885E0,-1.247229004E1,1.450422543E1
4.618820746E0,3.382709980E0,6.602358818E0,-1.196184540E1,1.407549694E1
4.623742979E0,3.855011940E0,6.443332195E0,-1.150801277E1,1.374088806E1
4.628665361E0,4.156690121E0,6.347535133E0,-1.117376900E1,1.350638326E1
4.633587599E0,4.204532146E0,6.261534214E0,-1.134967041E1,1.362717578E1
4.638509982E0,4.148594856E0,6.206555843E0,-1.150606346E1,1.371574537E1
4.643432215E0,4.146503925E0,6.294034958E0,-1.179312611E1,1.399593492E1
4.648354353E0,4.235034943E0,6.231523991E0,-1.176305580E1,1.396914078E1
4.653276507E0,4.185482979E0,6.141485214E0,-1.158490086E1,1.376393971E1
4.658198881E0,4.027533054E0,6.096274853E0,-1.165037918E1,1.375197894E1
4.663121114E0,3.912302971E0,6.067537785E0,-1.167864799E1,1.372996534E1
4.668043476E0,3.660362959E0,5.991240025E0,-1.160433388E1,1.356295612E1
4.672965632E0,3.287904024E0,5.844699860E0,-1.145059776E1,1.326977839E1
4.677887861E0,2.858031988E0,5.754034042E0,-1.131731224E1,1.301379310E1
4.682810246E0,2.375844002E0,5.594226837E0,-1.110088253E1,1.265581296E1
4.687732401E0,1.900794983E0,5.405720234E0,-1.088456821E1,1.230075843E1
4.692654621E0,1.688042045E0,5.247779846E0,-1.080933475E1,1.213385335E1
4.697577083E0,1.465983033E0,5.038348198E0,-1.060708809E1,1.183403467E1
4.702499239E0,1.256872058E0,4.814559937E0,-1.031137657E1,1.144920091E1
4.707421659E0,1.089687943E0,4.512405872E0,-9.977506638E0,1.100453839E1
4.712343892E0,1.021716952E0,4.149590969E0,-9.669273376E0,1.057155894E1
4.717266046E0,1.012940049E0,3.803409100E0,-9.259848595E0,1.006164819E1
4.722188439E0,9.824939966E-1,3.492327929E0,-9.027689934E0,9.729379957E0
4.727110594E0,9.377599955E-1,3.215713024E0,-8.825964928E0,9.440225684E0
4.732032827E0,8.618050218E-1,3.041717052E0,-8.644893646E0,9.204832246E0
4.736954983E0,7.956359982E-1,2.849838018E0,-8.535167694E0,9.033476681E0
4.741877443E0,7.589259744E-1,2.740122080E0,-8.475082397E0,8.939309777E0
4.746799827E0,6.945080161E-1,2.623044014E0,-8.484004021E0,8.907357942E0
4.751721983E0,4.909009933E-1,2.619544983E0,-8.408713341E0,8.820967053E0
4.756644152E0,3.913159966E-1,2.508697987E0,-8.313774109E0,8.692843823E0
4.761566611E0,3.447329998E-1,2.440515995E0,-8.326047897E0,8.683204060E0
4.766488844E0,3.074389994E-1,2.387990952E0,-8.172579765E0,8.519863822E0
4.771411227E0,2.074770033E-1,2.348269939E0,-8.188553810E0,8.521140294E0
4.776333460E0,6.517899781E-2,2.311464071E0,-8.122636795E0,8.445374057E0
4.781255537E0,-2.908799984E-2,2.289120913E0,-8.037184715E0,8.356868960E0
4.786177770E0,-1.049339995E-1,2.219598055E0,-8.047198296E0,8.348354753E0
4.791100155E0,-1.471659988E-1,2.146434069E0,-7.994384766E0,8.278829919E0
4.796022325E0,-2.794469893E-1,2.074965954E0,-7.849943161E0,8.124357326E0
4.800944554E0,-3.652960062E-1,1.998991966E0,-7.779435158E0,8.040461518E0
4.805866938E0,-4.827190042E-1,1.871505022E0,-7.799502850E0,8.035408725E0
4.810789171E0,-6.696379781E-1,1.633139014E0,-7.679498196E0,7.879736709E0
4.815711325E0,-8.077530265E-1,1.233790994E0,-7.521722794E0,7.664921327E0
4.820633708E0,-6.744800210E-1,6.552919745E-1,-7.521897793E0,7.580453633E0
4.825555940E0,-4.976159930E-1,2.243890017E-1,-7.614057064E0,7.633599222E0
4.830478323E0,-8.462200165E-1,-4.441590011E-1,-7.246041775E0,7.308795177E0
4.835400556E0,-1.167083025E0,-1.733023047E0,-5.769463062E0,6.136135241E0
4.840322903E0,-1.681547999E0,-5.069795132E0,1.136199981E-1,5.342596359E0
4.845245136E0,-5.081472874E0,-6.208154202E0,7.355805874E0,1.088441203E1
4.850167290E0,-7.361439228E0,-7.173253059E0,1.813940430E1,2.084908476E1
4.855089454E0,-9.477127075E0,-6.926807880E0,2.868339920E1,3.099248287E1
4.860011836E0,-1.012434769E1,-6.948842049E0,3.575454330E1,3.780444668E1
4.864934069E0,-8.150837898E0,-6.551554203E0,3.497515869E1,3.650507836E1
4.869856466E0,-3.072132111E0,-1.302878475E1,2.874261475E1,3.170686251E1
4.874778699E0,7.487639785E-1,-5.547977066E1,3.251958466E1,6.431243259E1
4.879700853E0,1.518880010E0,-7.738809967E1,4.719770432E1,9.065786375E1
4.884623045E0,7.403090954E0,-7.725817871E1,4.497922134E1,8.970374734E1
4.889545505E0,1.419579124E1,-7.703039551E1,2.211135483E1,8.138866219E1
4.894467890E0,1.161440277E1,-7.681223297E1,2.820184946E0,7.773652249E1
4.899390026E0,1.206952953E1,-6.630204010E1,-3.855171967E1,7.763935313E1
4.904312257E0,1.250615978E1,-4.467766953E1,-8.429534149E1,9.621955510E1
4.909234625E0,5.807870865E0,-3.031278038E1,-5.128820419E1,5.985879975E1
4.914156781E0,5.210672855E0,-2.215858078E1,-2.067280197E1,3.074928544E1
4.919078975E0,4.101191998E0,-1.740133476E1,-1.177796936E1,2.140903523E1
4.924001360E0,2.532228947E0,-1.401474476E1,-1.054346561E1,1.771976076E1
4.928923516E0,1.412534952E0,-1.108695030E1,-1.060151577E1,1.540479986E1
4.933845690E0,2.963089943E-1,-8.772192001E0,-1.060042572E1,1.376256433E1
4.938767919E0,-1.219941974E0,-6.801044941E0,-9.983920097E0,1.214171039E1
4.943690380E0,-3.927289009E0,-5.141064167E0,-9.070215225E0,1.114104770E1
4.948612760E0,-5.557323933E0,-3.962837934E0,-8.147520065E0,1.062873544E1
4.953534993E0,-6.416586876E0,-2.765063047E0,-6.934558868E0,9.844098105E0
4.958457146E0,-7.015769005E0,-1.744492054E0,-6.663801193E0,9.832116435E0
4.963379529E0,-6.910410881E0,-9.767289758E-1,-7.017947197E0,9.897442139E0
4.968301762E0,-6.405776978E0,-3.913420141E-1,-6.915135860E0,9.434311381E0
4.973223892E0,-5.579518795E0,1.544310004E-1,-6.305234909E0,8.420858993E0
4.978146046E0,-4.567059040E0,4.421469867E-1,-5.840291023E0,7.427147600E0
4.983068428E0,-3.445060015E0,6.012110114E-1,-5.438557148E0,6.465894914E0
4.987990632E0,-2.330841064E0,7.448740005E-1,-5.057244778E0,5.618129768E0
4.992913015E0,-1.395831943E0,8.328769803E-1,-4.534791946E0,4.817298919E0
4.997835247E0,-4.278729856E-1,9.055889845E-1,-4.147120953E0,4.266354286E0
5.002757410E0,5.312340260E-1,9.992499948E-1,-4.109991074E0,4.262949304E0
5.007679793E0,1.362383962E0,1.291226983E0,-4.507386208E0,4.882610737E0
5.012601949E0,2.110743046E0,1.707080007E0,-5.203192234E0,5.868779071E0
5.017524413E0,2.625943899E0,2.339867115E0,-5.913050175E0,6.880023390E0
5.022446646E0,2.792207003E0,3.007193089E0,-6.647231102E0,7.811869913E0
5.027369029E0,2.725924969E0,3.535887957E0,-7.406542778E0,8.648123872E0
5.032291179E0,2.677666903E0,4.096784115E0,-8.189565659E0,9.540572614E0
5.037213333E0,2.631712914E0,4.554225922E0,-8.951704979E0,1.038267348E1
5.042135558E0,2.539355993E0,4.983219147E0,-9.373063087E0,1.091490328E1
5.047057943E0,2.285434961E0,5.425551891E0,-9.617259026E0,1.127614728E1
5.051980122E0,2.161919117E0,5.863228798E0,-9.622841835E0,1.147390218E1
5.056902350E0,2.172384977E0,6.178040981E0,-9.656030655E0,1.166732081E1
5.061824735E0,2.171953917E0,6.259250164E0,-9.730653763E0,1.177205246E1
5.066746891E0,2.301120043E0,6.285546780E0,-1.001980495E1,1.204988561E1
5.071669350E0,2.461453915E0,6.281898022E0,-1.010185814E1,1.214777906E1
5.076591506E0,2.379430056E0,6.191137791E0,-9.916783333E0,1.193040092E1
5.081513966E0,2.611242056E0,5.968951225E0,-9.468105316E0,1.149312760E1
5.086436122E0,2.817945957E0,5.787961960E0,-9.124202728E0,1.116657506E1
5.091358352E0,3.085860014E0,5.591859818E0,-9.125456810E0,1.113846445E1
5.096280697E0,3.365667105E0,5.407221794E0,-9.214347839E0,1.120133781E1
5.101202853E0,3.452891111E0,5.174085140E0,-9.373203278E0,1.124946904E1
5.106125021E0,3.370462894E0,4.932168007E0,-9.496062279E0,1.121880119E1
5.111047480E0,3.226102114E0,4.689221859E0,-9.661203384E0,1.121317918E1
5.115969655E0,3.118496895E0,4.508112907E0,-1.009006596E1,1.148292366E1
5.120891809E0,2.937263966E0,4.244523048E0,-1.040336227E1,1.161350258E1
5.125814038E0,2.830544949E0,3.963160992E0,-1.095865154E1,1.199210880E1
5.130736514E0,2.743944883E0,3.847829103E0,-1.143029976E1,1.236878227E1
5.135658670E0,2.592681885E0,3.804526091E0,-1.167695236E1,1.255179806E1
5.140581053E0,2.477148056E0,3.756380081E0,-1.205991077E1,1.287198903E1
5.145503267E0,2.314874887E0,3.772923946E0,-1.255023575E1,1.330796822E1
5.150425649E0,2.191358089E0,3.895090103E0,-1.302076054E1,1.376640774E1
5.155347805E0,2.037146091E0,4.095498085E0,-1.347816277E1,1.423319853E1
5.160270038E0,1.911371946E0,4.337670803E0,-1.372322178E1,1.451879977E1
5.165192423E0,1.711747050E0,4.536047935E0,-1.392539597E1,1.474525217E1
5.170114636E0,1.609511018E0,4.693275928E0,-1.340443802E1,1.429322648E1
5.175036790E0,1.484598994E0,4.403731823E0,-1.312505436E1,1.392350315E1
5.179958944E0,1.328958035E0,4.050943851E0,-1.295882320E1,1.364211766E1
5.184881365E0,1.230566978E0,3.614417076E0,-1.219578648E1,1.277949583E1
5.189803597E0,1.188135028E0,3.158025980E0,-1.120976067E1,1.170655915E1
5.194725751E0,1.174075007E0,2.738409042E0,-1.035833263E1,1.077832970E1
5.199648158E0,1.160346031E0,2.373107910E0,-9.700588226E0,1.005382793E1
5.204570620E0,1.157958031E0,2.061644077E0,-9.312336922E0,9.607854185E0
5.209492775E0,1.138193011E0,1.790400982E0,-9.076074600E0,9.320737586E0
5.214415011E0,1.109238029E0,1.535637021E0,-8.929720879E0,9.128444831E0
5.219337394E0,1.098479986E0,1.303570986E0,-8.849760056E0,9.012447428E0
5.224259627E0,1.064314961E0,1.106466055E0,-8.814705849E0,8.947405918E0
5.229181775E0,9.906989932E-1,9.368100166E-1,-8.819601059E0,8.924374507E0
5.234103929E0,9.877349734E-1,7.774829865E-1,-8.757178307E0,8.846935744E0
5.239026308E0,9.340630174E-1,6.480939984E-1,-8.689237595E0,8.763295586E0
5.243948541E0,9.623540044E-1,4.831340015E-1,-8.556324959E0,8.623818209E0
5.248870923E0,1.106686950E0,2.377530038E-1,-8.399625778E0,8.475552826E0
5.253793088E0,1.248214960E0,-1.304969937E-1,-8.298128128E0,8.392496677E0
5.258715317E0,1.128990054E0,-5.536739826E-1,-8.097778320E0,8.194826853E0
5.263637702E0,8.680790067E-1,-8.186510205E-1,-7.855673790E0,7.945776321E0
5.268559882E0,7.922980189E-1,-9.523929954E-1,-7.680047035E0,7.779325873E0
5.273482342E0,7.077019811E-1,-1.337550044E0,-7.300619125E0,7.455797867E0
5.278404575E0,6.395549774E-1,-1.875591040E0,-6.746247768E0,7.031268112E0
5.283326719E0,5.252609849E-1,-2.540206909E0,-5.475941181E0,6.059247648E0
5.288249101E0,4.486120045E-1,-3.551023006E0,-2.296704054E0,4.252748127E0
5.293171334E0,-4.236150086E-1,-5.912792206E0,5.799109936E0,8.292782247E0
5.298093498E0,-1.903964996E0,-8.144277573E0,1.882114792E1,2.059587213E1
5.303015657E0,-2.612498999E0,-9.041089058E0,3.028250694E1,3.171114424E1
5.307938039E0,-2.779392958E0,-9.488557816E0,3.795765305E1,3.922424224E1
5.312860272E0,-1.046429992E0,-8.632965088E0,3.350677490E1,3.461686101E1
5.317782660E0,3.300988913E0,-1.676836205E1,2.617322922E1,3.125879750E1
5.322704816E0,7.303861141E0,-5.724143219E1,3.142152023E1,6.570570661E1
5.327627044E0,5.889211178E0,-7.866498566E1,3.681580353E1,8.705323754E1
5.332549405E0,6.775522232E0,-7.863338470E1,3.807946014E1,8.763082892E1
5.337471638E0,8.426261902E0,-7.843367767E1,1.612023735E1,8.051525157E1
5.342394020E0,7.158858776E0,-7.826032257E1,-2.595798016E0,7.862992761E1
5.347316252E0,5.988583088E0,-7.164849091E1,-1.954782867E1,7.450830143E1
5.352238406E0,3.305058002E0,-5.221725082E1,-6.706652832E1,8.506164772E1
5.357160785E0,-3.397160053E0,-3.319926071E1,-7.732991028E1,8.422378899E1
5.362082941E0,-2.734040976E0,-2.203107262E1,-3.672239685E1,4.291127557E1
5.367005149E0,4.010959864E-1,-1.675647354E1,-4.430159092E0,1.733685649E1
5.371927534E0,7.548419833E-1,-1.529688168E1,1.112483025E0,1.535584559E1
5.376849801E0,-3.622440100E-1,-1.426573181E1,-4.068574905E0,1.483899008E1
5.381771955E0,-1.472332001E0,-1.265851402E1,-8.552290916E0,1.534755416E1
5.386694108E0,-3.224679947E0,-1.083988094E1,-1.084991932E1,1.567234280E1
5.391616477E0,-5.123362064E0,-9.159560204E0,-1.181735134E1,1.580494146E1
5.396538710E0,-6.682963848E0,-7.256744862E0,-1.139718723E1,1.507375960E1
5.401461169E0,-5.980377197E0,-5.873531818E0,-1.062993717E1,1.353731331E1
5.406383558E0,-4.878636837E0,-4.935241222E0,-9.981045723E0,1.215643768E1
5.411305791E0,-3.762814045E0,-4.187708855E0,-9.290154457E0,1.086290223E1
5.416227945E0,-2.772573948E0,-3.717916012E0,-8.556791306E0,9.732869218E0
5.421150071E0,-1.961910963E0,-3.507311106E0,-8.586511612E0,9.480427600E0
5.426072453E0,-1.492616057E0,-3.216901064E0,-8.905036926E0,9.585198892E0
5.430994584E0,-1.021198034E0,-2.914366007E0,-8.753926277E0,9.282650479E0
5.435916813E0,-3.773489892E-1,-2.810357094E0,-8.500725746E0,8.961185048E0
5.440839197E0,2.067919970E-1,-2.636492014E0,-7.532098770E0,7.982879490E0
5.445761454E0,3.442369998E-1,-2.189513922E0,-6.715312958E0,7.071626294E0
5.450683608E0,3.371340036E-1,-1.553120971E0,-6.061169147E0,6.266068586E0
5.455605991E0,4.078429937E-1,-7.976679802E-1,-5.659442902E0,5.729913095E0
5.460528448E0,9.408130050E-1,7.493000012E-3,-5.734001160E0,5.810675912E0
5.465450604E0,1.648877025E0,6.126700044E-1,-5.888240814E0,6.145367350E0
5.470372835E0,2.021998882E0,1.013339996E0,-6.146545887E0,6.549455227E0
5.475295203E0,2.203939915E0,1.475131989E0,-6.556997776E0,7.073018123E0
5.480217435E0,2.316271067E0,1.906980991E0,-7.155560017E0,7.759106089E0
5.485139589E0,2.242717981E0,2.320616961E0,-7.666959763E0,8.318492593E0
5.490061695E0,2.181632996E0,2.735097885E0,-8.081715584E0,8.806498155E0
5.494984078E0,1.954949975E0,3.250119925E0,-8.531746864E0,9.336798889E0
5.499906539E0,1.722769022E0,3.637511969E0,-9.220845222E0,1.006098470E1
5.504828676E0,1.485826969E0,3.962789059E0,-1.072408676E1,1.152898156E1
5.509750907E0,1.417163014E0,4.266355991E0,-1.165170288E1,1.248888804E1
5.514673061E0,1.422220945E0,4.557926178E0,-1.186362839E1,1.278839638E1
5.519595452E0,1.507419944E0,4.640023232E0,-1.149996281E1,1.249204847E1
5.524517685E0,1.795199037E0,4.569872856E0,-1.116462708E1,1.219653128E1
5.529440068E0,2.054096937E0,4.425836086E0,-1.082596493E1,1.187471498E1
5.534362224E0,2.436933041E0,4.270061016E0,-1.052394199E1,1.161574013E1
5.539284452E0,2.675931931E0,4.002394199E0,-1.036022663E1,1.142427533E1
5.544206837E0,3.003431082E0,3.792691946E0,-1.021598911E1,1.130360757E1
5.549129017E0,3.346064091E0,3.603969097E0,-1.003749943E1,1.117748330E1
5.554051246E0,3.590325117E0,3.369487047E0,-9.980025291E0,1.112855706E1
5.558973383E0,3.848406076E0,3.170015097E0,-1.024435139E1,1.139324187E1
5.563895765E0,3.687545061E0,2.984800100E0,-1.026030254E1,1.130401825E1
5.568817998E0,3.469703913E0,2.939037085E0,-1.049185085E1,1.143484668E1
5.573740162E0,3.244664907E0,2.793703079E0,-1.060099983E1,1.143301468E1
5.578662544E0,3.087080956E0,2.597146988E0,-1.068788528E1,1.142392810E1
5.583584777E0,2.696485043E0,2.497505903E0,-1.079286098E1,1.140150935E1
5.588507270E0,2.422713995E0,2.391920090E0,-1.080556297E1,1.132921074E1
5.593429426E0,2.207518101E0,2.352277040E0,-1.096522808E1,1.142989809E1
5.598351808E0,1.944545984E0,2.333612919E0,-1.091981220E1,1.133443015E1
5.603274041E0,1.774757028E0,2.361358881E0,-1.073155594E1,1.113068152E1
5.608196195E0,1.583819985E0,2.341814041E0,-1.059208870E1,1.096288839E1
5.613118340E0,1.400972962E0,2.332405090E0,-1.030528831E1,1.065841480E1
5.618040722E0,1.281893015E0,2.379430056E0,-9.538592339E0,9.914115235E0
5.622962921E0,1.114894032E0,2.143716097E0,-9.970638275E0,1.025924632E1
5.627885075E0,8.870689869E-1,1.852756977E0,-1.053873539E1,1.073706400E1
5.632807458E0,6.724280119E-1,1.480682969E0,-1.068112755E1,1.080421525E1
5.637729953E0,5.342280269E-1,1.165912986E0,-1.044878674E1,1.052719796E1
5.642652109E0,4.583320022E-1,8.695030212E-1,-1.005734253E1,1.010525816E1
5.647574306E0,4.060510099E-1,6.002910137E-1,-9.653194427E0,9.680361015E0
5.652496535E0,3.680880070E-1,3.621479869E-1,-9.433156967E0,9.447279519E0
5.657418996E0,3.369219899E-1,1.752460003E-1,-9.151396751E0,9.159273448E0
5.662341118E0,2.859230042E-1,-1.830600016E-2,-8.963810921E0,8.968388556E0
5.667263501E0,2.305669934E-1,-1.485410035E-1,-8.836706161E0,8.840961563E0
5.672185714E0,2.094639987E-1,-2.524020076E-1,-8.748377800E0,8.754524320E0
5.677107868E0,1.209169999E-1,-3.440769911E-1,-8.614991188E0,8.622707409E0
5.682030006E0,5.767099932E-2,-4.236809909E-1,-8.501016617E0,8.511763334E0
5.686952389E0,2.822499909E-2,-4.564140141E-1,-8.451308250E0,8.463670690E0
5.691874680E0,-2.855600044E-2,-5.000579953E-1,-8.324797630E0,8.339851859E0
5.696797062E0,-1.405800041E-2,-5.396720171E-1,-8.231433868E0,8.249117955E0
5.701719218E0,-6.926000118E-3,-5.601109862E-1,-8.147041321E0,8.166275440E0
5.706641457E0,2.003899962E-2,-6.239129901E-1,-8.052755356E0,8.076913879E0
5.711563841E0,6.050800160E-2,-6.612200141E-1,-7.962688923E0,7.990324650E0
5.716486074E0,8.659400046E-2,-7.691630125E-1,-7.967991829E0,8.005498363E0
5.721408466E0,-8.068600297E-2,-7.104640007E-1,-7.983589172E0,8.015545234E0
5.726330699E0,-2.414709926E-1,-8.596630096E-1,-7.893705845E0,7.944049389E0
5.731253081E0,-4.638999999E-1,-1.172909021E0,-7.718768120E0,7.821144422E0
5.736175218E0,-5.762529969E-1,-1.723570943E0,-7.507973194E0,7.724792929E0
5.741097372E0,-3.664410114E-1,-2.412255049E0,-7.448356152E0,7.837809821E0
5.746019587E0,-1.230420023E-1,-3.155649900E0,-7.193006039E0,7.855736853E0
5.750941971E0,1.000609994E-1,-4.422770023E0,-5.891218185E0,7.367316919E0
5.755864141E0,4.424040020E-1,-7.617294788E0,-6.852700114E-1,7.660841741E0
5.760786601E0,-4.316070080E-1,-9.271699905E0,9.098988533E0,1.299778043E1
5.765708757E0,-1.063236952E0,-1.156867027E1,2.033647919E1,2.342086656E1
5.770630906E0,5.001170039E-1,-1.161859322E1,2.695158195E1,2.935352782E1
5.775553134E0,3.502429962E0,-1.132407284E1,3.062683868E1,3.284059818E1
5.780475519E0,5.698492050E0,-1.078097725E1,2.931888580E1,3.175372965E1
5.785397967E0,9.343514442E0,-1.574413967E1,2.527819443E1,3.121163741E1
5.790320122E0,1.544888687E1,-5.314252472E1,3.353956604E1,6.471242948E1
5.795242353E0,1.752341270E1,-8.015045929E1,4.707209015E1,9.458830683E1
5.800164707E0,1.838628197E1,-8.050495911E1,4.839230728E1,9.571269095E1
5.805086632E0,1.004192829E1,-8.031951904E1,2.539152145E1,8.483392496E1
5.810009023E0,3.362551928E0,-8.014584351E1,1.868515015E0,8.023811024E1
5.814931485E0,-6.877459884E-1,-7.760460663E1,-7.000720024E0,7.792276975E1
5.819853718E0,-3.487798929E0,-5.905239487E1,-2.636984634E1,6.476664942E1
5.824775906E0,-1.548149681E1,-3.512514877E1,-7.980511475E1,8.855681317E1
5.829698060E0,-1.205714035E1,-2.265956306E1,-5.087048340E1,5.697926389E1
5.834620519E0,-6.079335213E0,-1.891635513E1,-2.260515594E1,3.009617722E1
5.839542894E0,-5.199472904E0,-1.536984062E1,-1.797547340E1,2.421537039E1
5.844465127E0,-4.163924217E0,-1.661006927E1,-1.364162445E1,2.189352836E1
5.849387280E0,-3.832684994E0,-1.458992195E1,-1.121048355E1,1.879442040E1
5.854309654E0,-3.736311913E0,-1.172702789E1,-1.098709869E1,1.649847107E1
5.859231887E0,-4.453722000E0,-9.509654045E0,-1.079093266E1,1.505700459E1
5.864154269E0,-4.524227142E0,-7.958392143E0,-9.467850685E0,1.316984561E1
5.869076194E0,-4.049429893E0,-6.880177021E0,-8.500647545E0,1.166172058E1
5.873998577E0,-3.688508987E0,-5.915468216E0,-7.810485840E0,1.046907598E1
5.878920839E0,-3.241518021E0,-5.172554016E0,-7.381370068E0,9.578485173E0
5.883842993E0,-2.490478992E0,-4.697457790E0,-6.989632130E0,8.782001629E0
5.888765385E0,-2.000638962E0,-4.307481766E0,-6.489374161E0,8.041699597E0
5.893687618E0,-1.679993987E0,-3.978204966E0,-6.446900845E0,7.759576344E0
5.898610001E0,-1.533406019E0,-3.661163092E0,-6.229963779E0,7.387008725E0
5.903532157E0,-1.381505966E0,-3.261318922E0,-5.985243797E0,6.954703672E0
5.908454385E0,-1.130432963E0,-3.087958097E0,-4.917430878E0,5.915614113E0
5.913376847E0,-8.677830100E-1,-2.841062069E0,-4.034971237E0,5.010556248E0
5.918299232E0,-5.287590027E-1,-2.337625027E0,-3.553453922E0,4.286153477E0
5.923221387E0,-3.860430121E-1,-1.506608963E0,-3.702181101E0,4.015600164E0
5.928143618E0,-3.370900080E-2,-7.546390295E-1,-4.455249786E0,4.518834697E0
5.933065758E0,2.743700147E-1,-2.297970057E-1,-5.206124783E0,5.218411714E0
5.937987912E0,1.985179931E-1,2.983340025E-1,-6.243405819E0,6.253681219E0
5.942910299E0,-7.478999905E-3,9.168829918E-1,-7.597233772E0,7.652365082E0
5.947832531E0,-2.220900059E-1,1.525135994E0,-8.656368256E0,8.792501075E0
5.952754685E0,-3.718439937E-1,1.997599006E0,-9.317488670E0,9.536470252E0
5.957677145E0,-5.975509882E-1,2.582866907E0,-9.755161285E0,1.010897820E1
5.962599301E0,-8.294720054E-1,3.098278999E0,-1.011289310E1,1.060933379E1
5.967521688E0,-1.006975055E0,3.556984901E0,-1.038586521E1,1.102417056E1
5.972443921E0,-1.107916951E0,3.847882986E0,-1.057889557E1,1.131135336E1
5.977366304E0,-1.070958018E0,4.001266956E0,-1.098174095E1,1.173693839E1
5.982288536E0,-1.095731974E0,4.149825096E0,-1.116604900E1,1.196253849E1
5.987210919E0,-1.152310014E0,4.301383018E0,-1.109146500E1,1.195200025E1
5.992133075E0,-1.095975995E0,4.347993851E0,-1.056431103E1,1.147653612E1
5.997055238E0,-9.900289774E-1,4.408882141E0,-1.010424042E1,1.106860757E1
6.001977467E0,-5.419539809E-1,4.365238190E0,-9.574874878E0,1.053694678E1
6.006899865E0,4.577650130E-1,4.286517143E0,-8.901988983E0,9.890863758E0
6.011822021E0,1.175397992E0,4.166138172E0,-8.765514374E0,9.776119371E0
6.016744250E0,1.575237989E0,4.010941029E0,-8.741754532E0,9.746142568E0
6.021666406E0,1.840458035E0,3.971173048E0,-8.708692551E0,9.746734176E0
6.026588865E0,1.998999000E0,3.892328978E0,-9.229091644E0,1.021383153E1
6.031511016E0,2.426944971E0,3.712660074E0,-1.003735542E1,1.097371453E1
6.036433399E0,2.257489920E0,3.603913069E0,-1.048707676E1,1.131650251E1
6.041355860E0,2.619151115E0,3.393579960E0,-1.126293278E1,1.205114070E1
6.046278007E0,2.178395033E0,3.226057053E0,-1.164166260E1,1.227522534E1
6.051200238E0,2.081892967E0,3.043622971E0,-1.233411503E1,1.287355090E1
6.056122607E0,2.180003881E0,2.687313080E0,-1.280614758E1,1.326542439E1
6.061044762E0,2.380316973E0,2.273550987E0,-1.340224075E1,1.380054347E1
6.065966991E0,2.292196035E0,2.213217020E0,-1.372951031E1,1.409439412E1
6.070889147E0,2.093343973E0,2.350950003E0,-1.412772179E1,1.447416933E1
6.075811530E0,2.278961897E0,2.366893053E0,-1.448900890E1,1.485689164E1
6.080733762E0,1.951604009E0,2.345592976E0,-1.425544357E1,1.457834819E1
6.085655906E0,1.588395953E0,2.242975950E0,-1.365926361E1,1.393303360E1
6.090578289E0,1.262788057E0,2.038609982E0,-1.279389954E1,1.301669811E1
6.095500522E0,1.126188040E0,1.726434946E0,-1.137931728E1,1.156450340E1
6.100422904E0,8.759989738E-1,1.411136031E0,-1.053623962E1,1.066635010E1
6.105345137E0,6.083480120E-1,1.131726980E0,-9.812332153E0,9.896097996E0
6.110267520E0,4.716080129E-1,9.033790231E-1,-9.368192673E0,9.423456995E0
6.115189748E0,3.407680094E-1,6.425470114E-1,-9.041150093E0,9.070357463E0
6.120111901E0,2.434760034E-1,4.401119947E-1,-8.804947853E0,8.819301890E0
6.125034036E0,1.999250054E-1,2.382539958E-1,-8.676362038E0,8.681934876E0
6.129956419E0,1.299560070E-1,8.683600277E-2,-8.528486252E0,8.529918335E0
6.134878657E0,9.965900332E-2,-3.607799858E-2,-8.315817833E0,8.316493238E0
6.139801039E0,7.980000228E-2,-2.026239932E-1,-8.129325867E0,8.132242223E0
6.144723204E0,1.586560011E-1,-3.916159868E-1,-7.952236176E0,7.963453711E0
6.149645433E0,2.288140059E-1,-5.438659787E-1,-7.825204849E0,7.847418492E0
6.154567818E0,2.999140024E-1,-6.240130067E-1,-7.678751945E0,7.709900913E0
6.159490055E0,4.129190147E-1,-6.613600254E-1,-7.570273876E0,7.610318374E0
6.164412438E0,5.102310181E-1,-6.322330236E-1,-7.509306908E0,7.553128128E0
6.169334671E0,6.296070218E-1,-6.420519948E-1,-7.426370144E0,7.480615568E0
6.174256825E0,7.392460108E-1,-6.335440278E-1,-7.307026863E0,7.371601202E0
6.179179207E0,8.261209726E-1,-6.738910079E-1,-7.148793221E0,7.227852341E0
6.184101440E0,8.937820196E-1,-8.588640094E-1,-6.920456886E0,7.030591526E0
6.189023585E0,7.689430118E-1,-1.353389025E0,-6.538195133E0,6.720932287E0
6.193945739E0,7.046650052E-1,-2.045056105E0,-5.846288204E0,6.233609950E0
6.198868121E0,5.210409760E-1,-2.637295961E0,-4.945304871E0,5.628752433E0
6.203790354E0,5.605900288E-1,-3.149727106E0,-4.038776875E0,5.152354866E0
6.208712722E0,8.000689745E-1,-3.748022079E0,-2.427484035E0,4.536569036E0
6.213634878E0,1.542299032E0,-4.954409122E0,1.399392962E0,5.374305231E0
6.218557106E0,2.788144112E0,-7.165521145E0,1.001044178E1,1.262249522E1
6.223479491E0,4.984124184E0,-1.001323891E1,2.274640274E1,2.534768796E1
6.228401724E0,8.050847054E0,-1.126649094E1,3.108066940E1,3.402584263E1
6.233324106E0,1.092006874E1,-1.168256283E1,3.347808838E1,3.710138241E1
6.238246344E0,1.386653233E1,-1.227751732E1,2.928403091E1,3.464928018E1
6.243168498E0,1.955537605E1,-2.930653572E1,2.265102005E1,4.188501496E1
6.248090881E0,2.549182892E1,-6.912576294E1,3.512873840E1,8.162250122E1
6.253013066E0,2.829071045E1,-7.994817352E1,2.921533203E1,8.969732645E1
6.257935294E0,1.945133209E1,-7.973497009E1,2.366296196E1,8.541636579E1
6.262857655E0,8.253442764E0,-7.951839447E1,2.389405012E0,7.998127051E1
6.267779888E0,3.461601019E0,-7.871947479E1,-1.352379322E1,7.994767899E1
6.272702046E0,-7.925090790E0,-6.221361923E1,-6.189015961E1,8.811204990E1
6.277624428E0,-1.715966225E1,-4.072134399E1,-8.435139465E1,9.522520488E1
6.282546584E0,-1.116609383E1,-2.805572891E1,-4.869719696E1,5.729941158E1
6.287468813E0,-7.036623955E0,-2.095873260E1,-2.100045586E1,3.049264986E1
6.292391197E0,-2.213248968E0,-1.887771797E1,1.377258873E1,2.347234345E1
6.297313430E0,-2.090755939E0,-1.840890884E1,6.793672085E0,1.973355431E1
6.302235833E0,-4.015793800E0,-1.692861557E1,-3.459121943E0,1.773894443E1
6.307158066E0,-6.960649014E0,-1.521639824E1,-1.076671219E1,1.989752501E1
6.312080448E0,-9.707972527E0,-1.351099586E1,-1.352126503E1,2.143866479E1
6.317002604E0,-1.204188061E1,-1.185004616E1,-1.236271667E1,2.093483332E1
6.321924758E0,-1.230545712E1,-9.654864311E0,-1.057440567E1,1.888011480E1
6.326847218E0,-1.174827576E1,-7.581247807E0,-8.605461121E0,1.641801640E1
6.331769469E0,-1.090804768E1,-6.544571877E0,-7.150196075E0,1.459254019E1
6.336691623E0,-9.507754326E0,-5.966031075E0,-6.266636848E0,1.285541351E1
6.341613767E0,-7.750127792E0,-5.625009060E0,-5.891054153E0,1.124320803E1
6.346536227E0,-5.840837955E0,-5.443913937E0,-5.919881821E0,9.939647264E0
6.351458382E0,-3.893786907E0,-5.325949192E0,-6.384450912E0,9.180878211E0
6.356380784E0,-2.247616053E0,-5.060894966E0,-7.795794964E0,9.562366595E0
6.361303017E0,-9.350939989E-1,-4.804522991E0,-9.080966949E0,1.031609435E1
6.366225400E0,-4.959999933E-4,-4.713192940E0,-8.624582291E0,9.828408194E0
6.371147526E0,5.057079792E-1,-4.466569901E0,-8.078461647E0,9.244865051E0
6.376069755E0,4.885390103E-1,-3.921468019E0,-7.599367142E0,8.565451695E0
6.380991887E0,3.100189865E-1,-2.940608025E0,-7.785851955E0,8.328431905E0
6.385914270E0,2.898499928E-2,-2.065176010E0,-8.220170975E0,8.475671238E0
6.390836517E0,-1.731349975E-1,-1.462764978E0,-8.534349442E0,8.660529863E0
6.395758671E0,-1.783609986E-1,-8.961799741E-1,-8.877793312E0,8.924694128E0
6.400681054E0,-3.215600178E-2,-4.322859943E-1,-9.148892403E0,9.159155932E0
6.405603292E0,8.777000010E-2,-2.250799909E-2,-9.258397102E0,9.258840483E0
6.410525674E0,8.489999920E-2,4.749130011E-1,-9.210823059E0,9.223449018E0
6.415447830E0,-2.195700072E-2,9.718639851E-1,-9.123596191E0,9.175238917E0
6.420370073E0,-1.336819977E-1,1.463981032E0,-9.066383362E0,9.184792790E0
6.425292458E0,-1.770440042E-1,1.903368950E0,-9.149589539E0,9.347146445E0
6.430214919E0,-2.027409971E-1,2.311014891E0,-9.330450058E0,9.614530255E0
6.435137070E0,-3.399739861E-1,2.640311003E0,-9.501614571E0,9.867497350E0
6.440059224E0,-6.274690032E-1,2.978221893E0,-1.004411983E1,1.049513536E1
6.444981448E0,-8.657760024E-1,3.258238077E0,-1.059884739E1,1.112210634E1
6.449903832E0,-8.380669951E-1,3.395472050E0,-1.069002438E1,1.124758676E1
6.454826065E0,-1.103994966E0,3.558304071E0,-1.043526936E1,1.108039617E1
6.459748219E0,-1.499348998E0,3.765682936E0,-9.999300003E0,1.078955124E1
6.464670373E0,-1.948976994E0,4.018868923E0,-9.958331108E0,1.091412741E1
6.469592832E0,-1.796044946E0,4.015616894E0,-9.564304352E0,1.052743436E1
6.474515241E0,-1.449555993E0,3.931787014E0,-9.199447632E0,1.010890689E1
6.479437474E0,-8.279770017E-1,3.727528095E0,-8.855745316E0,9.643870422E0
6.484359871E0,-5.706059933E-1,3.483974934E0,-8.377715111E0,9.091192607E0
6.489282027E0,-2.147130072E-1,3.212018967E0,-8.526411057E0,9.113882434E0
6.494204256E0,-1.349900011E-2,2.969933033E0,-8.571628571E0,9.071576533E0
6.499126626E0,-8.602199703E-2,2.800750017E0,-8.681162834E0,9.122181132E0
6.504048781E0,8.151999675E-3,2.647205114E0,-8.942455292E0,9.326053185E0
6.508970921E0,5.149490237E-1,2.400423050E0,-9.485180855E0,9.797747658E0
6.513893150E0,6.149060130E-1,2.256337881E0,-9.863935471E0,1.013737604E1
6.518815525E0,4.472680092E-1,2.142744064E0,-9.803342819E0,1.004474645E1
6.523737681E0,5.351160169E-1,1.966513991E0,-9.985881805E0,1.019173007E1
6.528660140E0,4.586760104E-1,1.840059996E0,-1.002385902E1,1.020166429E1
6.533582310E0,5.967119932E-1,1.701038003E0,-1.076983261E1,1.091965613E1
6.538504541E0,5.923609734E-1,1.668810964E0,-1.092148781E1,1.106411847E1
6.543426695E0,6.685630083E-1,1.808815956E0,-1.117138577E1,1.133660670E1
6.548349077E0,6.729999781E-1,2.048115969E0,-1.158021641E1,1.177918164E1
6.553271539E0,8.121929765E-1,2.215434074E0,-1.208634853E1,1.231452908E1
6.558193681E0,8.487039804E-1,2.189743996E0,-1.210820293E1,1.233384999E1
6.563115911E0,5.347930193E-1,2.024209976E0,-1.227309322E1,1.245039143E1
6.568038294E0,3.308660090E-1,1.812311053E0,-1.226914597E1,1.240668716E1
6.572960469E0,3.492160141E-1,1.496536970E0,-1.200945854E1,1.210738077E1
6.577882698E0,4.497109950E-1,1.160827041E0,-1.161086845E1,1.167741520E1
6.582805121E0,4.690150023E-1,7.881619930E-1,-1.109709454E1,1.113493069E1
6.587727277E0,4.306299984E-1,3.949620128E-1,-1.053037930E1,1.054657884E1
6.592649501E0,4.403949976E-1,-2.384600043E-2,-1.013583660E1,1.014542754E1
6.597571886E0,5.872449875E-1,-5.902609825E-1,-9.760312080E0,9.795762176E0
6.602494050E0,4.487720132E-1,-9.868599772E-1,-9.506733894E0,9.568347729E0
6.607416279E0,2.654109895E-1,-1.185971975E0,-9.288821220E0,9.367986560E0
6.612338664E0,1.209790036E-1,-1.370975018E0,-9.123299599E0,9.226527190E0
6.617260897E0,8.899999782E-3,-1.508983970E0,-8.861127853E0,8.988698385E0
6.622183279E0,-7.104499638E-2,-1.635944963E0,-8.590975761E0,8.745640505E0
6.627105512E0,-2.154709995E-1,-1.747612953E0,-8.327441216E0,8.511571887E0
6.632027657E0,-4.095309973E-1,-1.857409954E0,-8.090071678E0,8.310652630E0
6.636949811E0,-4.872460067E-1,-1.993003964E0,-7.823288918E0,8.087850330E0
6.641872188E0,-6.552129984E-1,-2.118118048E0,-7.508285046E0,7.828797638E0
6.646794421E0,-9.022560120E-1,-2.283248901E0,-7.157349110E0,7.566699263E0
6.651716575E0,-1.068179011E0,-2.480544090E0,-6.704892159E0,7.228394306E0
6.656638958E0,-1.082347989E0,-2.668678999E0,-6.192862988E0,6.829705466E0
6.661561190E0,-9.337509871E-1,-2.868614912E0,-5.455264091E0,6.233839004E0
6.666483573E0,-6.317269802E-1,-3.203062057E0,-4.118490219E0,5.255534912E0
6.671405753E0,6.129899994E-2,-3.842926979E0,-2.065531015E0,4.363285884E0
6.676328212E0,1.259003043E0,-4.966270924E0,1.027655005E0,5.225419635E0
6.681250445E0,2.909198046E0,-7.097034931E0,5.779410839E0,9.603797568E0
6.686172599E0,5.813446999E0,-8.705124855E0,1.214352131E1,1.603248186E1
6.691094982E0,8.573717117E0,-9.874395370E0,1.624259186E1,2.085267607E1
6.696017215E0,1.162640953E1,-1.116426086E1,1.682165527E1,2.329768670E1
6.700939368E0,1.672809792E1,-1.936105347E1,1.403732491E1,2.918434755E1
6.705861751E0,2.089615631E1,-5.067533875E1,1.439528656E1,5.667330571E1
6.710783891E0,2.663271141E1,-7.925106049E1,2.005834961E1,8.597888865E1
6.715706120E0,2.310227776E1,-8.014469147E1,2.602127838E1,8.737272879E1
6.720628504E0,1.452427006E1,-8.007225037E1,1.998883057E1,8.379781051E1
6.725550665E0,8.558216095E0,-8.000618744E1,1.083572030E0,8.046991500E1
6.730472894E0,3.918554068E0,-7.389209747E1,-1.336251068E1,7.519277776E1
6.735395279E0,-1.462077022E0,-5.508269119E1,-2.628487396E1,6.105026730E1
6.740317497E0,-4.158308029E0,-3.965874481E1,-3.415851212E1,5.250629977E1
6.745239880E0,-5.707336903E0,-2.824214745E1,-3.373701477E1,4.436641469E1
6.750162113E0,-6.481320858E0,-2.055375481E1,-3.003430557E1,3.696652361E1
6.755084452E0,-7.103497028E0,-1.701742744E1,-1.992377853E1,2.714791811E1
6.760006608E0,-2.637105942E0,-1.922750854E1,1.658893013E1,2.553123607E1
6.764928832E0,-3.017606974E0,-1.975020218E1,9.502350092E-1,2.000198451E1
6.769851217E0,-6.031723976E0,-1.838741112E1,-7.970942020E0,2.092879591E1
6.774773381E0,-8.390282631E0,-1.825661087E1,-1.183962345E1,2.332117850E1
6.779695610E0,-1.045514679E1,-1.696774483E1,-1.342924881E1,2.403246102E1
6.784617766E0,-1.224577332E1,-1.473445988E1,-1.338813782E1,2.337317921E1
6.789540217E0,-1.193275261E1,-1.229662895E1,-1.187926865E1,2.084981276E1
6.794462373E0,-9.452392578E0,-1.060782433E1,-9.374371529E0,1.702211808E1
6.799384755E0,-7.723608017E0,-9.533835411E0,-7.361686230E0,1.430882813E1
6.804306911E0,-6.240192890E0,-8.932843208E0,-6.553335190E0,1.271541966E1
6.809229371E0,-4.805315971E0,-8.469693184E0,-6.258985996E0,1.157590903E1
6.814151526E0,-3.351265907E0,-8.026825905E0,-6.687476158E0,1.097193031E1
6.819073713E0,-1.913965940E0,-7.590590000E0,-8.008709908E0,1.119909624E1
6.823995867E0,-9.420300126E-1,-7.098157883E0,-8.814249992E0,1.135615555E1
6.828918017E0,-6.426420212E-1,-6.784786224E0,-8.221038818E0,1.067856695E1
6.833840476E0,-5.186480284E-1,-6.484804153E0,-7.244757175E0,9.736949585E0
6.838762851E0,-6.426590085E-1,-5.878564835E0,-6.329360008E0,8.662062874E0
6.843685007E0,-1.214102983E0,-4.876924038E0,-6.022414207E0,7.843972655E0
6.848607243E0,-1.577857971E0,-3.694219112E0,-6.635962963E0,7.757118993E0
6.853529625E0,-1.941457033E0,-2.716675043E0,-7.928341866E0,8.602800907E0
6.858451858E0,-2.116641998E0,-1.999186039E0,-8.757714272E0,9.229001974E0
6.863374007E0,-2.119780064E0,-1.378087997E0,-9.057779312E0,9.404039564E0
6.868296390E0,-1.837777019E0,-8.845080137E-1,-9.049846649E0,9.276826137E0
6.873218622E0,-1.460898995E0,-3.946239948E-1,-8.716574669E0,8.846955857E0
6.878140971E0,-1.134317040E0,1.390189976E-1,-8.742686272E0,8.817061000E0
6.883063127E0,-8.173050284E-1,7.598109841E-1,-9.295507431E0,9.362251793E0
6.887985262E0,-9.734069705E-1,1.135753989E0,-9.065738678E0,9.188311925E0
6.892907491E0,-7.488219738E-1,1.592268944E0,-9.306019783E0,9.470905920E0
6.897829952E0,-8.645899892E-1,1.975213051E0,-9.557168007E0,9.797369175E0
6.902752108E0,-1.038012981E0,2.288239956E0,-9.869641304E0,1.018446525E1
6.907674521E0,-1.166532993E0,2.477056026E0,-1.035605431E1,1.071188436E1
6.912596676E0,-1.345098019E0,2.619658947E0,-1.072615337E1,1.112305119E1
6.917518905E0,-1.504058957E0,2.738464117E0,-1.062370396E1,1.107359313E1
6.922441290E0,-1.714789033E0,2.749573946E0,-1.024288273E1,1.074324462E1
6.927363446E0,-1.653257966E0,2.722796917E0,-9.775594711E0,1.028149488E1
6.932285905E0,-1.594496012E0,2.753638029E0,-9.243045807E0,9.775419976E0
6.937208056E0,-1.720746040E0,2.781564951E0,-8.682043076E0,9.277712136E0
6.942130287E0,-1.565356970E0,2.726597071E0,-8.237112045E0,8.816727787E0
6.947052670E0,-9.842780232E-1,2.617209911E0,-8.135575294E0,8.602684251E0
6.951974868E0,-8.270689845E-1,2.495167017E0,-7.883488178E0,8.310191779E0
6.956897097E0,-9.370390177E-1,2.404381037E0,-7.694456100E0,8.115648155E0
6.961819253E0,-8.730589747E-1,2.295418978E0,-7.875685215E0,8.249702895E0
6.966741636E0,-8.723890185E-1,2.141963959E0,-8.156469345E0,8.478034228E0
6.971663853E0,-1.344616055E0,1.996472001E0,-8.352109909E0,8.692044220E0
6.976586236E0,-1.551357985E0,1.816517949E0,-8.638703346E0,8.962903802E0
6.981508469E0,-1.446913004E0,1.531241059E0,-9.107810020E0,9.348286463E0
6.986430619E0,-1.366461992E0,1.220476985E0,-9.271650314E0,9.450940800E0
6.991353001E0,-1.074936032E0,9.988359809E-1,-9.670090675E0,9.780788029E0
6.996275463E0,-1.036648989E0,9.359099865E-1,-1.008672619E1,1.018295703E1
7.001197609E0,-1.226735950E0,7.974629998E-1,-1.032538414E1,1.042853710E1
7.006119840E0,-1.480780005E0,7.606009841E-1,-1.062571239E1,1.075532367E1
7.011042026E0,-1.100106001E0,7.659389973E-1,-1.086559582E1,1.094797096E1
7.015964409E0,-1.196550012E0,8.309559822E-1,-1.109808540E1,1.119328903E1
7.020886565E0,-1.548642039E0,1.079022050E0,-1.116562557E1,1.132403529E1
7.025808794E0,-1.751513004E0,1.153009057E0,-1.136083603E1,1.155274093E1
7.030731178E0,-1.997984052E0,1.241412997E0,-1.127932835E1,1.152199177E1
7.035653344E0,-1.994555950E0,1.235345006E0,-1.099315166E1,1.124071680E1
7.040575573E0,-1.903159022E0,1.135489941E0,-1.059808922E1,1.082731946E1
7.045497958E0,-1.698433042E0,8.122550249E-1,-9.962314606E0,1.013864613E1
7.050420190E0,-1.462329984E0,4.190210104E-1,-9.368379593E0,9.491076008E0
7.055342573E0,-1.144443035E0,1.374800056E-1,-8.907285690E0,8.981558271E0
7.060264806E0,-7.469519973E-1,-1.047480032E-1,-8.655591965E0,8.688393505E0
7.065187207E0,-3.465189934E-1,-3.872030079E-1,-8.445584297E0,8.461553977E0
7.070109440E0,5.841000006E-2,-6.272370219E-1,-8.352173805E0,8.375896685E0
7.075031594E0,3.690330088E-1,-8.846409917E-1,-8.286106110E0,8.341362569E0
7.079953767E0,3.902589977E-1,-1.170135975E0,-8.257120132E0,8.348745604E0
7.084876226E0,4.516600072E-1,-1.508653045E0,-8.291769028E0,8.439991966E0
7.089798387E0,3.903900087E-1,-1.841521025E0,-8.368629456E0,8.577736473E0
7.094720541E0,1.225970015E-1,-2.067105055E0,-8.406264305E0,8.657553517E0
7.099642938E0,-1.383060068E-1,-2.361903906E0,-8.332617760E0,8.661999616E0
7.104565399E0,-3.982880116E-1,-2.666347980E0,-8.313835144E0,8.740017145E0
7.109487555E0,-7.584710121E-1,-2.720702887E0,-8.461071014E0,8.920046255E0
7.114409777E0,-1.129129052E0,-2.722420931E0,-8.437612534E0,8.937550750E0
7.119331931E0,-1.500803947E0,-2.744364977E0,-8.332985878E0,8.900708132E0
7.124254390E0,-1.734164000E0,-2.831810951E0,-8.212397575E0,8.858326703E0
7.129176565E0,-1.844815016E0,-2.989202023E0,-8.112481117E0,8.840306615E0
7.134098948E0,-1.887595057E0,-3.130703926E0,-8.011422157E0,8.806089209E0
7.139021181E0,-1.809847951E0,-3.728755951E0,-7.262397766E0,8.361913170E0
7.143943310E0,-1.740833044E0,-4.192714214E0,-5.290080070E0,6.970961148E0
7.148865464E0,-1.202183962E0,-5.218944073E0,-2.959760129E-1,5.363788336E0
7.153787842E0,-1.131749988E0,-6.611476898E0,3.818581104E0,7.718422537E0
7.158710075E0,-2.657870054E-1,-7.220095158E0,8.298710823E0,1.100313674E1
7.163632462E0,1.388919950E-1,-7.605750084E0,1.072394562E1,1.314799357E1
7.168554618E0,1.284616947E0,-9.442729950E0,9.110700607E0,1.318409099E1
7.173476847E0,8.414310455E0,-3.485161972E1,9.861791611E0,3.718455259E1
7.178399256E0,1.439019394E1,-7.679528809E1,2.073012543E1,8.083521543E1
7.183321488E0,1.670348740E1,-8.021746063E1,2.943109131E1,8.706340573E1
7.188243871E0,1.185987854E1,-8.010823822E1,3.050401688E1,8.653601329E1
7.193166099E0,6.571568012E0,-7.999281311E1,1.273702431E1,8.126664410E1
7.198088253E0,4.277507782E0,-7.875284576E1,-1.324762940E0,7.888005315E1
7.203010635E0,2.901587009E0,-6.340815735E1,-1.285109138E1,6.476236697E1
7.207932796E0,1.607046008E0,-4.679379272E1,-2.445732117E1,5.282425762E1
7.212855025E0,-9.788860083E-1,-3.299514008E1,-3.221404266E1,4.612355181E1
7.217777405E0,-2.906121969E0,-2.198284149E1,-3.868788147E1,4.459196158E1
7.222699560E0,-3.821403027E0,-1.475063515E1,-3.533953857E1,3.848463778E1
7.227621780E0,-3.301132917E0,-1.067071724E1,-1.671024323E1,2.009959984E1
7.232544165E0,-1.013875961E0,-1.283034801E1,1.139133453E1,1.718744533E1
7.237466398E0,-1.925971985E0,-1.332845497E1,-2.460740089E0,1.368986201E1
7.242388551E0,-3.818881989E0,-1.227021980E1,-1.053189278E1,1.661514126E1
7.247310934E0,-5.439424992E0,-1.146786880E1,-1.490299225E1,1.957545752E1
7.252233396E0,-6.992246151E0,-1.110258865E1,-1.631144524E1,2.093375807E1
7.257155560E0,-8.639841080E0,-1.026570702E1,-1.516264915E1,2.024691393E1
7.262077791E0,-8.914963722E0,-8.991732597E0,-1.220973110E1,1.758992231E1
7.267000174E0,-7.497612000E0,-7.991763115E0,-9.870435715E0,1.474815123E1
7.271922282E0,-6.290139198E0,-7.564858913E0,-8.203530312E0,1.280979512E1
7.276844436E0,-5.685651779E0,-7.058538914E0,-7.359758854E0,1.167542968E1
7.281766630E0,-5.275629044E0,-6.536555767E0,-7.318901062E0,1.114114607E1
7.286689015E0,-4.507130146E0,-6.162710190E0,-6.737284184E0,1.018254473E1
7.291611181E0,-3.759251118E0,-5.935156822E0,-5.764435768E0,9.087726624E0
7.296533410E0,-2.999169111E0,-5.779139042E0,-4.522509098E0,7.927581722E0
7.301455794E0,-2.597162962E0,-5.354339123E0,-3.742690086E0,7.030073398E0
7.306378041E0,-2.479022980E0,-4.675134182E0,-3.734688044E0,6.476907390E0
7.311300195E0,-2.261348009E0,-3.803188086E0,-4.891650200E0,6.595921172E0
7.316222654E0,-2.107916117E0,-2.749991894E0,-6.450681210E0,7.322366683E0
7.321145035E0,-1.983111978E0,-1.809625030E0,-7.110683918E0,7.600611926E0
7.326067268E0,-1.750048041E0,-1.062607050E0,-7.830132008E0,8.093378105E0
7.330989422E0,-1.726408958E0,-5.264779925E-1,-7.973899841E0,8.175618976E0
7.335911561E0,-1.671664000E0,-7.530499995E-2,-8.083026886E0,8.254420332E0
7.340833943E0,-1.644605994E0,2.856729925E-1,-8.252845764E0,8.419964438E0
7.345756191E0,-1.743340969E0,6.960440278E-1,-8.693924904E0,8.894270361E0
7.350678345E0,-1.906929970E0,1.217597961E0,-9.638777733E0,9.900755673E0
7.355600727E0,-2.272283077E0,1.586806059E0,-9.917299271E0,1.029728356E1
7.360522964E0,-2.448287964E0,1.972931027E0,-1.051001167E1,1.097027421E1
7.365445118E0,-2.421880007E0,2.299587011E0,-1.115023041E1,1.163964095E1
7.370367501E0,-2.686914921E0,2.575592995E0,-1.087564754E1,1.149490759E1
7.375289729E0,-2.884392023E0,2.744083881E0,-1.038720894E1,1.112402010E1
7.380212111E0,-2.927068949E0,2.748328924E0,-9.793041229E0,1.058417219E1
7.385134344E0,-3.029326916E0,2.840049028E0,-9.266090393E0,1.015397120E1
7.390056684E0,-2.900418997E0,2.876102924E0,-8.770497322E0,9.675020499E0
7.394978916E0,-2.657980919E0,2.790900946E0,-8.176518440E0,9.039327655E0
7.399901070E0,-2.586304903E0,2.687540054E0,-7.499867916E0,8.376148480E0
7.404823443E0,-2.440376997E0,2.507847071E0,-7.234068871E0,8.035949803E0
7.409745599E0,-2.200553894E0,2.312313080E0,-7.183196068E0,7.860504753E0
7.414667837E0,-1.997908950E0,2.109095097E0,-7.262352943E0,7.821872702E0
7.419590222E0,-1.715139031E0,1.931854010E0,-7.500816822E0,7.933222221E0
7.424512455E0,-1.674510002E0,1.792554975E0,-7.727150917E0,8.107163399E0
7.429434828E0,-1.577280998E0,1.646026015E0,-7.866597176E0,8.190272774E0
7.434356983E0,-1.512668014E0,1.445088983E0,-8.043588638E0,8.311183121E0
7.439279152E0,-1.282224059E0,1.244258046E0,-8.256957054E0,8.448054002E0
7.444201612E0,-1.352288008E0,1.206074953E0,-8.718336105E0,8.904643962E0
7.449123845E0,-1.370103955E0,1.096328020E0,-8.866299629E0,9.038273568E0
7.454045993E0,-1.622352004E0,9.938420057E-1,-8.952149391E0,9.152088651E0
7.458968376E0,-1.843549013E0,9.345549941E-1,-9.079344749E0,9.311636112E0
7.463890508E0,-1.676512003E0,7.701010108E-1,-9.350635529E0,9.530904094E0
7.468812737E0,-1.889289975E0,7.039480209E-1,-9.563571930E0,9.773784706E0
7.473735121E0,-2.219383955E0,6.662960052E-1,-9.612299919E0,9.887665308E0
7.478657354E0,-2.377105951E0,6.356750131E-1,-9.535011292E0,9.847393348E0
7.483579542E0,-2.632731915E0,6.867750287E-1,-9.436517715E0,9.820937016E0
7.488501925E0,-2.678575039E0,6.249279976E-1,-9.621155739E0,1.000659468E1
7.493424157E0,-2.536493063E0,5.432729721E-1,-9.707287788E0,1.004790420E1
7.498346315E0,-2.493720055E0,4.113659859E-1,-9.715246201E0,1.003861895E1
7.503268698E0,-2.523967981E0,2.149170041E-1,-9.755378723E0,1.007888971E1
7.508190931E0,-2.514684916E0,-1.472899970E-2,-9.712244034E0,1.003252418E1
7.513113299E0,-2.510943890E0,-2.731960118E-1,-9.642696381E0,9.968002246E0
7.518035532E0,-2.570940018E0,-4.873949885E-1,-9.494391441E0,9.848388462E0
7.522957915E0,-2.579988003E0,-7.212659717E-1,-9.167059898E0,9.550473804E0
7.527880051E0,-2.577111959E0,-9.744570255E-1,-8.907341003E0,9.323722234E0
7.532802279E0,-2.511148930E0,-1.235584974E0,-8.795236588E0,9.229773876E0
7.537724439E0,-2.509630919E0,-1.520714998E0,-8.744602203E0,9.223821830E0
7.542646822E0,-2.581226110E0,-1.894940019E0,-8.639122963E0,9.213466854E0
7.547569075E0,-2.685815096E0,-2.257356882E0,-8.502001762E0,9.197461432E0
7.552491228E0,-2.748084068E0,-2.653642893E0,-8.398431778E0,9.226453434E0
7.557413611E0,-2.856193066E0,-3.042721987E0,-8.236520767E0,9.233432204E0
7.562335858E0,-2.842363119E0,-3.359366894E0,-8.105601311E0,9.223076853E0
7.567258012E0,-2.751786947E0,-3.631781101E0,-7.905711174E0,9.124825178E0
7.572180471E0,-2.850231886E0,-3.809674978E0,-7.799279213E0,9.135983882E0
7.577102866E0,-2.837441921E0,-4.050226212E0,-7.501678944E0,8.985020645E0
7.582025022E0,-2.814168930E0,-4.309482098E0,-7.321594238E0,8.949688537E0
7.586947253E0,-2.824043989E0,-4.601419926E0,-6.933629036E0,8.787690333E0
7.591869449E0,-2.876754045E0,-4.945940018E0,-6.603302956E0,8.737370681E0
7.596791603E0,-2.911303043E0,-5.313658237E0,-5.781845093E0,8.374985490E0
7.601714063E0,-2.761584044E0,-6.141198158E0,-3.616982937E0,7.643508803E0
7.606636447E0,-2.533972979E0,-7.340458870E0,8.128529787E-1,7.807950143E0
7.611558680E0,-3.047996044E0,-8.656766891E0,5.497795105E0,1.069839446E1
7.616480848E0,-3.157996893E0,-8.742570877E0,8.545934677E0,1.262689548E1
7.621403002E0,-2.790167093E0,-8.563249588E0,8.249688148E0,1.221358385E1
7.626325461E0,-1.270156980E0,-1.008414841E1,6.583305836E0,1.210963515E1
7.631247646E0,5.225439072E0,-2.924807358E1,7.642890930E0,3.067847459E1
7.636170029E0,1.108339214E1,-7.417823792E1,1.708512115E1,7.692303898E1
7.641092490E0,1.258317566E1,-8.213944244E1,2.646664047E1,8.721070675E1
7.646014646E0,1.267756939E1,-8.206983948E1,2.981904221E1,8.823465643E1
7.650936877E0,9.577173233E0,-8.198928833E1,1.607714272E1,8.409780120E1
7.655859031E0,7.035068989E0,-8.156736755E1,2.871566057E0,8.192053184E1
7.660781428E0,4.905222893E0,-6.793888855E1,-6.852232933E0,6.845952735E1
7.665703583E0,3.680738926E0,-4.962115097E1,-1.941463661E1,5.341099678E1
7.670625846E0,1.902678967E0,-3.510684586E1,-2.814698410E1,4.503735702E1
7.675548231E0,7.716869712E-1,-2.473654938E1,-3.267026520E1,4.098583419E1
7.680470387E0,2.510829866E-1,-1.769044113E1,-2.783884430E1,3.298508757E1
7.685392865E0,1.737287045E0,-1.510319138E1,-9.460786819E0,1.790617333E1
7.690315098E0,7.960159779E-1,-1.690066528E1,3.588201046E0,1.729570222E1
7.695237481E0,-1.264822960E0,-1.720598221E1,-8.564188004E0,1.926112450E1
7.700159637E0,-2.648363113E0,-1.736130333E1,-1.567949867E1,2.354305331E1
7.705081790E0,-4.369242191E0,-1.563354111E1,-2.021827507E1,2.592829597E1
7.710004250E0,-5.019626141E0,-1.480832291E1,-2.102540207E1,2.620211072E1
7.714926401E0,-5.416786194E0,-1.410503197E1,-1.714819908E1,2.285507014E1
7.719848632E0,-6.075844765E0,-1.213387108E1,-1.276518726E1,1.863053201E1
7.724770966E0,-6.106126785E0,-1.108813477E1,-9.708420753E0,1.595258444E1
7.729693122E0,-6.074395180E0,-1.011175632E1,-7.358164787E0,1.390282280E1
7.734615296E0,-6.219803810E0,-9.102663040E0,-5.715456009E0,1.241816698E1
7.739537755E0,-6.049129963E0,-8.374161720E0,-5.128931999E0,1.153362481E1
7.744459988E0,-5.855906963E0,-7.885319233E0,-3.412278891E0,1.039776673E1
7.749382142E0,-5.280889988E0,-7.676690102E0,-2.267210960E0,9.589557629E0
7.754304296E0,-4.732934952E0,-7.309950829E0,-1.508391976E0,8.838059783E0
7.759226679E0,-4.388312817E0,-6.767495155E0,-1.042999983E0,8.132904095E0
7.764149140E0,-4.136188030E0,-6.137335777E0,-1.093086004E0,7.481295267E0
7.769071373E0,-4.048190117E0,-5.341563225E0,-1.817307949E0,6.944260154E0
7.773993527E0,-4.014064789E0,-4.352076054E0,-2.837016106E0,6.565206965E0
7.778915909E0,-3.564857006E0,-3.448194981E0,-3.876632929E0,6.294961236E0
7.783838065E0,-2.783597946E0,-2.964145899E0,-5.157642841E0,6.567789439E0
7.788760209E0,-1.969689012E0,-2.809315920E0,-6.010062218E0,6.920460866E0
7.793682438E0,-1.546805978E0,-2.552542925E0,-6.717003822E0,7.350253361E0
7.798604795E0,-1.399763942E0,-2.122311115E0,-7.353179932E0,7.780282686E0
7.803526950E0,-1.486201048E0,-1.605366945E0,-7.878913879E0,8.176997035E0
7.808449410E0,-1.581369996E0,-9.989389777E-1,-9.216943741E0,9.404821214E0
7.813371566E0,-1.778640985E0,-4.606699944E-1,-1.037245846E1,1.053392971E1
7.818293797E0,-1.992580056E0,-7.766500115E-2,-1.093446255E1,1.111480447E1
7.823216174E0,-1.651792049E0,2.667430043E-1,-1.118977165E1,1.131417511E1
7.828138407E0,-1.848436952E0,5.246139765E-1,-1.090446568E1,1.107245730E1
7.833060790E0,-1.952852011E0,8.150720000E-1,-1.039333630E1,1.060657403E1
7.837982978E0,-2.058824062E0,1.004219055E0,-1.014124775E1,1.039673595E1
7.842905132E0,-1.924517035E0,1.039404988E0,-9.918823242E0,1.015712474E1
7.847827267E0,-2.507616997E0,1.225149035E0,-9.729001999E0,1.012139383E1
7.852749650E0,-2.652960062E0,1.288354039E0,-9.403709412E0,9.855343927E0
7.857671874E0,-2.343497992E0,1.306578994E0,-8.626233101E0,9.033882278E0
7.862594027E0,-1.761764050E0,1.140290022E0,-8.026805878E0,8.296606927E0
7.867516410E0,-1.422721982E0,9.209010005E-1,-7.822276115E0,8.003761623E0
7.872438614E0,-1.093870044E0,6.530519724E-1,-7.848472118E0,7.951197592E0
7.877360996E0,-6.398649812E-1,2.884539962E-1,-8.228426933E0,8.258307496E0
7.882283152E0,-5.941309929E-1,1.716690063E-1,-8.557005882E0,8.579324656E0
7.887205366E0,-8.414109945E-1,9.286300093E-2,-8.765339851E0,8.806121661E0
7.892127828E0,-5.712530017E-1,-2.503999975E-3,-9.294626236E0,9.312164793E0
7.897049983E0,-6.937360168E-1,9.507999755E-3,-9.872472763E0,9.896821637E0
7.901972362E0,-1.021417975E0,1.068279967E-1,-1.032962132E1,1.038054832E1
7.906894595E0,-1.132776976E0,1.048569977E-1,-1.064992332E1,1.071051098E1
7.911816749E0,-1.089948058E0,1.518599987E-1,-1.087708092E1,1.093260891E1
7.916738903E0,-1.261055946E0,2.408210039E-1,-1.113643456E1,1.121019319E1
7.921661285E0,-1.518965006E0,4.105710089E-1,-1.150068760E1,1.160782661E1
7.926583518E0,-1.809041023E0,6.145579815E-1,-1.213123322E1,1.228076261E1
7.931505963E0,-2.167707920E0,8.230550289E-1,-1.226943779E1,1.248661207E1
7.936428118E0,-2.466276884E0,9.043610096E-1,-1.216671944E1,1.244706601E1
7.941350342E0,-2.752724886E0,8.600500226E-1,-1.178952980E1,1.213714107E1
7.946272727E0,-2.933013916E0,5.384610295E-1,-1.136347294E1,1.174823511E1
7.951194883E0,-3.044668913E0,2.083870023E-1,-1.038619232E1,1.082526789E1
7.956117342E0,-3.150080919E0,-8.247900009E-2,-9.166259766E0,9.692787560E0
7.961039575E0,-3.163424969E0,-3.522920012E-1,-8.024460793E0,8.632690090E0
7.965961958E0,-3.120035887E0,-6.371340156E-1,-7.294493198E0,7.959283555E0
7.970884090E0,-3.090059042E0,-8.537719846E-1,-6.818671227E0,7.534697657E0
7.975806243E0,-3.201131105E0,-1.084545970E0,-6.621113777E0,7.433883774E0
7.980728486E0,-3.255770922E0,-1.282781005E0,-6.495814800E0,7.378426751E0
7.985650871E0,-3.152458906E0,-1.547670007E0,-6.435505867E0,7.331371998E0
7.990573124E0,-2.942332983E0,-1.846760035E0,-6.411538124E0,7.292164776E0
7.995495277E0,-2.684164047E0,-2.217109919E0,-6.429681778E0,7.311711208E0
8.000417737E0,-2.527940989E0,-2.585153103E0,-6.444405079E0,7.389442403E0
8.005339925E0,-2.439557076E0,-2.915179968E0,-6.418207169E0,7.459430020E0
8.010262308E0,-2.429828882E0,-3.239206076E0,-6.435501099E0,7.603433355E0
8.015184478E0,-2.394355059E0,-3.497751951E0,-6.494640827E0,7.755486080E0
8.020106938E0,-2.418193102E0,-3.693326950E0,-6.661788940E0,7.991730334E0
8.025029094E0,-2.433768034E0,-3.846833944E0,-6.820512772E0,8.200045897E0
8.029951529E0,-2.387868881E0,-3.942570925E0,-6.901000023E0,8.298770066E0
8.034873685E0,-2.406441927E0,-3.938359976E0,-7.053091049E0,8.428981872E0
8.039795925E0,-2.402970076E0,-4.052885056E0,-7.288853168E0,8.679142986E0
8.044718079E0,-2.336606026E0,-4.416865826E0,-7.242503166E0,8.798993326E0
8.049640461E0,-2.259185076E0,-4.814576149E0,-6.544089794E0,8.432625447E0
8.054562694E0,-1.745581031E0,-5.427653790E0,-4.155587196E0,7.055167166E0
8.059484848E0,-1.623844981E0,-6.357960224E0,-6.070169806E-1,6.590068311E0
8.064407241E0,-1.302199960E0,-6.649913788E0,2.364558935E0,7.176922535E0
8.069329397E0,-9.721350074E-1,-6.962059975E0,4.485048771E0,8.338524332E0
8.074251624E0,1.143470034E-1,-8.016272545E0,3.228441000E0,8.642715548E0
8.079174009E0,5.267687798E0,-2.362412643E1,1.991758943E0,2.428610690E1
8.084096242E0,1.062156487E1,-6.975470734E1,1.207701302E1,7.158485230E1
8.089018624E0,1.444498253E1,-8.114268494E1,1.946966934E1,8.468683996E1
8.093940857E0,1.943524361E1,-8.112892151E1,2.611479950E1,8.741632200E1
8.098863011E0,1.672718811E1,-8.110189056E1,1.408902931E1,8.399890608E1
8.103785394E0,1.183216000E1,-7.975897980E1,-1.846486282E1,8.271907898E1
8.108707550E0,5.938459873E0,-6.109139633E1,-3.642173767E1,7.137203224E1
8.113629769E0,2.212901115E0,-4.224116898E1,-3.417101669E1,5.437712451E1
8.118552154E0,5.845990181E-1,-3.033554077E1,-2.686799049E1,4.052746850E1
8.123474310E0,3.148089945E-1,-2.301076889E1,-2.011451721E1,3.056449562E1
8.128396525E0,-5.685999990E-1,-1.812305260E1,-1.521958542E1,2.367285622E1
8.133318909E0,-1.029374003E0,-1.536092377E1,-6.607631207E0,1.675345875E1
8.138241065E0,1.675829053E0,-1.610081291E1,1.840981674E1,2.451460650E1
8.143163299E0,1.210142970E0,-1.713185120E1,6.538191795E0,1.837696176E1
8.148085760E0,-6.666610241E-1,-1.693797684E1,5.894179940E-1,1.696133573E1
8.153007916E0,-3.866940975E0,-1.584493065E1,-4.350298882E0,1.688017062E1
8.157930294E0,-7.019311905E0,-1.458282661E1,-7.443401814E0,1.781386545E1
8.162852527E0,-9.717233658E0,-1.273469543E1,-1.096599960E1,1.941263107E1
