"Time (s)","Linear Acceleration x (m/s^2)","Linear Acceleration y (m/s^2)","Linear Acceleration z (m/s^2)","Absolute acceleration (m/s^2)"
1.316473700E-2,8.512959480E-1,-3.039671898E0,6.848530769E-1,3.230067147E0
2.997284100E-2,7.325086594E-1,-9.632997513E-1,-1.252818584E0,1.741858132E0
4.677968200E-2,-7.101092339E-1,1.073637009E0,-6.561460495E-1,1.444811126E0
6.358700400E-2,-1.094309807E0,3.151298046E0,2.662861347E-2,3.336000961E0
8.039744800E-2,-2.789855957E0,3.364086151E0,4.017112255E-1,4.388820320E0
9.720383300E-2,-2.920716763E0,2.836110353E0,1.961398125E-2,4.071178337E0
1.140125280E-1,-9.061822891E-1,1.947751522E0,6.428935528E-1,2.242368046E0
1.308184240E-1,1.393611431E0,1.468454361E0,-7.559206486E-1,2.161001402E0
1.476146560E-1,6.760487556E-1,2.481040478E0,-1.862646699E0,3.175225425E0
1.644402890E-1,-1.757325172E0,4.199362755E0,-2.056058407E0,4.995019067E0
1.812439580E-1,1.497518539E0,1.698922157E0,-1.788558006E0,2.885799372E0
1.980485420E-1,-5.439124107E-1,1.158097267E0,5.616144180E0,5.760043875E0
2.148442670E-1,-6.800365448E-1,-9.577465057E-2,-1.538416624E0,1.684739800E0
2.316699070E-1,-1.107349396E-1,-1.929039001E0,-7.953126431E-1,2.089491779E0
2.484736480E-1,1.719569206E0,-2.322989464E0,-1.721971035E-1,2.895315207E0
2.652820470E-1,3.299753189E0,-6.369609833E-1,4.922281504E-1,3.396524541E0
2.820787480E-1,1.874230623E0,3.202546120E0,-5.139465928E-1,3.746089051E0
2.988923050E-1,8.193094730E-1,5.222936630E0,-1.499003053E0,5.495211116E0
3.156943980E-1,-3.438744545E-1,6.542062759E0,3.676325083E-1,6.561401409E0
3.325187160E-1,-7.166823149E-1,5.890481949E0,-2.881968021E-2,5.933990369E0
3.493187750E-1,-1.718692899E0,-7.949652672E0,-3.653105259E0,8.916056354E0
3.661356880E-1,-4.821992874E0,-1.422722530E1,-3.614349365E-1,1.502651624E1
3.829378810E-1,-4.542181015E0,-6.550763130E0,1.079866886E0,8.044253754E0
3.997449790E-1,-1.740601897E0,2.439186573E0,-1.524363756E0,3.361995087E0
4.165552700E-1,-9.425440431E-1,3.807882786E0,-1.843244076E0,4.334271485E0
4.333600880E-1,-2.788919210E-1,1.542291641E0,-1.005647421E0,1.862195195E0
4.501745810E-1,2.728182077E-1,1.419219971E-1,-9.135369062E-1,9.639093872E-1
4.669809960E-1,1.030836463E0,-4.874238968E-1,-9.885687828E-1,1.509130248E0
4.837850220E-1,2.370590687E0,-8.901739120E-1,-7.894790173E-2,2.533444803E0
5.005931980E-1,4.693964005E0,-2.511105537E0,-1.833614469E0,5.630372200E0
5.174006600E-1,7.247547150E0,-4.773507118E0,-1.657139301E0,8.835124253E0
5.342112670E-1,7.299767017E0,-4.022010803E0,5.951451063E-1,8.355678734E0
5.510166250E-1,5.421505928E0,-1.833275795E0,1.534485817E-2,5.723098997E0
5.678260100E-1,2.326265335E0,3.304653168E-1,-2.374248981E0,3.340325727E0
5.846330070E-1,4.783437252E-1,2.651042938E-1,-3.152239799E0,3.199329423E0
6.014473970E-1,-1.346054077E-1,-1.155672073E-1,-3.009025097E0,3.014250558E0
6.182503330E-1,-2.321267128E-1,6.390781403E-1,-1.671958566E0,1.804923579E0
6.350571260E-1,3.518533707E-2,1.361006737E0,-9.433405101E-2,1.364725708E0
6.518646390E-1,1.107406616E-1,1.936885834E0,9.241673946E-1,2.148924289E0
6.686750530E-1,4.214239120E-2,1.521512032E0,2.030270576E0,2.537473834E0
6.854912140E-1,2.081816196E-1,6.540555954E-1,2.719882250E0,2.805153786E0
7.022858190E-1,5.649435520E-1,6.509799957E-1,2.773345470E0,2.904200625E0
7.190967010E-1,8.181042671E-1,2.720994949E-1,4.791090488E0,4.868046918E0
7.359062800E-1,8.845624924E-1,-1.413860321E-1,5.377828121E0,5.451924074E0
7.527017600E-1,7.733216286E-1,-6.238145828E-1,4.380115032E0,4.491389392E0
7.695009130E-1,5.536680222E-1,-1.106806755E0,2.563737392E0,2.846808545E0
7.863296170E-1,1.403081417E-1,-7.005510330E-1,1.105256557E0,1.316073775E0
8.031461220E-1,-1.476745605E-1,-5.120277405E-3,5.685086250E-1,5.873976931E-1
8.199446040E-1,-4.017782211E-1,5.125331879E-1,1.828890562E0,1.941380101E0
8.367523410E-1,1.031246185E-1,1.331672668E-1,2.419282198E0,2.425138050E0
8.535606900E-1,6.410155296E-1,-3.061761856E-1,2.016827106E0,2.138278827E0
8.703723250E-1,8.560452461E-1,-4.948987961E-1,1.393596530E0,1.708756732E0
8.871784130E-1,5.183048248E-1,-1.056594849E0,1.669200540E0,2.042367011E0
9.039837820E-1,-3.725266457E-1,-8.485593796E-1,2.266134739E0,2.448304674E0
9.207904320E-1,-1.025564671E0,-2.985353470E-1,1.905166626E0,2.184162567E0
9.376021260E-1,-1.704118013E0,1.698846817E-1,1.461371899E0,2.251330015E0
9.544058770E-1,-2.404247761E0,4.620637894E-1,1.409813523E0,2.825152104E0
9.712184260E-1,-2.828587055E0,3.823375702E-2,1.101818919E0,3.035847737E0
9.880248930E-1,-2.979698420E0,-1.313753128E-1,1.151578426E-1,2.984815484E0
1.004833191E0,-2.795709610E0,-2.706241608E-2,-1.804312468E-1,2.801656659E0
1.021638649E0,-2.148661137E0,2.670431137E-1,3.779842854E-1,2.197937402E0
1.038449846E0,-1.734658957E0,5.846338272E-1,7.074885964E-1,1.962492935E0
1.055256292E0,-1.264747381E0,7.270183563E-1,2.451388836E-1,1.479268299E0
1.072063766E0,-5.993709564E-1,1.031013012E0,-3.449693918E-1,1.241465769E0
1.088870304E0,3.553709984E-1,8.677482605E-1,-1.077821016E0,1.428626520E0
1.105681674E0,1.339644909E0,4.434614182E-1,-2.766653299E-1,1.438002161E0
1.122492066E0,2.435530663E0,1.217746735E0,-9.256625175E-2,2.724570650E0
1.139297414E0,3.270187378E0,2.665240288E0,1.634691954E-1,4.221889797E0
1.156090728E0,3.640137672E0,3.166810036E0,1.681960702E0,5.109626198E0
1.172911333E0,3.732335567E0,2.397804737E0,1.354884744E0,4.638481326E0
1.189722011E0,4.086681366E0,8.181252480E-1,9.597766399E-2,4.168873375E0
1.206527938E0,4.644561291E0,3.939628601E-1,1.310582876E0,4.841981391E0
1.223325310E0,3.402771473E0,-9.615421295E-1,1.318344593E0,3.773784497E0
1.240144890E0,2.211125851E0,-5.416814804E0,1.869728565E0,6.142218252E0
1.256951569E0,1.832391977E0,-1.146725655E1,1.924960494E0,1.177119815E1
1.273760040E0,1.409111023E-1,-1.120378590E1,-1.981431484E0,1.137852122E1
1.290555480E0,-1.813951015E0,-1.134592056E0,4.756808281E-3,2.139565388E0
1.307375627E0,-3.273971558E0,4.383316040E0,2.196452141E0,5.895485669E0
1.324171708E0,-4.375114441E0,7.053678513E0,-9.405473471E-1,8.353480487E0
1.340987157E0,-4.591792583E0,6.410775185E0,-3.351395845E0,8.568223370E0
1.357801029E0,-3.641059875E0,2.060964108E0,-1.704028845E0,4.517588336E0
1.374620059E0,-1.719628096E0,-1.445199966E0,1.663177490E0,2.794974614E0
1.391414207E0,2.344503403E-1,-1.799451828E0,3.452900648E0,3.900707209E0
1.408224894E0,1.687030792E0,-1.391716003E-1,3.669290066E0,4.040931974E0
1.425015318E0,2.401916265E0,1.474445343E0,1.670313835E0,3.276146994E0
1.441837338E0,2.784015656E0,1.473363876E0,4.480206072E-1,3.181550997E0
1.458647924E0,2.042599678E0,4.792175293E-1,-3.130825162E-1,2.121292895E0
1.475455754E0,1.120904207E0,4.682445526E-2,3.421416879E-1,1.172893732E0
1.492259270E0,2.204504013E-1,1.715364456E-1,1.214300871E0,1.246013538E0
1.509078422E0,-8.173832893E-1,3.755397797E-1,1.973417640E0,2.168760648E0
1.525873638E0,-1.374709964E0,4.365205765E-1,2.173824072E0,2.608809842E0
1.542685841E0,-1.442026138E0,1.076269150E-1,2.228961468E0,2.656932848E0
1.559492603E0,-1.351360202E0,8.883953094E-2,1.821921349E0,2.270124282E0
1.576286619E0,-1.774630070E0,-1.737041473E-1,1.565517664E0,2.372831762E0
1.593112280E0,-2.511890411E0,-6.161451340E-1,-6.273817420E-1,2.661359824E0
1.609917720E0,-1.800446033E0,3.348026276E-1,-8.497537374E-1,2.018856145E0
1.626727817E0,-5.397912264E-1,4.793434143E-1,7.464635968E-1,1.038437566E0
1.643535667E0,4.290843010E-2,2.890338898E-1,8.389669061E-1,8.883958534E-1
1.660342347E0,1.397275925E-1,6.752586365E-2,2.460646629E-2,1.571274023E-1
1.677153869E0,-1.926398277E-2,-1.321678162E-1,-2.037639618E-1,2.436374043E-1
1.693956125E0,1.878035069E-2,-8.760547638E-2,-6.639368534E-1,6.699548988E-1
1.710764443E0,5.309978724E-1,-2.609243393E-1,-1.317745566E0,1.444470017E0
1.727572313E0,1.175436378E0,-1.511983871E-1,-1.824732900E0,2.175812902E0
1.744371689E0,1.920166850E0,3.176240921E-1,-1.631392598E0,2.539560514E0
1.761188288E0,2.704673529E0,-2.702713013E-2,-1.017807007E0,2.889968939E0
1.777997113E0,3.424432278E0,-3.369655609E-1,-9.184136391E-1,3.561427498E0
1.794804353E0,3.459845066E0,-1.618232727E-1,-1.356707215E0,3.719861438E0
1.811601419E0,3.627139330E0,-3.701038361E-1,-2.219662666E0,4.268491410E0
1.828421558E0,4.241099834E0,-7.019853592E-1,-2.399088144E0,4.922939688E0
1.845230955E0,4.797944546E0,-4.498662949E-1,-2.311007500E0,5.344474456E0
1.862032456E0,4.824606895E0,-6.818685532E-1,-2.058855057E0,5.289674902E0
1.878848302E0,4.679821491E0,-1.230035782E0,-1.685650706E0,5.123976534E0
1.895652276E0,3.883756638E0,-8.884096146E-1,-1.754984260E0,4.353482171E0
1.912460105E0,2.096744299E0,-1.325901031E0,-7.998533249E-1,2.606552425E0
1.929257875E0,6.359014511E-1,-1.849316597E0,5.221259594E-1,2.024094377E0
1.946080425E0,-6.971530914E-1,-2.138958931E0,3.186406136E0,3.900557883E0
1.962883940E0,-1.934714794E0,-2.467370033E0,5.883338928E0,6.666686820E0
1.979692238E0,-2.626767159E0,-3.023735046E0,6.550340652E0,7.677880046E0
1.996499671E0,-2.896718979E0,-3.006723404E0,2.816081285E0,5.036038153E0
2.013312108E0,-2.528864384E0,-2.174797058E0,-3.367149115E0,4.739471540E0
2.030115300E0,-2.609815121E0,-2.141469955E0,-2.070780993E0,3.960449779E0
2.046923555E0,-2.832613468E0,-1.561161041E0,3.063583374E-1,3.248811827E0
2.063731467E0,-2.916578293E0,8.870820999E-1,1.732288837E0,3.506304066E0
2.080539673E0,-2.413635254E0,2.457216740E0,1.254899859E0,3.665831816E0
2.097348010E0,-2.061467171E-1,2.510024548E0,8.455587626E-1,2.656631197E0
2.114152941E0,8.483157158E-1,-7.692203522E-1,1.290508151E0,1.725326286E0
2.130966539E0,7.145018578E-1,-1.697664261E0,8.401141167E-1,2.024442782E0
2.147772079E0,-4.316449165E-1,3.992991447E-1,1.605883837E0,1.710152051E0
2.164580662E0,-2.072680950E0,1.154817104E0,2.814525843E0,3.681190648E0
2.181395582E0,-3.911434174E0,1.408375740E0,2.517180443E0,4.859942068E0
2.198191092E0,-5.362143993E0,2.089470387E0,2.138095379E0,6.139212209E0
2.215006684E0,-5.913392544E0,2.570193291E0,2.142773867E0,6.794526089E0
2.231810363E0,-5.139074326E0,2.985319614E0,1.158654571E0,6.055138193E0
2.248618752E0,-2.831322670E0,2.341717243E0,-3.872425556E-1,3.694588543E0
2.265422889E0,-6.743073463E-1,1.062734127E0,-2.226493359E-1,1.278149815E0
2.282238764E0,7.998466492E-1,-5.288419724E-1,1.581835747E-2,9.589988083E-1
2.299027511E0,1.443124771E0,-8.931922913E-1,-8.192250729E-1,1.884550688E0
2.315849419E0,1.436344624E0,-3.838224411E-1,-2.355334282E0,2.785319573E0
2.332662182E0,8.900260925E-1,-1.158275604E-1,-2.528419495E0,2.682996014E0
2.349457774E0,1.451794147E0,1.936826706E-1,-1.634009123E0,2.194357545E0
2.366275430E0,3.770730019E0,9.466681480E-1,3.625726700E-2,3.887917186E0
2.383076759E0,6.265579224E0,1.388706684E0,5.891107321E-1,6.444613310E0
2.399895921E0,7.606245518E0,4.038028717E-1,-1.182767630E0,7.708240195E0
2.416695856E0,5.636264324E0,1.914239883E0,-6.197171211E-1,5.984633587E0
2.433508692E0,2.550606251E0,3.287865162E0,1.309941173E0,4.362521684E0
2.450315280E0,-2.923946381E-1,2.299645424E0,1.702538252E0,2.876195438E0
2.467124554E0,-8.188025951E-1,-2.052879333E0,5.463978052E-1,2.276686586E0
2.483928966E0,5.754518509E-2,-1.036285496E1,-5.310333967E-1,1.037661172E1
2.500740396E0,-3.608448505E-1,-1.628358078E1,1.332505465E0,1.634199446E1
2.517547249E0,-3.386983871E0,-9.192469597E0,4.730241895E-1,9.808002290E0
2.534352434E0,-5.149435997E0,3.390036106E0,-4.694330692E-1,6.182993069E0
2.551165198E0,-5.396995544E0,7.486605167E0,4.736867547E-1,9.241276805E0
2.567972182E0,-4.261141777E0,6.408276558E0,3.058811665E0,8.281284109E0
2.584779483E0,-2.894955873E0,2.067301750E0,2.408080578E0,4.295737202E0
2.601585481E0,-1.752944827E0,-1.659220695E0,2.285058498E0,3.323751077E0
2.618394725E0,-9.783043861E-1,-1.527573586E0,1.994349480E0,2.695921063E0
2.635201527E0,-1.368451357E0,3.395395279E-1,-2.852659225E0,3.182076502E0
2.651998980E0,-2.175312996E0,9.660243988E-1,-3.617036343E-1,2.407492324E0
2.668818305E0,-1.011925578E0,3.213510513E-1,2.195061922E0,2.438351229E0
2.685625545E0,-5.255458355E-1,5.077114105E-1,2.179261684E0,2.298510559E0
2.702436578E0,-3.241472244E-1,1.152877808E0,4.538682103E-1,1.280700986E0
2.719231225E0,5.532393456E-1,1.450249672E0,-2.879550457E-1,1.578675392E0
2.736048912E0,1.252278090E0,9.681510925E-1,2.745315135E-1,1.606513151E0
2.752866639E0,1.253884554E0,8.181848526E-1,4.412994087E-1,1.560896568E0
2.769673268E0,8.684511185E-1,6.781578064E-1,7.487292290E-1,1.332178972E0
2.786474435E0,5.415651798E-1,9.220342636E-1,5.976670384E-1,1.225008537E0
2.803295529E0,2.963924408E-2,1.013089180E0,-3.332036734E-2,1.014070224E0
2.820087703E0,-3.852686882E-1,9.703493118E-1,-9.466195107E-2,1.048318002E0
2.836895125E0,-3.887062073E-1,6.027517319E-1,-8.108617067E-1,1.082542781E0
2.853709151E0,-1.284584999E-1,-2.703857422E-2,-1.163519144E0,1.170901136E0
2.870514061E0,3.930673599E-1,-2.581748962E-1,-1.065081835E0,1.164283274E0
2.887319123E0,9.756573439E-1,-1.291465759E-2,-2.033983946E0,2.255917714E0
2.904129119E0,1.802332759E0,1.176459312E0,-3.660548687E0,4.246419265E0
2.920941985E0,2.713730335E0,7.029199600E-1,-3.161207199E0,4.225122455E0
2.937742754E0,3.737704754E0,-1.472813606E0,-1.361156821E0,4.241740756E0
2.954554623E0,4.521775246E0,-2.099971771E0,-1.298048496E0,5.151821300E0
2.971359685E0,4.393242359E0,-8.205223083E-1,-2.077797651E0,4.928598012E0
2.988170871E0,3.966212749E0,-6.844110489E-1,-2.453464508E0,4.713676925E0
3.004976148E0,3.687316656E0,-1.641201973E0,-2.398978949E0,4.695204792E0
3.021784668E0,4.113682747E0,-1.752977371E0,-2.883845329E0,5.320890836E0
3.038592641E0,4.020941257E0,-1.130334854E0,-2.368202686E0,4.801459095E0
3.055401610E0,3.423050880E0,-1.116438866E0,-2.259528399E0,4.250786004E0
3.072207638E0,2.742517948E0,-3.664522171E-1,-2.345209360E0,3.627078558E0
3.089018336E0,1.341364384E0,9.038257599E-2,2.648706436E-1,1.370249568E0
3.105824519E0,3.262774944E-1,-1.309429169E0,2.516716480E0,2.855682684E0
3.122631686E0,-2.924060822E-1,-3.712935448E0,4.965273857E0,6.206878075E0
3.139442578E0,-1.065903425E0,-5.873262405E0,7.577569008E0,9.646290140E0
3.156242748E0,-1.608498454E0,-6.571821213E0,4.912687778E0,8.361256038E0
3.173044393E0,-1.766180277E0,-4.809311867E0,-2.544031143E0,5.720224459E0
3.189864775E0,-2.822479248E0,-3.886336327E0,-3.657502174E0,6.037161693E0
3.206671098E0,-3.470220089E0,-1.353938103E0,-2.020354986E0,4.237618449E0
3.223491196E0,-3.903708458E0,1.167985916E0,-7.112854719E-2,4.075314723E0
3.240287104E0,-3.974128008E0,3.104021549E0,1.664347172E0,5.310244317E0
3.257096347E0,-2.471752644E0,4.098822594E0,1.651538372E0,5.063347389E0
3.273897656E0,-4.723439217E-1,2.450090408E0,4.676514864E-2,2.495643959E0
3.290708863E0,1.105346680E-1,-7.590217590E-1,8.627511859E-1,1.154413943E0
3.307512166E0,-3.143901825E-1,-2.201652527E-1,1.266811609E0,1.323678805E0
3.324326272E0,-1.898016930E0,1.903857708E0,2.045662403E0,3.378146993E0
3.341135516E0,-4.028740406E0,2.093904495E0,2.257112741E0,5.070477613E0
3.357943405E0,-5.520417213E0,2.538228035E0,1.799891949E0,6.336972368E0
3.374752843E0,-6.554834366E0,3.048544407E0,2.351140499E0,7.601798354E0
3.391553084E0,-6.032679558E0,3.223640442E0,1.421384096E0,6.986087109E0
3.408373375E0,-3.181306124E0,2.927186966E0,4.715499878E-1,4.348734480E0
3.425174796E0,-8.391067982E-1,2.349340916E0,5.062651634E-2,2.495208609E0
3.441988413E0,1.184255600E0,8.774385452E-1,-6.491358280E-1,1.610508320E0
3.458786966E0,2.867505074E0,-6.243143082E-1,-2.513211250E0,3.863752644E0
3.475600085E0,4.197107315E0,-2.363080978E-1,-3.571067572E0,5.515802293E0
3.492416541E0,4.522598743E0,5.083446503E-1,-2.921144962E0,5.407901771E0
3.509215519E0,5.303901672E0,3.108100891E-1,-1.631142855E0,5.557751602E0
3.526018986E0,7.177180767E0,-1.969175339E-1,-4.087538719E-1,7.191507492E0
3.542833396E0,8.023399353E0,7.003517151E-1,1.250494719E-1,8.054878464E0
3.559639761E0,6.400686741E0,2.182864666E0,-6.409888268E-1,6.792978403E0
3.576451213E0,2.193632603E0,1.468533993E0,1.514373302E0,3.043343980E0
3.593275227E0,-9.084568024E-1,-4.193037033E0,-2.154197693E-1,4.295725666E0
3.610064237E0,-1.458510399E0,-1.259112167E1,-3.484183311E0,1.314546047E1
3.626863867E0,-3.838955402E0,-1.533538914E1,2.969541550E0,1.608508364E1
3.643679295E0,-7.023327827E0,-6.441400528E0,5.330636501E0,1.091945328E1
3.660486058E0,-7.965140343E0,4.215366364E0,7.558482289E-1,9.043455136E0
3.677295606E0,-6.591126919E0,6.995039463E0,1.956572771E0,9.808246946E0
3.694090577E0,-4.686709881E0,3.428187847E0,2.288814068E0,6.241505528E0
3.710911632E0,-3.522531509E0,-4.093637466E-1,1.823550701E0,3.987623863E0
3.727706043E0,-2.287204504E0,-2.466296196E0,1.992637515E0,3.909542893E0
3.744527615E0,-1.158725500E0,-1.302875519E0,1.517177939E0,2.311267683E0
3.761321611E0,-6.638078690E-1,3.863744736E-1,1.572201967E0,1.749784314E0
3.778141159E0,-1.402490973E0,2.269082546E0,-4.584564269E-1,2.706639767E0
3.794940444E0,-1.816248894E0,1.612949848E0,4.062527418E-1,2.462805016E0
3.811757459E0,-8.688589334E-1,9.802570343E-1,8.440018296E-1,1.558255046E0
3.828566346E0,-3.733205795E-1,1.559459209E0,1.085471988E0,1.936370501E0
3.845369965E0,-2.773420811E-1,2.236964703E0,2.223700047E0,3.166349887E0
3.862173531E0,3.323607445E-1,2.016572952E0,9.425746799E-1,2.250661495E0
3.878987353E0,5.636732578E-1,1.014606476E0,1.643195152E-1,1.172243467E0
3.895801184E0,1.010714769E0,5.096426010E-1,-8.512451649E-1,1.416297376E0
3.912601669E0,1.229931355E0,1.593532562E-1,-1.081173062E0,1.645314495E0
3.929417454E0,1.023853779E0,4.619207382E-1,-1.120551825E0,1.586595008E0
3.946219353E0,7.170178890E-1,7.114725113E-1,-1.503961444E0,1.811686455E0
3.963031302E0,7.002301216E-1,9.273862839E-1,-1.992972612E0,2.307012652E0
3.979836334E0,1.149944663E0,5.660562515E-1,-2.977664471E0,3.241801676E0
3.996646839E0,2.180395603E0,-5.379867554E-2,-3.062114000E0,3.759462918E0
4.013456714E0,2.799720287E0,-5.037355423E-1,-2.518612862E0,3.799420210E0
4.030258043E0,2.649535656E0,-8.412942886E-1,-1.720278740E0,3.269124381E0
4.047070551E0,3.238424301E0,-1.080214500E0,-1.395038486E0,3.687870347E0
4.063878198E0,4.231185436E0,1.446819305E-2,-1.903148651E0,4.639516603E0
4.080684807E0,4.686237335E0,3.398704529E-1,-2.755941868E0,5.447159614E0
4.097492301E0,4.392069817E0,-3.566923141E-1,-3.139863014E0,5.410752852E0
4.114301728E0,4.625889301E0,-1.261610985E0,-2.736063004E0,5.520557478E0
4.131111399E0,4.055865288E0,-1.910058022E0,-2.521516562E0,5.143579556E0
4.147921801E0,2.611342907E0,-1.311446190E0,-2.650352955E0,3.945044191E0
4.164719499E0,2.311607361E0,-2.533130646E-1,-2.545501232E0,3.447792427E0
4.181528194E0,1.831139803E0,-8.910322189E-1,-3.919267654E-1,2.073793139E0
4.198337172E0,5.927739143E-1,-1.879960060E0,2.230147600E0,2.976438990E0
4.215151096E0,-2.263464928E-1,-4.820034027E0,4.791461945E0,6.800152081E0
4.231955608E0,-1.130461454E0,-6.730102539E0,7.412815571E0,1.007581550E1
4.248744751E0,-1.834614396E0,-7.641610146E0,6.437953472E0,1.015909743E1
4.265573445E0,-1.716268659E0,-5.958712578E0,-3.306835651E0,7.027588187E0
4.282364255E0,-2.618625641E0,-3.824052811E0,-6.607721329E0,8.071094183E0
4.299191077E0,-3.281710863E0,-1.724122047E0,-2.202498913E0,4.311986141E0
4.315997493E0,-4.044648647E0,1.616705894E0,1.154543161E0,4.506205781E0
4.332799371E0,-3.819895506E0,3.787045002E0,9.190636873E-1,5.456921255E0
4.349614260E0,-2.267613888E0,4.072105408E0,-4.622668624E-1,4.683781149E0
4.366416109E0,-3.260421753E-1,2.180785656E0,-1.300891519E0,2.560165682E0
4.383233541E0,5.194749832E-1,-8.996047974E-1,9.302794933E-4,1.038818519E0
4.400039163E0,-4.106922150E-1,3.021473885E-1,2.408955574E0,2.462321688E0
4.416839200E0,-1.998751879E0,2.457974434E0,3.533651590E0,4.745876205E0
4.433653805E0,-3.845520973E0,2.528028965E0,2.262137890E0,5.127984968E0
4.450452805E0,-5.261654854E0,2.369325161E0,1.479443908E0,5.957135872E0
4.467267175E0,-6.229168892E0,2.644251347E0,1.953714013E0,7.043550860E0
4.484077660E0,-6.600893974E0,3.216947079E0,2.064779282E0,7.627834768E0
4.500883506E0,-5.547349930E0,3.347625732E0,1.020313978E0,6.559018974E0
4.517690715E0,-3.212995052E0,3.260776520E0,1.661074162E-2,4.577802599E0
4.534501383E0,-1.119062185E0,2.334879875E0,-4.325318336E-2,2.589562713E0
4.551306222E0,1.036523342E0,-5.097217560E-1,-1.440970540E0,1.846779089E0
4.568117367E0,3.482946396E0,-2.489479065E0,-4.508215904E0,6.217108030E0
4.584925126E0,5.968424797E0,-2.643823624E0,-4.816459656E0,8.112347473E0
4.601735234E0,7.852186203E0,-1.697882652E0,-2.742980003E0,8.489026621E0
4.618538333E0,8.895093918E0,3.699588776E-1,-4.050554037E-1,8.911993899E0
4.635348136E0,7.022590637E0,1.848644257E0,6.071113348E-1,7.287170165E0
4.652155253E0,4.459471226E0,3.127159595E0,9.365455508E-1,5.526583784E0
4.668967844E0,1.694503784E0,1.173218250E0,1.599732161E0,2.609008839E0
4.685770395E0,-6.625556946E-2,-3.218866348E0,-3.398759365E-1,3.237438188E0
4.702564347E0,-8.359508514E-1,-1.031694317E1,-2.680467606E0,1.069219513E1
4.719381903E0,-2.973880529E0,-1.424904346E1,3.570061922E-1,1.456044843E1
4.736190750E0,-6.146688461E0,-7.455577850E0,3.196424007E0,1.017764936E1
4.752990522E0,-7.387272835E0,2.395217896E0,-6.019395590E-2,7.766111769E0
4.769813072E0,-5.906486988E0,4.934938908E0,2.875213146E0,8.216268082E0
4.786607228E0,-4.229917526E0,2.502061844E0,2.096614361E0,5.343061625E0
4.803429127E0,-2.915472984E0,-4.704484940E-1,1.946819305E0,3.537147144E0
4.820233885E0,-1.477622390E0,-1.156592369E0,2.472768068E0,3.104135267E0
4.837046200E0,-5.444431305E-1,-6.457357407E-1,2.741838932E0,2.868984785E0
4.853847947E0,-6.111392975E-1,1.115963936E0,2.421835899E0,2.735718529E0
4.870661554E0,-1.966515541E0,2.664756298E0,-1.033410668E0,3.469300666E0
4.887453952E0,-1.940501451E0,1.569053650E0,-1.387691617E0,2.855374452E0
4.904281923E0,-1.064112902E0,4.837398529E-1,-9.040150642E-1,1.477695418E0
4.921077669E0,-2.431855202E-1,8.967628479E-1,-2.596894801E-1,9.647597777E-1
4.937891855E0,-4.709386826E-2,2.078824997E0,1.152789474E0,2.377531234E0
4.954698047E0,2.529911995E-1,2.294861794E0,7.811477780E-1,2.437331953E0
4.971508970E0,4.249753952E-1,2.053920269E0,1.735426188E-1,2.104592502E0
4.988312068E0,6.406855583E-1,1.378245354E0,-7.670279145E-1,1.702460003E0
5.005122523E0,1.074160337E0,6.299390793E-1,-1.508795381E0,1.956299357E0
5.021929965E0,1.240703821E0,1.146030426E-1,-9.285504222E-1,1.553925904E0
5.038738415E0,8.753328323E-1,3.712816238E-1,-7.415668964E-1,1.205810546E0
5.055544485E0,3.112261295E-1,7.748718262E-1,-1.010687470E0,1.311021439E0
5.072353190E0,-8.099555969E-3,9.718093872E-1,-1.777969241E0,2.026241276E0
5.089164284E0,9.327168465E-1,2.038621902E-1,-1.866145372E0,2.096191561E0
5.105970548E0,2.261970043E0,-2.932977676E-1,-1.124266386E0,2.542932749E0
5.122775406E0,3.345735550E0,-1.779508591E-1,-1.111909866E0,3.530149633E0
5.139586390E0,4.188172340E0,-6.617488861E-1,-1.396072865E0,4.464047332E0
5.156393406E0,4.065755844E0,-5.319871902E-1,-1.664933801E0,4.425537879E0
5.173202994E0,2.956501245E0,-8.249893188E-1,-2.566303015E0,4.000927162E0
5.190007804E0,2.484101772E0,-1.588977814E0,-1.589273334E0,3.349836091E0
5.206814900E0,2.551013947E0,-9.660501480E-1,-2.655879498E0,3.807180183E0
5.223616789E0,2.809568405E0,1.232366562E-1,-2.777080536E0,3.952345911E0
5.240435727E0,1.956137657E0,4.724798203E-1,-3.661943436E0,4.178461612E0
5.257223089E0,1.717815876E0,-2.377510071E-2,-3.263293028E0,3.687890728E0
5.274049260E0,1.557663202E0,-3.367424011E-1,-9.647806287E-1,1.862930959E0
5.290845483E0,1.286252022E0,-1.079270363E0,1.000309229E0,1.954453206E0
5.307669140E0,8.301537037E-1,-4.057662010E0,2.099554062E0,4.643479667E0
5.324460898E0,6.168780327E-1,-8.643773079E0,5.576183796E0,1.030481331E1
5.341277486E0,-4.228212833E-1,-1.083827877E1,8.853865623E0,1.400135711E1
5.358078042E0,-1.635997772E0,-9.451781273E0,2.076581240E0,9.814522280E0
5.374895830E0,-2.632426500E0,-3.864679337E0,-8.140363693E0,9.387807876E0
5.391703782E0,-3.597684383E0,-1.201226234E0,-6.399659157E0,7.439214657E0
5.408517390E0,-4.081126213E0,1.697168350E-1,-8.541967869E-1,4.173014153E0
5.425325199E0,-4.523381710E0,1.412091732E0,2.767865181E0,5.487810384E0
5.442127992E0,-4.712814331E0,2.522546291E0,2.733377934E0,6.003766621E0
5.458937328E0,-4.528578281E0,3.556560516E0,1.359334707E0,5.916496835E0
5.475744426E0,-3.357148886E0,3.762284756E0,-1.060221076E0,5.152601668E0
5.492551135E0,-2.362048388E0,3.073448658E0,5.085787177E-2,3.876589450E0
5.509355018E0,-1.801100016E0,1.588566780E0,1.836350203E0,3.023191649E0
5.526170762E0,-1.688462973E0,1.608390331E0,1.316108704E0,2.677679740E0
5.542974970E0,-2.339126587E0,2.005618095E0,2.196763158E-1,3.089057270E0
5.559783583E0,-3.147115707E0,2.316468239E0,-3.236176968E-1,3.921108363E0
5.576591127E0,-3.172438145E0,2.423947811E0,4.612346888E-1,4.019032746E0
5.593400646E0,-2.321043253E0,2.510379314E0,1.576285839E0,3.764827105E0
5.610214295E0,-1.102641582E0,2.273112297E0,1.353458166E0,2.866131013E0
5.627015664E0,-2.295250893E-1,1.575506210E0,8.513048887E-1,1.805442217E0
5.643822955E0,3.127565384E-1,1.301730633E0,-1.537984610E-1,1.347580520E0
5.660630754E0,8.983001709E-1,1.246029854E0,-1.387628555E0,2.070035411E0
5.677446385E0,1.653649330E0,6.175079346E-1,-3.166496277E0,3.625268380E0
5.694246952E0,3.109962940E0,-2.022829056E-1,-4.545088768E0,5.510954525E0
5.711056674E0,5.690374851E0,-7.991418839E-1,-3.925982237E0,6.959334036E0
5.727863201E0,7.515124321E0,-1.285952568E0,-1.568920970E0,7.784104353E0
5.744659301E0,6.348814011E0,-2.394809723E-1,-1.061088443E0,6.441327438E0
5.761484405E0,5.193652153E0,2.101416588E0,1.333203554E0,5.759115043E0
5.778279538E0,4.571162224E0,3.632084846E0,9.702600837E-1,5.918527607E0
5.795095221E0,2.298645973E0,2.022367001E0,2.983412743E-1,3.076158174E0
5.811893976E0,-3.219046593E-1,-1.768127441E0,-6.433443427E-1,1.908871185E0
5.828708795E0,-5.974364281E-1,-7.231566429E0,-1.532616019E0,7.416292549E0
5.845508385E0,-1.929675221E0,-1.479273987E1,8.890420198E-3,1.491807220E1
5.862321361E0,-5.711916924E0,-1.192294312E1,3.932794333E-1,1.322638409E1
5.879141043E0,-7.795452595E0,1.993436813E-1,-1.440884352E0,7.930004210E0
5.895938892E0,-7.114805222E0,5.786236286E0,2.685193777E0,9.555691985E0
5.912752998E0,-5.861153603E0,4.611818314E0,3.430983067E0,8.209362613E0
5.929560309E0,-4.763100147E0,1.092103958E0,2.004930735E0,5.282003533E0
5.946365199E0,-3.485757828E0,-1.098969460E0,2.233731508E0,4.283432964E0
5.963174086E0,-2.205448151E0,-1.206099510E0,2.755528450E0,3.729827692E0
5.979984337E0,-1.369238853E0,-9.349155426E-2,2.506713629E0,2.857825909E0
5.996789694E0,-1.050943494E0,8.627033234E-1,2.105101347E0,2.506030912E0
6.013596852E0,-1.174712300E0,1.717287540E0,1.092213869E0,2.349884385E0
6.030408680E0,-1.436293006E0,1.772601604E0,-8.892722130E-1,2.448644342E0
6.047214567E0,-8.927036524E-1,1.127509117E0,-1.736263514E0,2.254508285E0
6.064022783E0,-4.262287617E-1,6.907978058E-1,-6.657426357E-1,1.049802754E0
6.080828893E0,1.591119766E-1,4.208431244E-1,1.920189261E-1,4.891797466E-1
6.097638421E0,9.197208881E-1,1.357336998E0,6.685504317E-1,1.770652399E0
6.114453962E0,1.672863960E0,1.890087128E0,7.591117620E-1,2.635745406E0
6.131252372E0,1.906384468E0,1.454750061E0,-5.099397898E-1,2.451660268E0
6.148060771E0,1.660870075E0,1.164427757E0,-1.580495596E0,2.571448568E0
6.164870798E0,1.097148418E0,3.743324280E-1,-1.170322418E0,1.647274713E0
6.181680071E0,6.528520584E-2,1.510591507E-1,-2.013868809E0,2.020581254E0
6.198488999E0,-4.090981483E-1,5.648326874E-2,-4.185196400E0,4.205522626E0
6.215292720E0,9.484465122E-1,-3.652191162E-2,-4.850328445E0,4.942324419E0
6.232101169E0,2.369101048E0,3.366918564E-1,-1.809812427E0,3.000237024E0
6.248910159E0,3.080485344E0,-4.200754166E-1,-7.527793646E-1,3.198832612E0
6.265719311E0,3.362637997E0,-1.570606232E0,-2.654972076E-1,3.720836868E0
6.282523458E0,3.661088467E0,-1.277055740E-1,-1.782979965E0,4.074174153E0
6.299314208E0,3.834324837E0,1.269568443E0,-2.403235912E0,4.699935514E0
6.316142241E0,4.003407955E0,3.998060226E-1,-1.848232269E0,4.427536858E0
6.332948412E0,4.099289894E0,-6.672058105E-1,-2.699668407E0,4.953539213E0
6.349758307E0,4.451793671E0,-1.376945496E0,-3.746287346E0,5.979056335E0
6.366563267E0,3.521535635E0,-1.602369308E0,-2.197259903E0,4.449354078E0
6.383370944E0,3.162655354E0,-3.663063049E-2,-9.841866493E-1,3.312454384E0
6.400184033E0,3.044436455E0,7.598228455E-1,-1.778288364E0,3.606692888E0
6.416987243E0,7.378122807E-1,-5.837507248E-1,-1.680374742E0,1.925822199E0
6.433800170E0,-2.775621414E-1,-4.909219742E0,-5.236711025E0,7.183357264E0
6.450604297E0,2.799283266E0,-1.189020157E1,-4.790739059E0,1.312113032E1
6.467411221E0,-2.890485048E0,-8.597922325E0,3.386226416E0,9.682236387E0
6.484221889E0,-5.836319447E0,-6.565939903E0,1.417374706E1,1.667540996E1
6.501027542E0,-3.482037783E0,-5.592007637E0,4.493145466E0,7.973925803E0
6.517837100E0,-2.766290426E0,-2.462925911E0,-3.912007570E0,5.387222846E0
6.534643902E0,-2.914272785E0,-1.969051361E-2,-7.337928295E0,7.895477519E0
6.551456208E0,-3.171552658E0,2.968335629E0,-2.873134136E0,5.208134256E0
6.568258707E0,-3.352593660E0,3.233695984E0,1.850322247E0,5.012022185E0
6.585070667E0,-2.898678303E0,3.670114040E0,2.273538589E0,5.200101027E0
6.601875077E0,-2.098286629E0,3.029294968E0,1.147431374E0,3.859537995E0
6.618683640E0,-1.525805235E0,1.353922844E0,1.576950312E0,2.578364010E0
6.635491103E0,-2.695693970E0,2.329988003E0,2.802600384E0,4.533230524E0
6.652299472E0,-2.723487616E0,1.886565208E0,2.642149448E0,4.237625135E0
6.669107617E0,-2.060657978E0,1.819376469E0,1.679662704E0,3.221445147E0
6.685916881E0,-1.703537941E0,2.655425549E0,6.470438242E-1,3.220557727E0
6.702726043E0,-2.596212149E0,4.070168495E0,7.469620705E-1,4.885134741E0
6.719519234E0,-3.246901751E0,4.339922905E0,1.554342151E0,5.638553123E0
6.736340227E0,-2.691256046E0,3.660809994E0,1.236780882E0,4.708929376E0
6.753140345E0,-7.746059895E-1,2.353492260E0,-7.105515003E-1,2.577561579E0
6.769956242E0,6.357805729E-1,5.794477463E-1,-1.387624025E0,1.632628881E0
6.786763248E0,1.673946142E0,5.230894089E-1,-3.253561497E0,3.696130494E0
6.803571677E0,1.919573545E0,1.723904133E0,-4.423797131E0,5.121190204E0
6.820383139E0,9.978175163E-1,2.191229820E0,-2.631939888E0,3.567104638E0
6.837206461E0,4.836275578E-1,1.773031235E0,-1.694690704E0,2.499902390E0
6.853979724E0,7.250845432E-1,1.051166534E0,-1.078946114E0,1.671772531E0
6.870799354E0,2.419923067E0,1.485691071E-1,8.721007705E-1,2.576559758E0
6.887614589E0,4.786034584E0,2.028932571E-1,1.637183905E0,5.062377292E0
6.904417231E0,5.460492134E0,-1.926841736E0,1.027392864E0,5.880920805E0
6.921230493E0,3.608966351E0,-6.486895561E0,-8.991407156E-1,7.477493308E0
6.938031485E0,9.800062180E-1,-9.672822952E0,-2.019625902E-1,9.724438541E0
6.954847067E0,-8.523290157E-1,-1.324592876E1,3.397807598E0,1.370132074E1
6.971650715E0,-4.759824753E0,-8.249791145E0,-1.287649632E0,9.611088762E0
6.988455625E0,-8.409020424E0,2.282246590E0,-3.706193924E0,9.468693014E0
7.005264065E0,-5.749377251E0,2.378438950E0,1.204011202E0,6.337345941E0
7.022077317E0,-4.204648018E0,8.980646133E-1,3.170218945E0,5.341897899E0
7.038881576E0,-3.358399153E0,9.701032639E-1,2.282280207E0,4.174775222E0
7.055691776E0,-2.699662924E0,2.474050522E-1,3.017169952E0,4.056193250E0
7.072500846E0,-2.128621101E0,5.690679550E-1,3.419066191E0,4.067539766E0
7.089307862E0,-1.997905970E0,1.614560604E0,2.935245514E0,3.900525661E0
7.106113128E0,-2.058275223E0,2.170103550E0,1.274601817E0,3.251223785E0
7.122923399E0,-2.386690140E0,2.034423828E0,-2.128052711E0,3.789957583E0
7.139730100E0,-1.851539135E0,1.138775826E0,-3.202968836E0,3.870919389E0
7.156535559E0,-8.680955172E-1,9.656219482E-1,-7.005779147E-1,1.475406720E0
7.173345606E0,2.500021458E-1,8.482761383E-1,1.164397597E0,1.462154316E0
7.190154331E0,1.555804968E0,7.623348236E-1,1.405934572E0,2.231218390E0
7.206963168E0,2.542543411E0,7.440147400E-1,5.826456547E-1,2.712482422E0
7.223769990E0,3.792070627E0,4.772319794E-1,-5.960590243E-1,3.868182566E0
7.240565806E0,3.693275928E0,8.943367004E-1,-1.026369214E0,3.936185842E0
7.257386890E0,2.964083433E0,1.315768242E0,-1.083198071E0,3.419116074E0
7.274182289E0,2.723785400E0,1.522306442E0,-2.135209084E0,3.780944544E0
7.291000718E0,2.808396578E0,1.475139618E0,-4.396907806E0,5.421801037E0
7.307817367E0,2.617122412E0,9.776010513E-1,-6.399079323E0,6.982352735E0
7.324620690E0,2.629828453E0,5.339174271E-1,-4.938427925E0,5.620421326E0
7.341413282E0,2.321512699E0,-7.334709167E-3,-1.228379488E0,2.626478855E0
7.358234610E0,2.725679874E0,-1.053489685E0,2.199194670E0,3.657270634E0
7.375039419E0,2.964396477E0,-5.585918427E-1,7.572951317E-1,3.110171576E0
7.391847960E0,3.163614273E0,4.943437576E-1,-2.054550409E0,3.804472158E0
7.408661262E0,3.406778812E0,1.447401047E-1,-2.320181370E0,4.124358515E0
7.425453060E0,4.508459568E0,-8.075017929E-1,-1.885430217E0,4.953091350E0
7.442278202E0,5.672811985E0,-1.416990280E0,-2.054027081E0,6.197393365E0
7.459080865E0,4.929713726E0,-1.632661819E0,-2.447964191E0,5.741096648E0
7.475887474E0,2.601459503E0,-1.872715950E0,-1.783950329E0,3.668396837E0
7.492697063E0,4.389206171E-1,-1.771281242E0,-9.810127020E-1,2.071828774E0
7.509508148E0,-1.377145171E0,-2.601410866E0,-7.275274992E-1,3.032023017E0
7.526313740E0,-2.011134624E0,-4.421663284E0,5.561390519E-1,4.889280041E0
7.543121813E0,-2.027565002E0,-5.468472481E0,3.593005896E0,6.850175361E0
7.559927974E0,-1.926595569E0,-7.447816849E0,6.024368763E0,9.771118937E0
7.576740748E0,-1.975848913E0,-5.329695702E0,1.945541859E0,6.007892170E0
7.593546167E0,-2.253528118E0,-3.291357994E0,-2.790934324E0,4.868340665E0
7.610354200E0,-2.919986963E0,-1.347922325E0,-8.855264187E-1,3.335772099E0
7.627159974E0,-3.910091639E0,-9.130001068E-2,1.172458291E0,4.083112876E0
7.643970347E0,-4.277027607E0,2.055659771E0,1.250785947E0,4.907460415E0
7.660775522E0,-3.619326591E0,4.142227650E0,-5.693770647E-1,5.530078220E0
7.677583249E0,-1.999583244E0,5.008311272E0,-1.601534486E0,5.625515768E0
7.694380499E0,2.456545830E-1,2.805107117E0,-1.838292122E0,3.362780105E0
7.711199733E0,4.211554527E-1,-6.734685898E-1,7.420112491E-1,1.086974034E0
7.728001865E0,-7.050242424E-1,1.203187943E0,1.117194057E0,1.786852811E0
7.744815310E0,-2.379073858E0,2.328923702E0,1.020170808E0,3.482043439E0
7.761616516E0,-4.338894367E0,2.696646690E0,1.269163966E0,5.263903958E0
7.778436309E0,-5.366618633E0,2.878777027E0,1.053640604E0,6.180462058E0
7.795222889E0,-5.373340607E0,3.392068863E0,2.978438139E-1,6.361417404E0
7.812045254E0,-3.958810806E0,3.850057602E0,-3.119379282E-1,5.531042561E0
7.828857021E0,-1.747274876E0,3.711736679E0,1.035681963E-1,4.103740372E0
7.845667893E0,1.266271114E0,1.616172791E0,-1.850221157E-1,2.061477676E0
7.862462467E0,4.428544521E0,-1.539010048E0,-2.027785301E0,5.108079065E0
7.879275932E0,6.446440697E0,-2.556777000E0,-2.823509455E0,7.487717404E0
7.896091117E0,5.335234642E0,-1.385103226E0,-2.282111645E0,5.965842203E0
7.912893738E0,5.436218262E0,5.438861847E-1,-3.882491589E-2,5.463496000E0
7.929693481E0,7.657895088E0,5.885887146E-1,8.324396610E-2,7.680932457E0
7.946510618E0,7.273349285E0,-5.832214355E-1,-6.777228117E-1,7.328101069E0
7.963320909E0,2.064402103E0,-1.292438507E0,-8.807706833E-2,2.437193244E0
7.980133774E0,-7.874693871E-1,-6.665931702E0,-1.921783209E0,6.981977097E0
7.996934767E0,-2.506779671E0,-1.121544647E1,-3.301058769E0,1.195688809E1
8.013742638E0,-4.689065456E0,-9.553495407E0,4.425850868E0,1.152583035E1
8.030550660E0,-6.731726170E0,-1.634927750E0,3.783352852E0,7.893217644E0
8.047359741E0,-5.718505859E0,4.387197971E0,1.449747801E0,7.351910227E0
8.064166747E0,-3.330339193E0,3.749075413E0,2.436286926E0,5.575143010E0
8.080975727E0,-1.591104269E0,8.469896317E-1,2.558582783E0,3.129752400E0
8.097783189E0,-5.045030117E-1,-1.116562843E0,3.000019073E0,3.240578700E0
8.114577917E0,-6.340162754E-1,-1.662482262E0,3.056050777E0,3.536279155E0
8.131398432E0,-2.528743267E0,-8.172311783E-1,-2.983565331E-1,2.674215012E0
8.148212039E0,-2.580753803E0,1.910476685E-1,1.254239321E0,2.875744369E0
8.165023490E0,-1.776488185E0,1.383242607E0,2.236216068E0,3.173315724E0
8.181822326E0,-1.603820801E0,2.373081207E0,2.133622169E0,3.571568163E0
8.198630187E0,-1.683267951E0,2.744942188E0,2.098219633E0,3.843256983E0
8.215429645E0,-1.678631425E0,2.906360626E0,1.273327708E0,3.589721299E0
8.232246791E0,-1.638799191E0,1.951087475E0,7.584750056E-1,2.658512640E0
8.249036423E0,-1.471265793E0,1.445924759E0,7.048544288E-2,2.064046908E0
8.265861261E0,-5.645391941E-1,9.714155197E-1,-8.795231581E-3,1.123579089E0
8.282659386E0,4.587321281E-1,6.522960663E-1,6.768610477E-1,1.045976195E0
8.299490531E0,1.432386875E0,6.176452637E-1,9.029430747E-1,1.802366230E0
8.316285299E0,2.144103527E0,8.877077103E-1,-1.475377083E-1,2.325289722E0
8.333094023E0,2.491050720E0,8.982782364E-1,-1.167202115E0,2.893889814E0
8.349903919E0,2.727945805E0,6.443948746E-1,-1.936145067E0,3.406697930E0
8.366688564E0,3.501873493E0,4.338912964E-1,-3.264922380E0,4.807400313E0
8.383518906E0,3.570701122E0,2.421379089E-1,-5.770974159E0,6.790631783E0
8.400322850E0,3.098952293E0,-5.974626541E-1,-4.731478691E0,5.687473740E0
8.417139590E0,3.353522062E0,-1.592227936E0,3.799046278E-1,3.731705716E0
8.433943493E0,4.337926865E0,-1.064576149E0,1.915640116E0,4.860103797E0
8.450748943E0,4.907947063E0,9.910011292E-2,-2.489134073E-1,4.915254123E0
8.467559081E0,4.384360313E0,2.663755417E-1,-1.789981842E0,4.743164163E0
8.484366982E0,4.120613098E0,-5.340290070E-2,-2.181875467E0,4.662926627E0
8.501176195E0,4.784465313E0,-1.458753586E0,-1.615854263E0,5.256429906E0
8.517980830E0,4.729816914E0,-1.356097221E0,-1.778415084E0,5.231914365E0
8.534791376E0,4.067905903E0,-2.783966064E-2,-1.658971906E0,4.393269997E0
8.551585961E0,3.207109451E0,5.390777588E-1,-6.506413221E-1,3.316547903E0
8.568406017E0,1.968194962E0,-3.804092407E-1,-4.085895121E-1,2.045836745E0
8.585210664E0,9.772506952E-1,-2.090926170E0,1.135960937E0,2.572430450E0
8.602024189E0,5.204963684E-1,-3.962593079E0,2.731191158E0,4.840709196E0
8.618816730E0,1.727557182E-1,-6.327491760E0,5.916665554E0,8.664521210E0
8.635638446E0,-7.842524052E-1,-6.502081871E0,5.826141834E0,8.765617443E0
8.652448217E0,-1.190998435E0,-4.578779221E0,2.811814472E-2,4.731224689E0
8.669231643E0,-2.024537563E0,-3.219845772E0,-4.532144070E0,5.916628179E0
8.686062015E0,-3.213489532E0,-1.864360809E0,-2.127110958E0,4.280999560E0
8.702868633E0,-4.777857780E0,2.284803391E-1,9.934970737E-1,4.885403225E0
8.719677308E0,-7.509371281E0,3.571940422E0,1.926727676E1,2.098517022E1
8.736473907E0,-1.793703079E0,2.528239250E0,-1.281571579E1,1.318529240E1
8.753294340E0,3.636093140E-1,3.478876591E0,-8.892605782E0,9.555795710E0
8.770088234E0,1.014963627E0,2.327622890E0,-5.579826236E-1,2.599870015E0
8.786895452E0,8.187541962E-1,7.518601418E-1,4.165354252E0,4.311128408E0
8.803720779E0,-1.383239269E0,-7.815551758E-2,5.573777676E0,5.743383736E0
8.820521549E0,-4.370645046E0,1.370543003E0,2.282040596E0,5.117483319E0
8.837334749E0,-6.024172306E0,2.719437122E0,1.357984543E-2,6.609551774E0
8.854139781E0,-6.352746010E0,3.313110828E0,1.444184899E0,7.308881943E0
8.870951060E0,-4.837342739E0,3.199069023E0,1.465920210E0,5.981876750E0
8.887754362E0,-3.364661217E0,3.501138687E0,9.080942273E-1,4.939995176E0
8.904566973E0,-1.614956617E0,3.181180477E0,4.084134102E-2,3.567865205E0
8.921372464E0,7.188730240E-1,1.551898956E0,-4.829442501E-2,1.710994198E0
8.938182774E0,4.146511555E0,-1.517328262E0,-2.518122673E0,5.082989762E0
8.954986627E0,6.616064548E0,-2.813499451E0,-4.089192390E0,8.271008625E0
8.971798646E0,7.684357166E0,-1.366505623E0,-2.222427368E0,8.115162727E0
8.988605235E0,7.987474918E0,6.051216125E-1,1.950847507E0,8.244497179E0
9.005414032E0,7.918440819E0,4.760808945E-1,1.152694702E0,8.016050343E0
9.022219379E0,7.115221977E0,1.176878452E0,-1.094624400E0,7.294493077E0
9.039029772E0,3.938180447E0,1.997189999E0,8.919150829E-1,4.504835806E0
9.055836961E0,-2.162699699E-1,6.882123947E-1,1.252752542E0,1.445613341E0
9.072643925E0,-2.280007124E0,-5.801751137E0,-1.773956418E0,6.481178142E0
9.089454034E0,-3.102962017E0,-1.300152874E1,-1.983473301E0,1.351304145E1
9.106258862E0,-4.580195427E0,-1.265365982E1,6.038292885E0,1.474972128E1
9.123069784E0,-6.222718239E0,-2.448348045E0,6.692924023E0,9.461070891E0
9.139877227E0,-5.508066177E0,4.498505116E0,2.247097015E0,7.458202618E0
9.156683134E0,-4.192763329E0,5.442139626E0,2.321706295E0,7.251652788E0
9.173490048E0,-2.838409424E0,2.382613182E0,2.150811434E0,4.284787446E0
9.190288712E0,-1.320590615E0,-8.653259277E-1,3.999787331E0,4.300121769E0
9.207109156E0,-5.099668503E-1,-1.642768860E0,3.083061934E0,3.530442834E0
9.223909407E0,-1.530584574E0,2.024679184E-1,-1.816135526E0,2.383701039E0
9.240723554E0,-1.479611993E0,1.440397263E0,5.096954107E-1,2.126919212E0
9.257518290E0,-4.329313040E-1,2.192367554E0,1.649870396E0,2.777764808E0
9.274340230E0,-2.352705002E-1,1.991986752E0,2.078817844E0,2.888744893E0
9.291148650E0,-9.488923550E-1,1.791275501E0,1.883518457E0,2.767075424E0
9.307957018E0,-1.216084957E0,1.897188663E0,1.706184983E0,2.826526958E0
9.324764390E0,-1.015995860E0,1.984706402E0,1.005305886E0,2.445801916E0
9.341567519E0,-7.934260368E-1,1.769169331E0,1.049399495E0,2.204705036E0
9.358382094E0,-7.294273376E-2,1.501098633E0,2.421358824E-1,1.522250812E0
9.375191999E0,1.033839703E0,3.370609283E-1,-4.206941724E-1,1.165940902E0
9.391994975E0,1.665554881E0,-4.078254700E-1,-2.737388015E-1,1.736469869E0
9.408798939E0,1.902995467E0,-1.228580475E-1,-6.962510347E-1,2.030086538E0
9.425615813E0,1.901127934E0,3.804502487E-1,-1.573748589E0,2.497141252E0
9.442418627E0,2.402499199E0,1.012334824E-1,-1.931651592E0,3.084400832E0
9.459228868E0,3.520075321E0,-9.481573105E-1,-3.101013660E0,4.786044115E0
9.476034307E0,3.959699631E0,-5.710639954E-1,-4.050078869E0,5.692844113E0
9.492830234E0,3.698428869E0,7.964086533E-1,-2.545051336E0,4.559597477E0
9.509654798E0,4.010171413E0,7.379331589E-1,-8.513689041E-2,4.078390418E0
9.526456494E0,4.998481274E0,-1.379117966E-1,-1.102915287E0,5.120571925E0
9.543274689E0,5.113140583E0,-2.667617798E-1,-2.616634130E0,5.749968925E0
9.560064554E0,4.506653309E0,-1.054289818E0,-1.928174019E0,5.013911259E0
9.576883359E0,4.372493744E0,-1.669824600E0,-5.522214174E-1,4.712957058E0
9.593690517E0,3.669632912E0,-9.384365082E-1,-1.207461953E0,3.975529292E0
9.610498581E0,3.232547522E0,8.426170349E-1,-1.801882744E0,3.795543225E0
9.627307926E0,2.512784958E0,6.333837509E-1,-1.616987348E0,3.054490351E0
9.644116539E0,2.214424610E0,-1.019008636E0,-4.477109313E-1,2.478406753E0
9.660922121E0,1.649476290E0,-2.766191483E0,1.535447598E0,3.567938715E0
9.677736043E0,1.451083183E0,-5.625947952E0,4.626835823E0,7.427283656E0
9.694539438E0,5.287930965E-1,-7.280617714E0,6.241891861E0,9.604594236E0
9.711334430E0,-3.738968372E-1,-6.965862274E0,3.839927673E0,7.962919101E0
9.728153591E0,-9.097812176E-1,-5.414390564E0,-7.841168642E-1,5.546004535E0
9.744951666E0,-2.137560368E0,-2.634858131E0,-2.576757193E0,4.260436518E0
9.761758467E0,-3.634789944E0,3.552923203E-1,-2.663094282E0,4.519955943E0
9.778569745E0,-4.528824329E0,3.138382912E0,-1.520715117E0,5.715966373E0
9.795387331E0,-3.654726982E0,3.775128841E0,-7.533907890E-1,5.308128179E0
9.812193023E0,-1.741011620E0,3.783569336E0,-1.460869551E0,4.413689865E0
9.828999551E0,-6.893639565E-1,1.729618073E0,1.578931212E0,2.441275305E0
9.845814288E0,-9.438996315E-1,7.759356499E-1,3.772881031E0,3.965810626E0
9.862617316E0,-1.487521410E0,3.056144714E-1,5.362498283E0,5.573374919E0
9.879428716E0,-2.824395657E0,1.106795311E0,9.480166435E-2,3.034994900E0
9.896233891E0,-4.808668613E0,1.628055573E0,-1.828778982E-1,5.080088888E0
9.913042005E0,-5.797453880E0,2.699262142E0,1.067086339E0,6.483452850E0
9.929849499E0,-5.545235157E0,3.407501698E0,1.677688479E0,6.721260254E0
9.946662130E0,-4.384850502E0,3.420088291E0,1.478698730E0,5.754169600E0
9.963457101E0,-3.244434118E0,2.721611023E0,6.570531726E-1,4.285468257E0
9.980274910E0,-1.452712536E0,1.459620953E0,6.056821346E-2,2.060227062E0
9.997079057E0,1.198448181E0,-9.656333923E-1,-1.333869576E0,2.036647721E0
1.001389141E1,3.304550648E0,-3.081040382E0,-2.280303955E0,5.060894284E0
1.003069708E1,4.305541039E0,-1.910902977E0,-2.752501011E0,5.455776355E0
1.004750480E1,6.463488102E0,3.338575363E-1,-1.098695755E0,6.564698901E0
1.006431540E1,9.821025848E0,-1.176166534E-1,-1.285580397E-1,9.822571433E0
1.008111771E1,1.101457691E1,7.658901215E-1,2.518682241E0,1.132480695E1
1.009793588E1,8.848203659E0,3.787865639E0,1.655443907E0,9.766223867E0
1.011473614E1,2.247924805E0,3.247145653E0,1.501223803E0,4.225019967E0
1.013154536E1,-2.380965948E0,-2.227606773E0,-1.101157188E0,3.441479033E0
1.014835466E1,-2.676860332E0,-1.059163761E1,-2.823361874E0,1.128360496E1
1.016516146E1,-3.948038578E0,-1.370652390E1,3.676436901E0,1.472996925E1
1.018196851E1,-6.868375301E0,-7.765498161E0,5.212028980E0,1.160356786E1
1.019876521E1,-7.032490730E0,2.438695431E0,-1.891565442E0,7.679920644E0
1.021558708E1,-5.694859982E0,4.694531441E0,-1.057498574E0,7.455760115E0
1.023239988E1,-3.461531639E0,1.731814861E0,3.302780390E0,5.088196371E0
1.024920068E1,-2.118142605E0,-5.669498444E-2,2.816639900E0,3.524656401E0
1.026599814E1,-9.576302767E-1,1.016635895E-1,2.860875607E0,3.018609029E0
1.028281639E1,-3.634277582E-1,5.828733444E-1,2.588799715E0,2.678377314E0
1.029962556E1,-5.699154139E-1,1.584395885E0,1.631406069E0,2.344482813E0
1.031643541E1,-1.679840207E0,2.824708462E0,-1.470358491E0,3.600388188E0
1.033324370E1,-1.315105677E0,1.361631393E0,-1.362097740E0,2.332134912E0
1.035004793E1,-5.729376078E-1,4.781894684E-1,4.591230676E-2,7.476834959E-1
1.036685654E1,-7.891535759E-2,4.495697021E-1,1.305464029E0,1.382959465E0
1.038367304E1,-1.057701111E-1,1.225284576E0,1.757684827E0,2.145219234E0
1.040046128E1,-2.056632042E-1,2.124304771E0,1.659339666E0,2.703400866E0
1.041728366E1,6.436109543E-2,2.327095032E0,3.941864371E-1,2.361121891E0
1.043408608E1,6.935538054E-1,1.690546989E0,-6.516789198E-1,1.940013252E0
1.045089668E1,1.460089445E0,5.787372589E-1,-1.137299776E0,1.939136092E0
1.046770549E1,1.489845276E0,3.125209808E-1,-2.488061190E0,2.916805923E0
1.048452132E1,9.577484131E-1,6.273078918E-1,-2.944572449E0,3.159320199E0
1.050131943E1,8.315461874E-1,-4.278945923E-1,-2.264859438E0,2.450336940E0
1.051813415E1,1.334680557E0,-1.120122910E0,-3.083500385E0,3.541754106E0
1.053493828E1,1.967319369E0,-7.644872665E-1,-2.766152859E0,3.479423504E0
1.055174388E1,3.265085936E0,-9.466533661E-1,-8.196125031E-1,3.496956308E0
1.056855196E1,4.903290749E0,-9.041643143E-1,-5.424611568E-1,5.015380083E0
1.058536203E1,6.218702793E0,5.038480759E-1,-1.333302259E0,6.379954720E0
1.060217122E1,6.313905716E0,1.665954113E0,-2.614497185E0,7.033946547E0
1.061897733E1,6.126596451E0,1.288871765E-1,-2.475356579E0,6.609023087E0
1.063578427E1,5.331696510E0,-1.247827530E0,-7.709379196E-1,5.529774543E0
1.065258034E1,3.290712833E0,-1.261205673E-1,-1.761095405E0,3.734455030E0
1.066940135E1,3.485278845E0,2.583370209E-1,-2.060598850E0,4.057089383E0
1.068619913E1,3.274831772E0,-2.797079086E-1,-1.366123319E0,3.559361259E0
1.070301600E1,1.856690049E0,-1.568978310E0,-6.775635481E-1,2.523506140E0
1.071981359E1,6.032507420E-1,-3.397595406E0,4.831677973E-1,3.484396234E0
1.073663295E1,-3.621232510E-1,-7.363018990E0,1.774318337E0,7.582439413E0
1.075342860E1,-1.709642291E0,-9.513236046E0,5.061933517E0,1.091089858E1
1.077024742E1,-2.631093740E0,-9.570352554E0,4.916988850E0,1.107660064E1
1.078705988E1,-3.016159058E0,-5.397194862E0,-1.618559480E0,6.391139385E0
1.080386261E1,-3.544847965E0,-1.447319984E0,-3.107823372E0,4.931454993E0
1.082067950E1,-3.920578718E0,1.022022247E0,-2.337328434E0,4.677453492E0
1.083748557E1,-4.178287983E0,2.539173603E0,-2.666012526E0,5.568942076E0
1.085429330E1,-4.560405254E0,2.878554821E0,-1.173157930E0,5.519028309E0
1.087109615E1,-3.832246542E0,2.955170155E0,-1.085938811E0,4.959678145E0
1.088790358E1,-2.802658081E0,2.567895412E0,3.379523456E-1,3.816174912E0
1.090471516E1,-1.401520967E0,1.247166634E0,2.874596834E0,3.432636391E0
1.092151982E1,-1.247801781E0,4.970149994E-1,3.590615988E0,3.833608791E0
1.093832826E1,-2.878196478E0,1.460555077E0,2.143620491E0,3.874576739E0
1.095513634E1,-4.980929375E0,2.566804409E0,2.074733019E0,5.975170241E0
1.097194348E1,-6.407802105E0,3.199944019E0,2.249408245E0,7.507290257E0
1.098875268E1,-6.897220612E0,3.538252354E0,1.448265433E0,7.885959336E0
1.100555943E1,-6.082079887E0,3.654343605E0,1.249436140E-1,7.096586070E0
1.102236801E1,-3.910620451E0,3.581114292E0,-7.451782227E-1,5.354682294E0
1.103917821E1,-3.199930191E-1,2.098508835E0,-8.771721125E-1,2.296859982E0
1.105598534E1,4.274667740E0,-2.179780960E0,-1.649141431E0,5.073844379E0
1.107278958E1,9.476587296E0,-4.020550728E0,-4.038499355E0,1.105802930E1
1.108960254E1,1.137191391E1,-5.588960648E-1,-3.507807732E0,1.191375280E1
1.110640040E1,8.515924454E0,2.614561081E0,-9.086815119E-1,8.954473800E0
1.112322098E1,7.032215595E0,1.412181854E-1,-1.941220522E0,7.296597554E0
1.114002293E1,6.008511066E0,-1.200681686E0,-3.430666447E0,7.022343912E0
1.115683276E1,3.829885960E0,9.598708153E-1,-1.181656241E0,4.121369908E0
1.117364974E1,1.124730110E-1,1.845161438E0,1.406265020E0,2.322682117E0
1.119044952E1,-2.770559788E0,-1.497617722E0,-1.203322053E0,3.371475099E0
1.120724888E1,-4.074362755E0,-7.009084702E0,-5.583152771E0,9.843743956E0
1.122406313E1,-3.847813129E0,-1.109370708E1,-2.263380051E0,1.195821442E1
1.124087417E1,-4.740602970E0,-8.865127563E0,9.593212128E0,1.389580952E1
1.125768043E1,-6.643864632E0,-2.184319496E0,7.048118114E0,9.929156956E0
1.127448633E1,-6.404458046E0,3.864859104E0,3.236462593E0,8.150393173E0
1.129129589E1,-4.722977161E0,3.756851673E0,2.338225126E0,6.472074204E0
1.130810332E1,-3.384277344E0,9.799232483E-1,9.303157926E-1,3.644045854E0
1.132490892E1,-1.199668407E0,-2.495493889E0,1.239150047E0,3.033510652E0
1.134172132E1,1.360800266E-1,-1.429123878E0,2.776090860E0,3.125314912E0
1.135852884E1,2.969903946E-1,4.237184525E-1,4.735232294E-1,7.014020745E-1
1.137533606E1,-5.760984421E-1,1.711455822E0,-2.688989878E0,3.239079654E0
1.139213810E1,-4.277857542E-1,1.473643303E0,-9.181712866E-1,1.788201260E0
1.140895590E1,-1.064600945E-1,1.221132278E0,7.853353620E-1,1.455764206E0
1.142576057E1,2.317013741E-1,1.352345467E0,1.115280390E0,1.768155575E0
1.144256661E1,2.539825439E-1,1.775182247E0,9.148292542E-1,2.013129829E0
1.145937447E1,3.977105618E-1,2.713551044E0,6.557964683E-1,2.819858502E0
1.147619208E1,8.021441698E-1,2.306214809E0,1.830692291E-1,2.448586604E0
1.149299066E1,1.158748150E0,1.549852371E0,-7.722021937E-1,2.083515269E0
1.150979494E1,1.732793927E0,1.363323212E0,-1.037913561E0,2.436901626E0
1.152661141E1,1.851931572E0,1.193977356E0,-1.089821935E0,2.458240087E0
1.154341659E1,1.705076337E0,1.179053307E0,-1.258779526E0,2.425278934E0
1.156022331E1,1.662714839E0,9.884567261E-1,-2.358390570E0,3.050192357E0
1.157703491E1,1.968105793E0,6.412220001E-1,-3.397753954E0,3.978610058E0
1.159385104E1,2.448157787E0,1.474533081E-1,-3.834103823E0,4.551436164E0
1.161064710E1,2.597862482E0,-5.015239716E-1,-2.963655949E0,3.972867019E0
1.162744878E1,3.188546896E0,-1.901966095E0,-2.294290066E-2,3.712793114E0
1.164425867E1,4.371590137E0,-1.915281296E0,1.006277919E0,4.877673423E0
1.166105645E1,5.206487179E0,-4.280500412E-1,-1.590244651E0,5.460733800E0
1.167787961E1,5.412696838E0,-1.999092102E-1,-3.342663527E0,6.364797735E0
1.169466750E1,5.627890587E0,-4.702062607E-1,-1.818323612E0,5.933004900E0
1.171149419E1,5.419577122E0,-5.412149429E-1,-2.248996496E0,5.892598326E0
1.172830485E1,3.733891487E0,-3.685693741E-1,-2.719229221E0,4.633788577E0
1.174510881E1,2.968640089E0,-1.875629425E-1,-2.495755672E0,3.882885552E0
1.176192297E1,2.417353153E0,-4.080772400E-1,-3.995988965E-1,2.483908730E0
1.177872786E1,1.083295107E0,-7.106361389E-1,4.439333975E-1,1.369528704E0
1.179553357E1,4.122426510E-1,-2.661646843E0,9.520849586E-1,2.856706791E0
1.181233936E1,6.791217327E-1,-5.299351692E0,2.159295082E0,5.762541968E0
1.182915470E1,-1.860790253E-1,-8.124455452E0,5.290885925E0,9.697158123E0
1.184595827E1,-9.896820784E-1,-7.308876991E0,3.948282003E0,8.365888134E0
1.186276646E1,-1.620131254E0,-4.710562706E0,-1.612956226E-1,4.983998652E0
1.187957591E1,-2.850767136E0,-1.564640999E0,-1.722736359E0,3.680053706E0
1.189638115E1,-3.111483335E0,1.329173565E0,-2.458726883E0,4.182507477E0
1.191319529E1,-3.636738777E0,2.852506161E0,-2.898657322E0,5.455719439E0
1.193000017E1,-3.543363571E0,3.225765705E0,-2.316969872E0,5.322531274E0
1.194680818E1,-2.425676823E0,2.606144905E0,-9.902178049E-1,3.695460812E0
1.196360099E1,-1.830456734E0,1.423006058E0,2.426792622E0,3.356313532E0
1.198042252E1,-7.090358734E-1,1.633315563E0,3.027086020E0,3.511936982E0
1.199723245E1,-1.417456865E0,9.114427567E-1,2.778692245E0,3.249775755E0
1.201403922E1,-3.936742306E0,1.865665436E0,1.730618238E0,4.687609944E0
1.203084636E1,-6.291559219E0,3.010870457E0,1.758205414E0,7.193076157E0
1.204765744E1,-7.515396118E0,3.582676411E0,1.910934210E0,8.542155386E0
1.206445806E1,-7.088230610E0,3.915633202E0,9.118242264E-1,8.149025707E0
1.208125733E1,-5.021311283E0,3.903548241E0,-7.622621059E-1,6.405645899E0
1.209808142E1,-1.563061714E0,2.816858768E0,-1.304881573E0,3.475711605E0
1.211488780E1,2.936472416E0,-1.170287132E0,-1.414452434E0,3.463108128E0
1.213169473E1,8.270190239E0,-4.543814659E0,-2.599357843E0,9.787694286E0
1.214848791E1,9.978208542E0,-1.892866135E0,-2.159588575E0,1.038322738E1
1.216531319E1,5.823884010E0,1.968747616E0,-1.286421299E0,6.280801852E0
1.218210690E1,4.441192627E0,1.377614498E0,-2.162312269E0,5.128119344E0
1.219892543E1,6.498339176E0,-5.042295456E-1,-3.035521030E0,7.190065884E0
1.221574271E1,7.964593410E0,1.140401840E0,2.633523941E-1,8.050131616E0
1.223254077E1,4.761098862E0,1.378558636E0,2.533681393E0,5.566689113E0
1.224935339E1,-7.345447540E-1,-2.373903275E0,1.248534799E0,2.780973192E0
1.226615733E1,-3.788061380E0,-9.243397713E0,-4.777536869E0,1.107315081E1
1.228296895E1,-4.855529785E0,-1.269697666E1,1.146643162E-1,1.359420957E1
1.229977153E1,-7.523838043E0,-7.305171013E0,7.420257568E0,1.284655148E1
1.231658608E1,-8.079836845E0,2.199276924E0,4.275671959E0,9.402231285E0
1.233339198E1,-6.577674866E0,6.704786301E0,1.029840827E0,9.448837924E0
1.235019862E1,-4.731147766E0,3.824815750E0,1.467347145E0,6.258281102E0
1.236698566E1,-3.257165670E0,-1.519067764E0,1.180312395E0,3.782833915E0
1.238381562E1,-2.391870022E-1,-5.356469154E0,9.556893110E-1,5.446311989E0
1.240062206E1,4.492083549E0,-2.593817711E0,6.961451173E-1,5.233672034E0
1.241743265E1,4.460732937E-1,1.796785831E0,-2.117874146E0,2.812972023E0
1.243424259E1,5.259323120E-2,1.876547337E0,-8.442806005E-1,2.058398816E0
1.245104338E1,7.947044373E-1,2.356347561E0,1.433876038E0,2.870527732E0
1.246785524E1,-2.071738243E-2,2.610911369E0,1.714251280E0,3.123450790E0
1.248466342E1,-3.325434923E-1,2.401840210E0,8.612823486E-1,2.573174859E0
1.250146338E1,-4.650011063E-1,2.713880539E0,9.459558725E-1,2.911392471E0
1.251828145E1,-4.271364212E-1,2.183505535E0,6.923615932E-1,2.330130151E0
1.253508536E1,-2.839607000E-1,1.776556492E0,1.144037366E0,2.132043185E0
1.255189364E1,-4.399299622E-3,1.766936302E0,7.391553521E-1,1.915315610E0
1.256869143E1,2.540724277E-1,1.437885284E0,3.378968239E-1,1.498746527E0
1.258552178E1,3.298048973E-1,7.032871246E-1,-7.412560582E-1,1.073706009E0
1.260231331E1,4.349075556E-1,7.395792007E-1,-2.905118227E0,3.029163893E0
1.261912771E1,9.510492086E-1,4.000921249E-1,-3.774940252E0,3.913405450E0
1.263593821E1,1.654261351E0,-8.014631271E-1,-2.468881607E0,3.078035112E0
1.265274153E1,2.894370556E0,-1.532265663E0,-2.239610910E0,3.967502490E0
1.266954820E1,3.558291197E0,-8.935117722E-1,-3.070365906E0,4.784030343E0
1.268633682E1,3.846488237E0,9.963512421E-2,-2.012454748E0,4.342277402E0
1.270317232E1,5.058313370E0,-2.817754745E-1,-1.680107117E-1,5.068940635E0
1.271997981E1,6.474242210E0,1.438522339E-1,-8.930522203E-1,6.537128416E0
1.273677772E1,6.075185776E0,9.655933380E-1,-2.456515551E0,6.623799616E0
1.275358938E1,5.269978523E0,-4.770879745E-1,-1.912285924E0,5.626466389E0
1.277040400E1,5.173665047E0,-2.639305115E0,-9.001730680E-1,5.877333839E0
1.278720700E1,3.495686769E0,-2.285350800E0,-1.630556107E0,4.483454860E0
1.280401391E1,2.417577744E0,-7.003078461E-1,-2.193173409E0,3.338431192E0
1.282081532E1,2.544322491E0,-4.337081909E-1,-1.664931774E0,3.071429235E0
1.283763128E1,2.215722561E0,-1.403713226E0,-1.476817131E-1,2.627098623E0
1.285444631E1,1.826709747E0,-2.285317421E0,1.175760508E0,3.153086898E0
1.287124614E1,9.992868900E-1,-4.623398781E0,2.713773489E0,5.453343665E0
1.288805483E1,-1.350362301E-1,-7.148338318E0,5.214142799E0,8.848969467E0
1.290486420E1,-1.342330575E0,-6.962272644E0,4.438163757E0,8.364950046E0
1.292167196E1,-1.619816422E0,-6.505743027E0,-2.020130903E-1,6.707406866E0
1.293848507E1,-2.584573746E0,-3.667076111E0,-3.886988163E0,5.936004180E0
1.295528796E1,-3.981733084E0,3.909873962E-1,-4.482377052E0,6.008225490E0
1.297209414E1,-4.630821228E0,2.886264324E0,-3.549217939E0,6.509375928E0
1.298889856E1,-4.334378242E0,3.049839497E0,-2.739521861E-1,5.306920529E0
1.300571323E1,-3.614212275E0,3.691065788E0,7.154980898E-1,5.215211840E0
1.302250727E1,-2.033623695E0,2.958670616E0,-1.126572967E0,3.762781391E0
1.303932715E1,-1.483863115E0,1.142476082E0,1.069474101E0,2.156589019E0
1.305612446E1,-1.525728941E0,1.042156219E0,3.440421104E0,3.905180631E0
1.307294189E1,-2.447463274E0,1.560639858E0,1.443455338E0,3.241795268E0
1.308974319E1,-4.779621124E0,2.327644825E0,1.292600870E0,5.471153949E0
1.310656092E1,-6.136335373E0,3.194929600E0,2.229056358E0,7.268485345E0
1.312335260E1,-6.406370163E0,3.976820946E0,2.261400461E0,7.872141738E0
1.314017768E1,-5.672849655E0,4.483006001E0,7.276770473E-1,7.266916808E0
1.315697803E1,-3.682125568E0,4.637978077E0,-8.272266388E-1,5.979397399E0
1.317379921E1,2.866272926E-1,2.385853291E0,-1.828008056E0,3.019282130E0
1.319059544E1,5.434278011E0,-1.691791534E0,-3.154012203E0,6.507021521E0
1.320740664E1,1.045892143E1,-3.813945770E0,-1.306157470E0,1.120898154E1
1.322421679E1,9.601957321E0,-5.556373596E-1,-5.296645164E-1,9.632593720E0
1.324101909E1,6.893594265E0,7.083110809E-1,-1.753509998E0,7.148296566E0
1.325783270E1,6.522633076E0,-1.163858414E0,-3.751618147E0,7.614062475E0
1.327463992E1,6.016241550E0,-2.646703720E-1,-1.601684332E0,6.231420825E0
1.329145207E1,2.797870636E0,-5.476369858E-1,6.624193192E-1,2.926907193E0
1.330825302E1,-1.344415188E0,-4.250624657E0,3.953050375E-1,4.475659532E0
1.332506248E1,-3.423075676E0,-1.050603676E1,-3.297327757E-1,1.105454563E1
1.334187033E1,-4.496007919E0,-1.097178650E1,3.742247581E0,1.243376866E1
1.335868008E1,-7.314769268E0,-3.831254005E0,2.990300655E0,8.782155471E0
1.337548440E1,-7.709033489E0,3.266289711E0,5.284151435E-1,8.389104146E0
1.339229662E1,-4.973843098E0,4.712679863E0,2.023506165E0,7.144441465E0
1.340910346E1,-2.778476954E0,1.798857212E0,1.762710094E0,3.750062443E0
1.342590824E1,-5.672659874E-1,-2.466725349E0,2.425110340E0,3.505379411E0
1.344272113E1,2.164032459E-1,-2.738615990E0,3.538115501E0,4.479409471E0
1.345952764E1,-3.087749481E-1,-1.475405693E0,-1.348598480E0,2.022592838E0
1.347633501E1,-1.663136482E0,7.101287842E-1,-2.128460407E0,2.792964295E0
1.349314505E1,-1.012181520E0,1.875496387E0,2.060169220E0,2.964168576E0
1.350992946E1,-1.623262525E0,2.649269104E0,1.366999269E0,3.394450620E0
1.352675895E1,-1.288938522E0,2.589561462E0,2.042526245E0,3.541059805E0
1.354355478E1,-6.611491442E-1,2.267548084E0,1.985214353E0,3.085444625E0
1.356037613E1,-1.513864994E-1,1.678956032E0,6.991338730E-1,1.824992987E0
1.357717249E1,2.555843592E-1,1.635259628E0,8.392816782E-1,1.855745444E0
1.359399164E1,7.987405062E-1,1.082264900E0,9.858491421E-1,1.667687693E0
1.361079840E1,1.236258864E0,1.160802841E0,-6.109982729E-2,1.696918503E0
1.362760412E1,1.388129234E0,1.998754978E0,-2.469320059E0,3.466910121E0
1.364441788E1,1.595905423E0,1.858889103E0,-3.384621859E0,4.178282894E0
1.366121857E1,2.297981739E0,5.997676849E-1,-3.388121128E0,4.137608745E0
1.367803474E1,3.073618650E0,-5.761671066E-1,-3.315210104E0,4.557380627E0
1.369483592E1,3.538282871E0,-5.592203140E-1,-3.393958092E0,4.934685863E0
1.371164985E1,3.099737644E0,1.827602386E-1,-1.446437597E0,3.425486314E0
1.372845639E1,3.010708332E0,-2.970361710E-1,3.858900070E-1,3.049837085E0
1.374526073E1,4.244010448E0,-1.095434189E0,6.099835634E-1,4.425345263E0
1.376205584E1,5.623688698E0,-4.384164810E-1,-1.109461069E0,5.748824875E0
1.377887967E1,5.887090206E0,1.117706299E0,-2.799368858E0,6.613891779E0
1.379568637E1,6.028657913E0,6.346502304E-1,-1.489806175E0,6.242356894E0
1.381249766E1,5.617817879E0,-6.088047028E-1,-1.368219256E0,5.813995598E0
1.382930196E1,4.585228920E0,-7.227973938E-1,-2.553613186E0,5.297895868E0
1.384611271E1,3.467270851E0,-5.711889267E-1,-1.783729553E0,3.940801323E0
1.386291884E1,2.439589500E0,-1.196831703E0,-1.225394845E0,2.980871615E0
1.387972841E1,1.666148186E0,-1.474882126E0,-2.081193030E-1,2.234869282E0
1.389653414E1,4.997520447E-1,-1.910853386E0,9.617891908E-1,2.196850294E0
1.391334442E1,1.471791267E-1,-5.296698570E0,2.629405260E0,5.915272560E0
1.393015021E1,-4.670376778E-1,-8.068331718E0,4.752806664E0,9.375781146E0
1.394695955E1,-1.383448005E0,-7.351054192E0,4.891918659E0,8.937717509E0
1.396376590E1,-1.672297001E0,-5.223109245E0,-1.030449629E0,5.580257511E0
1.398057479E1,-2.328997135E0,-3.650753975E0,-2.682777643E0,5.094067935E0
1.399737290E1,-3.269086599E0,-1.185151100E0,-2.539726734E0,4.306010010E0
1.401419014E1,-3.964786530E0,1.955595493E0,-1.539250135E0,4.681151241E0
1.403099876E1,-4.024534225E0,4.076582909E0,-1.583240747E0,5.943236089E0
1.404778224E1,-2.370092392E0,3.488271236E0,-5.585952103E-2,4.217640863E0
1.406460710E1,-1.444783211E-1,3.442508221E0,-6.739948392E-1,3.510841192E0
1.408142385E1,1.452326775E0,1.804871559E0,-1.100727022E-1,2.319252122E0
1.409823159E1,-4.364528656E-1,2.456684113E-1,4.415258408E0,4.443574111E0
1.411504167E1,-3.176553965E0,6.711788177E-1,3.723343849E0,4.940067359E0
1.413184427E1,-4.936251163E0,1.670950890E0,9.238610268E-1,5.292652607E0
1.414865455E1,-6.134488583E0,2.537319183E0,1.056964040E0,6.722135954E0
1.416545761E1,-6.176464558E0,3.542895794E0,1.379004002E0,7.252756516E0
1.418226657E1,-5.590259552E0,4.016135216E0,1.145648003E0,6.978026460E0
1.419908538E1,-4.530017853E0,4.017272472E0,5.652024746E-1,6.081035578E0
1.421588312E1,-2.397792339E0,3.925129414E0,-2.843468189E-1,4.608351346E0
1.423269566E1,1.210489273E-1,1.928538799E0,-1.059668422E0,2.203817576E0
1.424950588E1,3.785753727E0,-8.514719009E-1,-1.627614617E0,4.207857533E0
1.426631067E1,7.245730400E0,-1.987289429E0,-6.905583143E-1,7.544985029E0
1.428310417E1,9.158336639E0,-2.813640594E0,9.009226561E-1,9.623064222E0
1.429991595E1,9.441728592E0,-3.019148827E0,-1.297862172E0,9.997296868E0
1.431673888E1,9.202278137E0,-1.962591171E0,-4.372092724E0,1.037539791E1
1.433354216E1,7.269514561E0,8.890242577E-1,-1.792313695E0,7.539800691E0
1.435035400E1,1.279391289E0,-1.765842438E-1,-3.308514357E-1,1.333224189E0
1.436715995E1,-2.263369560E0,-5.000980377E0,-1.357109785E0,5.654590477E0
1.438396904E1,-3.187427044E0,-8.850683212E0,-1.343384743E0,9.502576864E0
1.440077341E1,-5.113490582E0,-8.952553749E0,5.445228100E0,1.165961035E1
1.441757896E1,-7.627470493E0,-2.631886482E0,3.873246670E0,8.950261021E0
1.443439743E1,-8.010974884E0,2.768651009E0,-3.861575127E-1,8.484707692E0
1.445118986E1,-5.421041012E0,2.141880989E0,1.824620962E0,6.107747660E0
1.446800587E1,-3.036278963E0,-1.119472504E0,2.690804482E0,4.208638424E0
1.448479950E1,-9.183702469E-1,-2.660634995E0,3.409096241E0,4.420895799E0
1.450162254E1,-4.859619141E-1,-1.007089615E-1,1.657943130E0,1.730628989E0
1.451843341E1,-7.750964165E-1,1.341215134E0,-2.124614954E0,2.629376579E0
1.453523887E1,-1.037770748E0,2.049493790E0,-4.305764437E-1,2.337261002E0
1.455203459E1,-4.228258133E-2,1.898963451E0,1.448371768E0,2.388646224E0
1.456885581E1,2.557867765E-1,1.946095943E0,2.274213314E0,3.004124247E0
1.458566948E1,1.976553202E-1,1.947390079E0,2.590835094E0,3.247125226E0
1.460245876E1,-1.945337057E-1,2.095659733E0,1.766932368E0,2.748032582E0
1.461928251E1,-2.949053049E-1,2.166291237E0,-2.902633548E-1,2.205456796E0
1.463608258E1,1.022144556E-1,2.209258556E0,-8.101227880E-1,2.355328023E0
1.465289814E1,4.129718542E-1,2.015737057E0,-1.035048246E0,2.303272999E0
1.466970005E1,6.937321424E-1,1.091734886E0,-7.778254747E-1,1.509358081E0
1.468651578E1,1.122610807E0,1.036319733E-1,-1.178621292E0,1.630994409E0
1.470330746E1,1.356768608E0,7.845211029E-2,-2.106373310E0,2.506747756E0
1.472012765E1,9.522855282E-1,3.584861755E-1,-1.567010522E0,1.868390227E0
1.473692330E1,6.133486032E-1,8.435468674E-1,-9.280961752E-1,1.396112580E0
1.475374397E1,6.751486063E-1,6.322965622E-1,-1.392699718E0,1.671896255E0
1.477055076E1,1.689849138E0,-8.747100830E-2,-1.765152335E0,2.445200207E0
1.478735881E1,3.624349117E0,-4.887208939E-1,-1.633056402E0,4.005200101E0
1.480415620E1,6.181960583E0,-7.299594879E-1,-2.052071810E0,6.554424171E0
1.482097513E1,7.331330776E0,5.035820007E-1,-2.293031693E0,7.698051710E0
1.483778346E1,6.162531853E0,2.028769016E0,-1.787551880E0,6.729639239E0
1.485459099E1,5.111142159E0,4.033184052E-1,-2.029259443E0,5.514012494E0
1.487139935E1,4.668228149E0,-1.211850166E0,-1.209002972E0,4.972184939E0
1.488820797E1,3.651862621E0,-1.922890663E0,-2.641518116E-1,4.135623930E0
1.490501626E1,2.187228203E0,-1.640502930E0,-1.375436068E0,3.060562277E0
1.492182314E1,2.191762686E0,-1.829019547E0,-1.680591345E0,3.312630894E0
1.493861965E1,3.324959755E0,-2.175860405E0,-3.324525356E-1,3.987511826E0
1.495544802E1,3.082586765E0,-1.568186760E0,2.975540161E-1,3.471323850E0
1.497225979E1,1.816809297E0,-1.834226608E0,5.285065174E-1,2.635242382E0
1.498905954E1,9.343137741E-1,-3.791334152E0,1.734758496E0,4.272767712E0
1.500587063E1,7.350754738E-2,-5.040222168E0,3.478016853E0,6.124201507E0
1.502267346E1,-1.251254916E0,-5.940847397E0,4.639848232E0,7.641171263E0
1.503947249E1,-2.094324112E0,-5.369215012E0,3.841836214E0,6.926353212E0
1.505628602E1,-2.158434629E0,-3.647525787E0,-3.876256049E-1,4.256000238E0
1.507309813E1,-2.817691565E0,-8.086137772E-1,-2.209682941E0,3.670959097E0
1.508990458E1,-3.830023766E0,2.076241493E0,-2.153557301E0,4.859801419E0
1.510671100E1,-4.088364124E0,3.524937153E0,-1.783248663E0,5.685057514E0
1.512351907E1,-3.026696205E0,3.493894577E0,-1.578557044E-1,4.625268388E0
1.514032954E1,-1.660460949E0,3.153212070E0,1.439057827E0,3.843275212E0
1.515713775E1,-5.728483200E-2,1.476303101E0,1.239506841E0,1.928504500E0
1.517394332E1,-7.071933746E-1,-1.360454559E-1,6.493580341E0,6.533392418E0
1.519075142E1,-2.012640238E0,3.026323318E-1,2.334573269E0,3.097182494E0
1.520756220E1,-4.315156937E0,1.552035332E0,-1.523552537E-1,4.588311801E0
1.522436644E1,-5.977396011E0,2.051235199E0,9.521411061E-1,6.390884258E0
1.524117512E1,-5.970367908E0,2.698144913E0,1.578308105E0,6.739164296E0
1.525798491E1,-5.352563381E0,3.458465099E0,1.458952904E0,6.537542288E0
1.527479293E1,-3.782305241E0,3.358571053E0,-6.623041630E-2,5.058677586E0
1.529159885E1,-5.599398613E-1,1.971956253E0,-2.309166670E0,3.087781537E0
1.530840730E1,3.966551781E0,-7.981758118E-1,-3.652858973E0,5.451054607E0
1.532521766E1,6.982103825E0,-2.257726669E0,-1.651223898E0,7.521545313E0
1.534202280E1,6.311809063E0,-1.244703293E0,-4.904596806E-1,6.452036162E0
1.535882824E1,5.619744301E0,6.736307144E-1,4.952974319E-1,5.681603989E0
1.537564236E1,6.021051407E0,-1.304035187E-1,2.486947298E0,6.515747999E0
1.539245590E1,5.412173271E0,-8.940591812E-1,-6.889939308E-1,5.528623154E0
1.540925544E1,4.730529785E0,-1.436006546E0,2.610902786E-1,4.950575217E0
1.542605372E1,2.019281864E0,-3.118330002E0,1.744966030E0,4.104435125E0
1.544287184E1,-2.789497375E-2,-7.857538223E0,-3.661820889E-1,7.866115584E0
1.545965936E1,-2.164720058E0,-9.154720306E0,-3.092102289E0,9.902323636E0
1.547648648E1,-4.911087036E0,-4.902824402E0,9.437417984E-2,6.940127483E0
1.549328678E1,-5.810307503E0,1.329203606E0,2.685614824E0,6.537505831E0
1.551010520E1,-4.718783379E0,4.174690723E0,4.136386871E0,7.536886331E0
1.552691336E1,-3.251707792E0,3.413380146E0,4.740431309E0,6.685540859E0
1.554372255E1,-2.395175695E0,7.612924576E-1,2.996923208E0,3.911263419E0
1.556052758E1,-1.001139760E0,-1.787602425E0,3.408349156E-1,2.077010276E0
1.557733693E1,7.393653393E-1,-2.302230835E0,-1.097522259E0,2.655462866E0
1.559414660E1,5.113444328E-1,-9.234619141E-2,6.347866058E-1,8.203383345E-1
1.561094814E1,3.529888391E-1,2.202969551E0,1.793190598E0,2.862378117E0
1.562776252E1,3.478517532E-1,3.154837608E0,8.607431650E-1,3.288598482E0
1.564456944E1,2.400709391E-1,2.510634422E0,-3.363418579E-2,2.522310551E0
1.566137605E1,6.395348310E-1,1.997040272E0,5.516213179E-2,2.097669542E0
1.567818313E1,1.144116998E0,1.888369083E0,1.273316860E0,2.548779576E0
1.569499345E1,4.553982019E-1,1.818876743E0,2.142860651E0,2.847376319E0
1.571179829E1,-1.332951784E-1,1.436454773E0,1.218799591E0,1.888555629E0
1.572860896E1,-5.302777290E-1,8.116016388E-1,-1.455781013E-1,9.803492610E-1
1.574541580E1,-2.984828353E-1,3.237905502E-1,-9.105975628E-1,1.011494066E0
1.576222451E1,3.168308735E-1,5.074720383E-1,-4.047812223E-1,7.223278411E-1
1.577903299E1,1.026198268E0,7.979955673E-1,-4.072480798E-1,1.362252109E0
1.579584149E1,1.812312841E0,8.935298920E-1,-5.046386719E-1,2.082674649E0
1.581264753E1,2.531907082E0,9.684562683E-1,-1.258067846E0,2.988510619E0
1.582945783E1,3.267040491E0,6.015844345E-1,-1.811889410E0,3.783966257E0
1.584626174E1,3.976096869E0,-2.751903534E-1,-1.887703419E0,4.410045378E0
1.586307474E1,4.589197159E0,-1.549102783E0,-2.137460709E0,5.294259937E0
1.587987945E1,3.840366602E0,-1.278682709E0,-1.748086929E0,4.408996827E0
1.589668805E1,2.282514811E0,-2.595310211E-1,-6.661298871E-1,2.391852679E0
1.591349231E1,2.618407965E0,-6.148700714E-1,-1.782501936E-1,2.695533084E0
1.593030422E1,3.255013943E0,-9.732608795E-1,-2.699277401E-1,3.408109959E0
1.594710698E1,3.981003284E0,-9.349822998E-1,-5.836539268E-1,4.130766389E0
1.596391109E1,4.285262108E0,-8.042211533E-1,-1.067251444E0,4.488793673E0
1.598073545E1,3.671273470E0,-8.977594376E-1,-1.964115858E0,4.259339386E0
1.599753607E1,3.702305317E0,-5.955982208E-1,-1.285843015E0,3.964239417E0
1.601434434E1,3.617207766E0,1.958589554E-1,-5.622259378E-1,3.665876533E0
1.603115117E1,2.765467644E0,-2.337913513E-1,-3.373441100E-1,2.795759420E0
1.604796408E1,1.802603722E0,-1.504244804E0,9.069775343E-1,2.516891109E0
1.606476754E1,1.185426235E0,-4.180191040E0,2.713316441E0,5.122628095E0
1.608157632E1,1.847710609E-1,-5.901623726E0,5.869791031E0,8.325728178E0
1.609838563E1,-1.128489256E0,-6.056866646E0,5.986763477E0,8.590719324E0
1.611519406E1,-1.671696663E0,-3.801530838E0,1.386979818E0,4.378346658E0
1.613200032E1,-2.118872166E0,-2.129666328E0,-1.764190197E0,3.483886476E0
1.614880936E1,-2.418633938E0,-7.519531250E-2,-1.985921025E0,3.130387640E0
1.616561763E1,-3.247312784E0,1.770868778E0,-8.569555283E-1,3.796760372E0
1.618242283E1,-3.523396492E0,2.700496674E0,-3.878460526E-1,4.456167601E0
1.619923543E1,-2.056629181E0,3.541683197E0,-2.732927084E0,4.923630155E0
1.621604118E1,-4.729759693E-1,1.396872997E0,-3.806796074E-1,1.523114376E0
1.623284828E1,1.425323486E-1,4.917659760E-1,3.246367216E0,3.286494994E0
1.624966059E1,-9.408979416E-1,2.916870117E-1,4.069977760E0,4.187491996E0
1.626645397E1,-3.084212303E0,4.690022469E-1,2.315134048E0,3.884864773E0
1.628327834E1,-4.466403961E0,4.079356194E-1,-7.707284093E-1,4.550735995E0
1.630007862E1,-5.185812950E0,1.131083488E0,-7.175027132E-1,5.356007464E0
1.631688836E1,-5.120432854E0,1.926428318E0,5.966679454E-1,5.503269148E0
1.633369541E1,-4.182992935E0,3.023657799E0,1.337203503E0,5.331796094E0
1.635050816E1,-2.932404041E0,3.805602074E0,1.136023879E0,4.936815862E0
1.636729366E1,-1.408554077E0,3.100908279E0,4.500429630E-1,3.435432347E0
1.638412125E1,8.877282143E-1,6.571722031E-1,-2.157157898E0,2.423482388E0
1.640091822E1,3.688238144E0,-2.035493851E0,-2.952049732E0,5.144019192E0
1.641773805E1,4.617678165E0,-5.059194565E-1,-5.101119280E-1,4.673234460E0
1.643452408E1,4.904937744E0,1.369011402E0,2.540791512E0,5.691065629E0
1.645135239E1,5.747551918E0,3.113508224E-1,1.914973259E0,6.066169711E0
1.646816340E1,8.306839943E0,-6.167583466E-1,2.433207989E0,8.677815498E0
1.648497045E1,9.207337379E0,-9.127101898E-1,-1.100616217E0,9.317695937E0
1.650177703E1,4.458491802E0,-2.233886719E-1,-5.470576286E-1,4.497479705E0
1.651858350E1,-5.793006420E-1,-1.955992699E0,2.426615953E-1,2.054356668E0
1.653539616E1,-2.568586826E0,-7.118677139E0,-4.157731056E0,8.634809207E0
1.655219912E1,-2.556256533E0,-1.006451702E1,-2.965048313E0,1.079909542E1
1.656900906E1,-4.145980835E0,-6.991626740E0,5.610968113E0,9.876991683E0
1.658581982E1,-5.974514961E0,1.207056046E0,5.468439579E0,8.188751110E0
1.660262572E1,-5.211558342E0,4.854128361E0,1.507513404E0,7.279800764E0
1.661943900E1,-3.628851175E0,4.192249775E0,1.927397490E0,5.870126073E0
1.663624140E1,-1.814280748E0,3.084650040E-1,2.674092770E0,3.246157333E0
1.665304904E1,-3.735055923E-1,-2.077172279E0,2.218906641E0,3.062302694E0
1.666985878E1,-7.955846786E-1,-5.288305283E-1,-5.832666159E-1,1.119292926E0
1.668666142E1,-1.671572447E0,9.215154648E-1,-6.339027286E-1,2.011262754E0
1.670348405E1,-1.179990768E0,1.589832306E0,1.227511168E0,2.329533997E0
1.672028250E1,-4.933644533E-1,2.287634850E0,9.934542179E-1,2.542367592E0
1.673707548E1,-1.379171610E-1,2.113475323E0,1.255088925E0,2.461919433E0
1.675389889E1,-4.991017580E-1,2.107217789E0,6.399227977E-1,2.258090025E0
1.677070511E1,-7.260875702E-1,1.440466881E0,3.585002124E-1,1.652474023E0
1.678752095E1,-8.159393072E-1,1.262057304E0,1.333877146E-1,1.508753749E0
1.680432276E1,-5.635295510E-1,1.098258018E0,2.718016505E-1,1.263966917E0
1.682113151E1,-1.243026257E-1,7.057762146E-1,7.694967985E-1,1.051521056E0
1.683793919E1,3.619703054E-1,3.273839951E-1,1.046935916E-1,4.991628295E-1
1.685473743E1,4.360971451E-1,4.709215164E-1,-1.163535714E0,1.328820211E0
1.687155381E1,6.123132706E-1,4.953746796E-1,-1.703301668E0,1.876582049E0
1.688835309E1,9.959144592E-1,1.216726303E-1,-1.854482412E0,2.108495875E0
1.690516954E1,1.448887944E0,-2.818794250E-1,-2.549969435E0,2.946366644E0
1.692197994E1,2.052420378E0,-6.960716248E-1,-2.643550396E0,3.418377365E0
1.693878685E1,2.733154774E0,-1.440359116E0,-1.024041533E0,3.254755054E0
1.695558537E1,3.987783909E0,-1.559253693E0,-1.781860113E0,4.637749243E0
1.697239876E1,5.303749561E0,-7.253532410E-1,-2.735993385E0,6.011784805E0
1.698921480E1,5.968670368E0,4.740839005E-1,-2.076428652E0,6.337297330E0
1.700601441E1,6.434824467E0,-2.727890015E-2,-1.272842884E0,6.559560890E0
1.702283033E1,6.176962376E0,-1.329154015E0,-1.902012110E0,6.598421376E0
1.703963915E1,4.485448360E0,-1.447044373E0,-1.965332389E0,5.106438662E0
1.705644926E1,3.288635254E0,-5.981616974E-1,-1.440677762E0,3.639845005E0
1.707324918E1,3.360342503E0,-3.179302216E-1,-2.900171280E-1,3.387785603E0
1.709005999E1,2.134122849E0,2.084665298E-1,-1.086602926E0,2.403881142E0
1.710686834E1,7.542612553E-1,-9.958333969E-1,-8.014471531E-1,1.484220918E0
1.712367530E1,-3.066821098E-1,-4.113137245E0,7.836704254E-1,4.198343870E0
1.714048534E1,-1.234889984E0,-6.466845512E0,3.325622559E0,7.375961602E0
1.715728971E1,-2.168601751E0,-8.149323463E0,5.625766754E0,1.013723621E1
1.717410006E1,-3.255999327E0,-7.214008331E0,2.079631090E0,8.183416969E0
1.719090636E1,-3.994596481E0,-4.474657059E0,-1.470294833E0,6.175850042E0
1.720771683E1,-4.871004581E0,-1.738349915E0,-2.139731884E0,5.597052670E0
1.722452190E1,-4.830167770E0,1.803236008E0,-2.226368666E0,5.615950340E0
1.724133061E1,-4.284154415E0,3.936182022E0,-2.104862690E0,6.186918046E0
1.725814331E1,-3.698932886E0,2.958105087E0,-1.162910104E0,4.876971408E0
1.727494588E1,-2.333657503E0,3.224153996E0,-1.613676548E0,4.294773374E0
1.729175423E1,-4.252376556E-1,1.481532574E0,-1.863780916E-1,1.552579345E0
1.730856340E1,-1.560544968E-2,-3.927526474E-1,2.475102901E0,2.506119020E0
1.732536891E1,-9.682102203E-1,4.858622551E-1,3.130163431E0,3.312312828E0
1.734217003E1,-3.151542187E0,1.855337143E0,1.711205602E0,4.037662527E0
1.735898637E1,-5.485293865E0,3.554026127E0,1.035490990E0,6.617536708E0
1.737578376E1,-7.310289383E0,4.478823185E0,1.684280157E0,8.737104076E0
1.739260252E1,-7.460945129E0,4.886794090E0,7.232635617E-1,8.948160084E0
1.740939961E1,-5.959503174E0,4.948633671E0,-1.629498363E0,7.915801804E0
1.742622257E1,-2.679783821E0,3.890585423E0,-2.627583504E0,5.405746140E0
1.744302452E1,2.616689205E0,-1.349019051E0,-2.742399454E0,4.023390307E0
1.745981971E1,8.040085793E0,-4.874514580E0,-3.152086735E0,9.916628597E0
1.747664626E1,1.057732582E1,-3.772101402E0,-2.245337963E0,1.145207899E1
1.749345230E1,7.539782047E0,-4.649925232E-1,7.116432786E-1,7.587553461E0
1.751026148E1,6.707413197E0,-5.039606094E-1,5.325555801E-3,6.726321167E0
1.752706740E1,8.103301048E0,-1.191297531E0,-2.857840300E0,8.674671686E0
1.754387728E1,5.309794903E0,2.816276550E-1,-6.213409901E-1,5.353438210E0
1.756068394E1,-1.034278870E0,-3.667716980E-1,3.477787375E-1,1.151175186E0
1.757748779E1,-3.935853720E0,-5.506419182E0,-2.323698997E0,7.156198274E0
1.759430250E1,-4.006212711E0,-9.308509827E0,-1.464049220E0,1.023921558E1
1.761110780E1,-5.376916409E0,-8.731049538E0,5.271686554E0,1.152966327E1
1.762791638E1,-7.580213547E0,-2.731329918E0,3.069111347E0,8.622020935E0
1.764472658E1,-7.259724617E0,3.763014317E0,-8.016688228E-1,8.216237044E0
1.766153069E1,-4.926411629E0,4.397829056E0,1.968115211E0,6.890856944E0
1.767833945E1,-3.445811033E0,1.840847492E0,1.456390738E0,4.169341333E0
1.769514814E1,-9.234148264E-1,-3.032632828E0,1.310471892E0,3.430290569E0
1.771195539E1,3.897573948E-1,-2.071969986E0,1.932034373E0,2.859672581E0
1.772876272E1,4.771215916E-1,6.285219193E-1,-2.467218637E0,2.590338322E0
1.774557351E1,-5.788747072E-1,1.968295574E0,-2.036281109E0,2.890626947E0
1.776237573E1,-5.169774294E-1,2.339589119E0,5.924392939E-1,2.468182980E0
1.777919343E1,-3.493031263E-1,1.901443005E0,1.756217837E0,2.611857436E0
1.779599106E1,-5.598342419E-1,1.782001972E0,9.691983461E-1,2.104350456E0
1.781280383E1,-4.708255529E-1,2.509602070E0,4.828489125E-1,2.598638552E0
1.782960030E1,-5.034848452E-1,2.136065483E0,7.537654042E-1,2.320438541E0
1.784642170E1,-4.461030960E-1,1.684715748E0,4.383699894E-1,1.797065211E0
1.786321852E1,2.193808556E-2,1.284277916E0,-4.323941469E-1,1.355291756E0
1.788003385E1,7.015161514E-1,3.823633194E-1,-1.434826970E0,1.642271309E0
1.789683439E1,1.428489566E0,4.396181107E-1,-1.719754577E0,2.278464906E0
1.791365476E1,2.274059772E0,6.749553680E-1,-1.608375907E0,2.865970282E0
1.793045430E1,2.949065685E0,1.029267311E0,-1.905948162E0,3.659100711E0
1.794726964E1,3.644978285E0,1.129461288E0,-3.646760941E0,5.278296587E0
1.796407696E1,2.949248552E0,8.255472183E-1,-5.240726948E0,6.069992930E0
1.798087993E1,1.404163241E0,-4.156141281E-1,-4.653808594E0,4.878764591E0
1.799769738E1,2.590064406E-1,-1.167353630E0,4.952783585E-1,1.294256345E0
1.801450353E1,1.409598351E0,-1.811197281E0,2.155861378E0,3.148831748E0
1.803130959E1,3.917426825E0,-1.247353554E0,-7.217546701E-1,4.174093149E0
1.804811456E1,5.066261768E0,-8.350467682E-2,-1.761173248E0,5.364299819E0
1.806492714E1,4.873460770E0,-4.692926407E-1,-1.391553164E0,5.089919023E0
1.808173567E1,4.726854324E0,-2.000638008E0,-2.386036634E0,5.660289309E0
1.809854086E1,4.155468464E0,-1.738521576E0,-3.190228939E0,5.519776817E0
1.811534807E1,3.245462418E0,-4.519872665E-1,-2.014587402E0,3.846541459E0
1.813215825E1,2.894387722E0,5.234518051E-1,-7.261990309E-1,3.029661220E0
1.814896631E1,1.557036400E0,6.169996262E-1,-1.666998863E-2,1.674911573E0
1.816577305E1,7.839894295E-1,-2.129637718E0,-4.706591964E-1,2.317653191E0
1.818257988E1,8.145000935E-1,-5.879664421E0,5.001763105E-1,5.956848198E0
1.819939000E1,-1.322562695E-1,-7.975469589E0,2.768170357E0,8.443244282E0
1.821619816E1,-1.564785480E0,-8.446814537E0,5.567945480E0,1.023715030E1
1.823300348E1,-2.313898802E0,-5.484807014E0,1.855043292E0,6.235256311E0
1.824981247E1,-3.230125666E0,-1.868326187E0,-1.661815643E0,4.084848319E0
1.826662173E1,-3.847442389E0,9.923839569E-2,-2.416747808E0,4.544593619E0
1.828342997E1,-4.144664764E0,1.460839748E0,-4.575227261E0,6.343894960E0
1.830023885E1,-3.545120955E0,3.163179398E0,-4.219722748E0,6.354498135E0
1.831705633E1,-2.654864788E0,3.550103188E0,-2.652616203E-1,4.440934971E0
1.833385439E1,-1.505160093E0,2.820801258E0,1.138922691E0,3.394049431E0
1.835065460E1,-8.250143528E-1,1.143100739E0,3.378342867E0,3.660673231E0
1.836745778E1,-1.186142921E0,7.862567902E-1,3.608296394E0,3.878780432E0
1.838428097E1,-3.316593170E0,1.396334171E0,2.534263849E0,4.401367132E0
1.840107933E1,-5.701417446E0,2.524360657E0,1.434649467E0,6.398185424E0
1.841789748E1,-6.959296227E0,3.482865334E0,1.749069691E-1,7.784134335E0
1.843470092E1,-7.109939098E0,4.138698578E0,-2.354404926E-1,8.230157479E0
1.845151234E1,-5.634347916E0,4.351501942E0,-7.902154922E-1,7.162812723E0
1.846831961E1,-3.112633705E0,3.894920826E0,-9.849740267E-1,5.082230874E0
1.848513019E1,-1.132431030E-1,1.955396175E0,-1.584512353E0,2.519340707E0
1.850193261E1,3.570736885E0,-1.113167763E0,-1.175972939E0,3.920741859E0
1.851874239E1,6.786161900E0,-2.245960236E0,-1.110221148E-1,7.149031866E0
1.853555089E1,8.228752136E0,-3.598777771E0,1.799454689E0,9.159781675E0
1.855235712E1,6.032132149E0,-4.866456985E0,1.443958044E0,7.883783145E0
1.856916483E1,5.740723133E0,-2.608969688E0,-4.174254537E-1,6.319562401E0
1.858597552E1,7.628047466E0,1.233462811E0,-1.661212921E0,7.903680600E0
1.860278061E1,5.998476982E0,1.730894566E0,-5.819262266E-1,6.270275930E0
1.861959362E1,7.022838593E-1,-5.896812439E0,-2.071208000E0,6.289316508E0
1.863639405E1,-1.917901278E0,-1.281435585E1,-6.494755268E0,1.449371958E1
1.865320798E1,-4.038491249E0,-1.012651730E1,4.668928087E-1,1.091209205E1
1.867001481E1,-6.567309856E0,-8.759813309E-1,2.583194971E0,7.111244497E0
1.868680972E1,-6.874411583E0,5.573246956E0,2.250494003E0,9.131447832E0
1.870362968E1,-5.390867233E0,6.801325321E0,1.615015984E0,8.827669697E0
1.872044165E1,-3.947417021E0,2.775366306E0,6.102286577E-1,4.863860430E0
1.873724747E1,-1.718066692E0,-2.860053062E0,9.915572405E-1,3.480638223E0
1.875405295E1,2.483844757E-3,-2.975124359E0,-5.630266666E-1,3.027931662E0
1.877084992E1,-1.817092896E-1,9.191703796E-2,-3.463243484E0,3.469225049E0
1.878767168E1,-1.121539712E0,1.873292923E0,-1.122208357E0,2.454878673E0
1.880449268E1,-1.293870687E0,2.609232903E0,1.910347462E0,3.483048251E0
1.882128490E1,-1.055231571E0,2.514954567E0,1.755558968E0,3.243531629E0
1.883808322E1,-7.745936513E-1,2.273940563E0,6.866645217E-1,2.498461362E0
1.885489916E1,-3.826489449E-1,2.609060764E0,1.161273479E0,2.881349403E0
1.887171730E1,-1.995276213E-1,2.443229675E0,2.138854027E0,3.253287424E0
1.888851824E1,-3.000433445E-1,2.081791878E0,1.900276661E0,2.834596059E0
1.890532779E1,-4.190231562E-1,1.417995453E0,-4.487738013E-1,1.545215012E0
1.892213104E1,1.005222797E-1,1.855792999E-1,-2.641208172E0,2.649627335E0
1.893894912E1,8.493090868E-1,-2.173099518E-1,-1.549219966E0,1.780065179E0
1.895574765E1,1.232081890E0,-9.955692291E-2,-1.630860567E0,2.046373269E0
1.897256054E1,1.614404202E0,1.409559250E-1,-2.118909836E0,2.667573502E0
1.898936772E1,2.111803293E0,-3.056430817E-1,-3.220720291E0,3.863440182E0
1.900617475E1,2.072221518E0,-7.336378098E-1,-4.107671261E0,4.658893607E0
1.902298250E1,2.463138819E0,-9.596405029E-1,-2.808282375E0,3.856736008E0
1.903979128E1,3.522538424E0,-1.263193130E0,-2.906379700E-1,3.753452312E0
1.905659963E1,5.229129314E0,-9.365634918E-1,6.529293060E-1,5.352313634E0
1.907340657E1,6.318209648E0,6.542682648E-2,-1.348332167E0,6.460809041E0
1.909021945E1,6.221347332E0,3.271789551E-1,-2.197220087E0,6.606056676E0
1.910702316E1,6.326604366E0,-2.415122986E-1,-1.297585964E0,6.462815202E0
1.912383249E1,6.005819321E0,-1.076820374E0,-1.636872530E0,6.317338008E0
1.914063826E1,2.928821325E0,-2.065877914E-1,-1.680901408E0,3.383208893E0
1.915745208E1,1.791897535E0,5.157928467E-1,-2.197155952E0,2.881741369E0
1.917425533E1,1.954442382E0,1.264858246E-2,-2.067050457E0,2.844767583E0
1.919106357E1,1.556156874E0,-1.431838036E0,-3.470001221E-1,2.142940377E0
1.920787045E1,1.000506639E0,-4.195453644E0,9.162263274E-1,4.409344112E0
1.922468176E1,2.265751362E-1,-7.737363815E0,3.209630728E0,8.379729382E0
1.924149032E1,-1.170699358E0,-1.001078606E1,6.506534100E0,1.199672290E1
1.925830163E1,-2.050091743E0,-9.294369698E0,1.628190875E0,9.656044209E0
1.927510337E1,-3.213721275E0,-5.809082031E0,-3.596103430E0,7.550191942E0
1.929190462E1,-4.754477501E0,-2.231168747E0,-4.288187504E0,6.780245007E0
1.930872163E1,-5.219398022E0,1.098630905E0,-3.822780609E0,6.562221968E0
1.932552754E1,-5.592658997E0,2.966876507E0,-4.287966788E-1,6.345396556E0
1.934233116E1,-4.092153072E0,4.238923550E0,-1.209355950E0,6.014709589E0
1.935915089E1,-2.793793917E0,5.467534542E0,-2.203016281E0,6.523227664E0
1.937595189E1,-1.613874674E0,2.977782249E0,-1.103375077E0,3.562192464E0
1.939275968E1,-1.774122238E0,9.904875755E-1,2.797466516E0,3.457512728E0
1.940956884E1,-2.443892956E0,1.171370029E0,4.020687103E0,4.848777713E0
1.942637722E1,-3.834468842E0,2.098200321E0,1.950135946E0,4.786295655E0
1.944318875E1,-5.542425156E0,3.285905838E0,1.145818591E0,6.544352835E0
1.945998916E1,-6.576473236E0,4.235065460E0,1.287268400E0,7.927347577E0
1.947680172E1,-6.487832069E0,4.753500938E0,8.873728514E-1,8.091672677E0
1.949360913E1,-5.582854748E0,5.118356228E0,-3.304103017E-1,7.581227379E0
1.951039531E1,-3.392107725E0,4.166523933E0,-1.115831494E0,5.487385209E0
1.952722336E1,3.466744423E-1,3.743314743E-1,-1.551652431E0,1.633380693E0
1.954403366E1,4.797420979E0,-4.069169044E0,-1.235257030E0,6.410869261E0
1.956083679E1,9.051322937E0,-4.014684677E0,-1.662545681E0,1.004032859E1
1.957765277E1,1.132945251E1,-2.229701996E0,-1.465405822E0,1.163939343E1
1.959445402E1,1.101964951E1,-1.165359497E0,-2.083336353E0,1.127523961E1
1.961126083E1,9.823884964E0,-1.373528481E0,-4.302506924E0,1.081234767E1
1.962807663E1,5.338033676E0,1.642309189E0,-1.134072781E0,5.698938855E0
1.964486875E1,-1.330734968E0,2.959015846E0,1.497078419E0,3.573216216E0
1.966168944E1,-4.490583420E0,-9.198894501E-1,-5.845416784E-1,4.620954991E0
1.967849732E1,-4.329555035E0,-8.116057396E0,-1.568629622E0,9.331453978E0
1.969530636E1,-6.383423805E0,-1.324884605E1,2.260618448E0,1.487919410E1
1.971211183E1,-9.396785736E0,-1.284603119E1,4.363244534E0,1.650327247E1
1.972891946E1,-1.038060760E1,-1.204232216E0,-5.511994362E0,1.181479036E1
1.974573077E1,-6.492608070E0,2.892549038E0,2.778619051E0,7.631613415E0
1.976253673E1,-4.118129253E0,4.209980965E0,3.224195719E0,6.714042471E0
1.977933558E1,-2.972646475E0,3.216004848E0,1.644021869E0,4.677833062E0
1.979615068E1,-1.073850751E0,-7.831287384E-2,1.710548401E0,2.021203645E0
1.981296440E1,2.067294121E-1,-5.600681305E-1,1.975441456E0,2.063681736E0
1.982976987E1,5.000600815E-1,1.145732880E0,1.759116888E0,2.158067687E0
1.984657622E1,2.808792591E-1,2.403917313E0,-2.426586896E-1,2.432405156E0
1.986338428E1,-2.607650757E-1,2.149459362E0,-2.020293236E0,2.961377844E0
1.988019865E1,-1.033995152E-1,1.413377762E0,-2.253814697E0,2.662331468E0
1.989699715E1,-2.035727501E-1,5.704669952E-1,-1.657326221E0,1.764540921E0
1.991381383E1,-5.668854713E-2,3.866167068E-1,-1.846623421E-2,3.911867472E-1
1.993061742E1,-9.018695354E-2,1.724994183E0,1.335901260E0,2.183659954E0
1.994742664E1,-6.304979324E-4,2.207754612E0,4.827053547E-1,2.259908247E0
1.996423406E1,2.894995213E-1,2.082964897E0,-1.261283159E0,2.452221023E0
1.998102956E1,1.120980978E-1,1.667908192E0,-2.636897802E0,3.122132883E0
1.999785033E1,-2.468287945E-2,9.974288940E-1,-3.307779074E0,3.454978443E0
2.001466256E1,4.697130919E-1,-6.148242950E-2,-2.635475397E0,2.677711905E0
2.003145359E1,8.801405430E-1,-7.819614410E-1,-1.878534079E0,2.216980233E0
2.004827814E1,1.227425575E0,-4.906721115E-1,-2.020065069E0,2.414124178E0
2.006507974E1,1.915974140E0,-6.921548843E-1,-2.637407064E0,3.332559274E0
2.008188638E1,2.927599192E0,-1.244446754E0,-1.309785366E0,3.440206746E0
2.009870205E1,3.830302477E0,-1.003118515E0,-7.108308077E-1,4.022778176E0
2.011550895E1,4.334770679E0,3.064050674E-1,-1.527411938E0,4.606203224E0
2.013231343E1,4.783872128E0,6.121778488E-1,-2.503594398E0,5.433983729E0
2.014912561E1,5.505932808E0,7.765197754E-1,-2.647411346E0,6.158495424E0
2.016590842E1,5.968721390E0,3.876781464E-1,-2.490453959E0,6.479065542E0
2.018273783E1,4.412132740E0,-4.466209412E-1,-2.304234028E0,4.997587422E0
2.019954722E1,3.512655973E0,-9.981727600E-1,-2.482033253E0,4.415381061E0
2.021635509E1,2.383172035E0,-1.528640747E0,-1.471676588E0,3.190937709E0
2.023315226E1,1.022130013E0,-2.480793953E0,-4.926953912E-1,2.727973084E0
2.024997023E1,2.509741783E-1,-3.605787277E0,-4.525501728E-1,3.642731336E0
2.026676805E1,-2.911055088E-1,-6.473250389E0,1.057012081E-1,6.480654733E0
2.028358413E1,-8.437066078E-1,-8.969584465E0,2.972444057E0,9.486870400E0
2.030039795E1,-1.742779970E0,-8.868973732E0,4.210919857E0,9.971350115E0
2.031720306E1,-2.080388784E0,-5.767188072E0,-2.055167437E0,6.466234526E0
2.033401213E1,-3.404296637E0,-2.229871750E0,-4.803461552E0,6.295618039E0
2.035081519E1,-4.964020252E0,-5.358495712E-1,-2.489190102E0,5.578951442E0
2.036762948E1,-7.189825058E0,7.777175903E-1,-3.173604727E0,7.897480356E0
2.038443916E1,-7.259547234E0,4.237342834E0,-1.708699822E0,8.577631108E0
2.040124608E1,-1.900663614E0,3.694637299E0,1.033252835E0,4.281410791E0
2.041804928E1,1.393867970E0,5.955204964E0,3.448575735E0,7.021396490E0
2.043486081E1,3.737895012E0,3.198912621E0,-9.109466672E-1,5.003471285E0
2.045166963E1,4.756693840E-1,6.212611198E-1,-3.285339475E-2,7.831386132E-1
2.046848973E1,-4.094391346E0,2.345637798E0,3.289972544E0,5.752388766E0
2.048527794E1,-5.769715786E0,2.762340546E0,1.176707506E0,6.504212950E0
2.050209127E1,-5.420061588E0,2.615988731E0,-2.493364811E0,6.514394273E0
2.051889964E1,-4.561562061E0,3.097421646E0,-3.667938113E-1,5.525975660E0
2.053570944E1,-3.649343491E0,3.864716053E0,4.370625019E-1,5.333363077E0
2.055251499E1,-2.523668289E0,4.043766499E0,7.708030343E-1,4.828569814E0
2.056932502E1,-5.042400360E-1,3.191196442E0,-1.664072275E-1,3.235070959E0
2.058613628E1,2.598812580E0,7.673063278E-1,-1.536310673E0,3.114937609E0
2.060293943E1,6.323062420E0,-1.155590057E0,-2.224206924E0,6.801735307E0
2.061974689E1,9.083994865E0,-8.042402267E-1,-2.152137756E0,9.370029988E0
2.063654396E1,8.051918030E0,-9.268436432E-1,-2.815019131E0,8.580020734E0
2.065335175E1,7.015461922E0,-2.168429375E0,-5.882981300E0,9.408945792E0
2.067017234E1,7.806725502E0,-9.270315170E-1,-2.240009546E0,8.174472048E0
2.068698068E1,6.351193428E0,2.273013592E0,2.007058620E0,7.037935283E0
2.070378854E1,7.612972260E-1,-1.638832092E-1,1.971410632E0,2.119644086E0
2.072060220E1,-2.566854954E0,-6.490827560E0,-5.172549486E-1,6.999081329E0
2.073739182E1,-4.949982166E0,-1.224027348E1,-1.532083511E0,1.329187339E1
2.075421421E1,-8.047519684E0,-1.015246010E1,1.634807944E0,1.305785649E1
2.077102004E1,-1.000788498E1,-1.469638824E0,-1.522467017E0,1.022914981E1
2.078782877E1,-8.154834747E0,4.213027000E0,1.904436111E0,9.374316144E0
2.080463512E1,-5.379090309E0,2.669237137E0,3.164838791E0,6.787904244E0
2.082145103E1,-4.143349171E0,-1.168438911E0,1.656823039E0,4.612770797E0
2.083825660E1,-2.198767900E0,-3.708370209E0,1.896754384E0,4.710017737E0
2.085505797E1,-1.389172316E0,-1.777194023E0,2.623232841E0,3.459706470E0
2.087186779E1,-9.962757826E-1,-1.092128754E-1,1.951581717E0,2.193892450E0
2.088867853E1,-1.832549095E0,1.579380035E0,-1.998666763E0,3.138048169E0
2.090549015E1,-1.928151846E0,1.841078281E0,-1.217112541E0,2.930648685E0
2.092229184E1,-1.159673572E0,1.202235222E0,4.267656803E-1,1.724047931E0
2.093910086E1,-4.291942120E-1,1.193881989E0,8.748326898E-1,1.541069145E0
2.095591003E1,-3.830349445E-2,2.185190678E0,8.091771603E-1,2.330513491E0
2.097272027E1,-5.124508142E-1,2.701440811E0,1.227917671E0,3.011340250E0
2.098951265E1,-6.065597534E-1,1.993480206E0,4.014275670E-1,2.122032553E0
2.100633267E1,-2.108131647E-1,2.197855473E0,4.898459911E-1,2.261627724E0
2.102314338E1,2.864263058E-1,1.482841492E0,8.195393085E-1,1.718285074E0
2.103995017E1,6.912466288E-1,5.116434097E-1,-1.205859423E0,1.481113712E0
2.105675659E1,7.989031076E-1,3.738632202E-1,-2.622075796E0,2.766460078E0
2.107355358E1,1.326743245E0,2.322616577E-1,-3.749027252E0,3.983641356E0
2.109037581E1,2.097170353E0,2.734203339E-1,-5.310012817E0,5.715690535E0
2.110718314E1,3.178060055E0,3.796958923E-2,-4.858787537E0,5.805973108E0
2.112398878E1,3.677438259E0,-6.934928894E-1,-1.316312790E0,3.967009440E0
2.114079756E1,3.702517986E0,-9.033613205E-1,7.880198956E-1,3.891744656E0
2.115760611E1,4.489015579E0,-8.119297028E-2,-1.046695709E-1,4.490969705E0
2.117439649E1,5.628136635E0,1.047253609E0,-2.540400028E0,6.263089845E0
2.119122067E1,5.884109974E0,1.102426529E0,-4.109375000E0,7.261202196E0
2.120801773E1,5.716603756E0,-6.915454865E-1,-2.475261688E0,6.267751917E0
2.122483600E1,5.363910198E0,-1.618040085E0,-1.375362396E0,5.768986744E0
2.124165014E1,3.713922262E0,-8.765478134E-1,-1.476325393E0,4.091587871E0
2.125845345E1,2.524310827E0,-4.902162552E-1,-2.088006496E0,3.312435397E0
2.127526062E1,2.293490887E0,-6.830224991E-1,-2.148291349E0,3.215863166E0
2.129206912E1,2.677656174E0,-1.749950409E0,-1.364665031E-1,3.201685825E0
2.130888084E1,1.779513001E0,-2.042339325E0,6.928089857E-1,2.796033035E0
2.132568338E1,1.361586094E0,-4.678529739E0,1.326531887E0,5.049974659E0
2.134250071E1,1.295819283E-1,-7.570711136E0,1.895865679E0,7.805559893E0
2.135930390E1,-1.882180691E0,-8.884153366E0,3.947474480E0,9.902188645E0
2.137610977E1,-3.398474693E0,-7.828209877E0,2.476382732E0,8.886111161E0
2.139291891E1,-3.854566097E0,-4.613895416E0,-2.982832432E0,6.711408200E0
2.140972774E1,-5.117305756E0,-1.298407555E0,-3.175959587E0,6.161120002E0
2.142653542E1,-5.591133118E0,1.847406864E0,-2.171244860E0,6.275984855E0
2.144334247E1,-5.237854481E0,3.267621994E0,5.072410107E-1,6.194333419E0
2.146015058E1,-4.659856796E0,4.601987362E0,1.881503820E0,6.814147758E0
2.147696032E1,-3.290326595E0,3.396759510E0,5.579103231E-1,4.761878642E0
2.149376748E1,-1.246692896E0,9.182367325E-1,-1.201021552E0,1.959554705E0
2.151057438E1,1.152439117E-1,6.628360748E-1,1.308704257E0,1.471509311E0
2.152738376E1,5.358738899E-1,1.437959194E0,2.086440325E0,2.590003996E0
2.154419248E1,-1.882500172E0,1.562419891E0,6.461596489E-1,2.530313242E0
2.156100147E1,-3.936894894E0,2.944891930E0,8.146288991E-2,4.917129862E0
2.157780697E1,-5.141450882E0,3.571611404E0,7.909313440E-1,6.310031504E0
2.159461477E1,-5.339356422E0,3.978372574E0,8.565210700E-1,6.713404776E0
2.161142371E1,-4.236015320E0,4.276227951E0,5.901876092E-1,6.047997412E0
2.162821945E1,-2.643435240E0,4.133535385E0,-1.052478313E0,5.018124674E0
2.164503594E1,-6.845424175E-1,2.871551514E0,-1.822026968E0,3.469032818E0
2.166183797E1,2.395905972E0,-1.949024200E-1,-2.292345524E0,3.321626165E0
2.167864776E1,6.196765423E0,-1.926773071E0,-3.278339863E0,7.270479243E0
2.169545525E1,9.549034119E0,-1.361888885E0,-1.239434838E0,9.724967489E0
2.171226850E1,1.001372242E1,-2.425958633E0,6.269764304E-1,1.032245181E1
2.172908617E1,6.262767315E0,-3.402507782E0,-3.450744629E0,7.918772136E0
2.174588380E1,5.441226482E0,-5.134248734E-1,-2.134034157E0,5.867252553E0
2.176269948E1,3.583241940E0,2.361628056E0,1.205595613E0,4.457619393E0
2.177951199E1,-1.951679707E0,-1.347358704E0,-9.104956388E-1,2.540360498E0
2.179630771E1,-4.011590481E0,-6.858426094E0,-2.006443024E0,8.194917954E0
2.181312140E1,-4.300754070E0,-1.043341255E1,1.130434275E0,1.134153714E1
2.182992747E1,-6.102973938E0,-8.956254959E0,5.004373074E0,1.193752670E1
2.184673877E1,-8.362697601E0,-2.634196281E0,6.776653528E-1,8.793914461E0
2.186354745E1,-7.564506531E0,2.611385345E0,5.227259398E-1,8.019621867E0
2.188035359E1,-4.544534683E0,2.150700092E0,2.249561310E0,5.508069758E0
2.189715990E1,-2.102444410E0,-3.926515579E-1,1.558977008E0,2.646669049E0
2.191397068E1,2.217819691E-1,-1.146746635E0,1.749619722E0,2.103659730E0
2.193077543E1,1.346214771E0,4.837608337E-2,1.725478411E0,2.189043216E0
2.194758532E1,2.505645514E0,1.407727242E0,-1.326929808E0,3.165548632E0
2.196439123E1,7.388248444E-1,2.121372700E0,-1.455360055E0,2.676594323E0
2.198120232E1,-1.528264284E-1,2.011939049E0,-9.304803610E-2,2.019879350E0
2.199800936E1,-5.570777655E-1,2.194112301E0,9.103663564E-1,2.439924451E0
2.201481658E1,-1.152784586E0,2.374269962E0,4.945089221E-1,2.685257758E0
2.203162498E1,-1.409445167E0,2.415006161E0,2.409629822E-1,2.806573283E0
2.204843935E1,-7.441167235E-1,1.791749477E0,1.602140069E-1,1.946726590E0
2.206524392E1,-5.331623554E-1,1.205561638E0,1.045461416E0,1.682447780E0
2.208203516E1,-6.560632586E-1,1.016020775E0,1.498352170E0,1.925558734E0
2.209885840E1,-6.065830588E-1,1.195025444E0,-2.812194824E-2,1.340455021E0
2.211565458E1,-5.450808406E-1,1.138500214E0,-2.206124783E0,2.541708562E0
2.213246175E1,-3.221787214E-1,1.436979294E0,-2.877666950E0,3.232595814E0
2.214927392E1,6.286705732E-1,9.303426743E-1,-1.755232096E0,2.083651576E0
2.216609081E1,1.871611834E0,1.989517212E-1,-1.174646139E0,2.218627097E0
2.218289809E1,2.903729439E0,-1.400890350E-1,-1.959080458E0,3.505604917E0
2.219970445E1,3.251553774E0,-7.434139252E-1,-3.136276245E0,4.578372516E0
2.221651582E1,3.143784523E0,-1.648388863E0,-1.496616602E0,3.852327637E0
2.223332005E1,3.889964819E0,-1.394461632E0,4.831910133E-2,4.132636479E0
2.225014121E1,5.159813404E0,-2.244720459E-1,-1.225569606E0,5.308114818E0
2.226693474E1,5.832873821E0,6.694412231E-1,-1.365234017E0,6.027804948E0
2.228374954E1,5.281312943E0,3.027257919E-1,-4.459196329E-1,5.308743130E0
2.230055034E1,4.583006859E0,-1.554633141E0,-1.127561331E0,4.969127753E0
2.231736632E1,3.195995569E0,-1.785655975E0,-2.566497326E0,4.471002512E0
2.233416975E1,2.704231977E0,-4.213428497E-1,-3.302035332E0,4.288803763E0
2.235098212E1,3.208929062E0,1.548995972E-1,-2.427345514E0,4.026565019E0
2.236778472E1,3.065555096E0,-1.954813004E-1,1.398801804E-3,3.071781721E0
2.238459622E1,2.010839462E0,-9.649305344E-1,9.294593334E-2,2.232309393E0
2.240140151E1,1.582115889E0,-3.521753311E0,6.065562367E-1,3.908164216E0
2.241821166E1,9.501543045E-1,-6.838836670E0,2.073151112E0,7.209052346E0
2.243502019E1,-5.164185762E-1,-9.430534363E0,3.572973490E0,1.009791098E1
2.245182670E1,-1.656609297E0,-8.900081635E0,1.569379091E0,9.187968121E0
2.246863380E1,-2.961686373E0,-5.418601990E0,-1.883080006E0,6.455913878E0
2.248545060E1,-4.115424156E0,-6.092662811E-1,-3.785738945E0,5.624921399E0
2.250225072E1,-4.376315117E0,2.615078926E0,-4.165036678E0,6.583183297E0
2.251906757E1,-4.237445354E0,3.575651646E0,-2.303509712E0,6.003947436E0
2.253584723E1,-3.727592230E0,3.160927773E0,-9.814476967E-2,4.888357660E0
2.255267748E1,-3.513329029E0,2.910124302E0,1.583516002E-1,4.564797865E0
2.256946953E1,-2.817395687E0,2.105383873E0,2.281594515E0,4.192377994E0
2.258629278E1,-1.348097563E0,2.107270241E0,1.798300385E0,3.080882858E0
2.260308347E1,-1.905111074E0,5.057010651E-1,2.288662195E0,3.020456326E0
2.261990924E1,-3.165173054E0,1.819436073E0,2.964362800E-1,3.662859887E0
2.263672645E1,-4.654782295E0,2.972198009E0,3.380268514E-1,5.533102328E0
2.265352353E1,-5.600277901E0,3.038726807E0,7.368552685E-1,6.414041538E0
2.267033377E1,-5.594696522E0,3.147424698E0,7.923737168E-1,6.467980172E0
2.268713815E1,-4.796592712E0,3.543521881E0,1.429609656E-1,5.965256642E0
2.270395210E1,-3.640578032E0,3.745405197E0,-9.323331714E-1,5.305762305E0
2.272075441E1,-1.122875690E0,1.844446659E0,-1.313612461E0,2.527530612E0
2.273756610E1,2.880987644E0,-3.139680862E0,-3.102588654E0,5.271028560E0
2.275437354E1,6.774461746E0,-4.573436737E0,-3.239650726E0,8.792325766E0
2.277118687E1,8.233825684E0,-6.327791214E-1,-1.035316467E0,8.322750446E0
2.278798780E1,7.340157509E0,1.904825687E0,-1.370158195E-1,7.584526781E0
2.280479749E1,8.924633026E0,-2.425346375E-1,-1.876339316E0,9.122968099E0
2.282160395E1,9.828019142E0,-1.684911728E0,-3.093022823E0,1.044009952E1
2.283841308E1,4.622787476E0,-9.364461899E-1,3.115444183E-1,4.726960486E0
2.285522061E1,-8.755292892E-1,-3.641558647E0,2.179791927E-1,3.751668408E0
2.287202813E1,-3.882960558E0,-9.411689758E0,-4.604001045E0,1.117381369E1
2.288883750E1,-4.373316288E0,-9.932969093E0,1.202428460E0,1.091950569E1
2.290564676E1,-6.594294548E0,-3.298194885E0,4.752460480E0,8.772040281E0
2.292245406E1,-7.693861961E0,2.275693417E0,2.391099691E0,8.372075617E0
2.293925938E1,-6.190489769E0,4.429654598E0,1.550090194E0,7.768319191E0
2.295607216E1,-4.287827492E0,2.294667721E0,1.721277595E0,5.158852693E0
2.297287661E1,-2.689022541E0,-1.837170601E0,1.225495100E0,3.479637378E0
2.298968575E1,-1.367867231E0,-2.561068535E0,2.252661228E0,3.674862638E0
2.300649673E1,-9.303253889E-1,-6.827659607E-1,2.465830803E0,2.722498161E0
2.302329451E1,-1.289298773E0,1.166750908E0,1.657000184E-1,1.746727083E0
2.304010919E1,-2.190329552E0,2.666197300E0,-2.310145378E0,4.152459904E0
2.305691797E1,-1.240457296E0,1.914813995E0,2.962822318E-1,2.300658623E0
2.307372925E1,-1.579920053E-1,1.149890900E0,1.402986288E0,1.820873713E0
2.309054475E1,1.181232929E-2,1.073119164E0,1.093667507E0,1.532263974E0
2.310734061E1,-2.948105335E-2,2.021950245E0,8.609003425E-1,2.197794650E0
2.312413928E1,8.187723160E-2,2.321708202E0,1.058710337E0,2.553017907E0
2.314096182E1,3.222666979E-1,2.119472980E0,-1.575952768E-1,2.149618062E0
2.315776267E1,8.871146441E-1,1.827365875E0,-5.347213149E-1,2.100515489E0
2.317457251E1,1.335941553E0,1.408372879E0,-4.128211141E-1,1.984609602E0
2.319138363E1,1.462200284E0,1.135212898E0,-1.657964110E0,2.485072028E0
2.320818760E1,1.225494266E0,7.638597488E-1,-2.750846386E0,3.106843052E0
2.322500218E1,1.437836885E0,2.123775482E-1,-2.120520115E0,2.570814013E0
2.324180599E1,1.975286603E0,-4.799423218E-1,-2.174759865E0,2.976857784E0
2.325861521E1,2.659584761E0,-1.007246017E0,-3.187475681E0,4.271760393E0
2.327542499E1,3.263146400E0,-1.117056847E0,-3.783037663E0,5.119307999E0
2.329222700E1,4.536144733E0,-1.503579140E0,-8.736792803E-1,4.858052568E0
2.330903898E1,5.621193886E0,-3.158235550E-1,7.368409634E-2,5.630541232E0
2.332585051E1,5.996796131E0,9.339923859E-1,-1.797296286E0,6.329627126E0
2.334265598E1,6.615790367E0,2.184915543E-1,-1.118403435E0,6.713214356E0
2.335945428E1,7.457706451E0,-1.551016808E0,-7.942394018E-1,7.658580474E0
2.337627497E1,5.624410629E0,-1.857584000E0,-2.588064909E0,6.463953374E0
2.339307642E1,3.351809502E0,-9.536256790E-1,-2.682081223E0,4.397452507E0
2.340988801E1,2.630667448E0,-4.771919250E-1,-2.305483818E0,3.530351114E0
2.342669566E1,1.635269046E0,-4.196949005E-1,-1.180688620E0,2.060163653E0
2.344350622E1,5.752927065E-1,-1.123371124E0,-5.098518729E-1,1.361202892E0
2.346031179E1,3.657046556E-1,-3.870484352E0,8.963327408E-1,3.989711944E0
2.347712067E1,1.193435192E-1,-6.829998016E0,2.067986012E0,7.137204069E0
2.349392721E1,-9.150724411E-1,-8.480959892E0,3.619977951E0,9.266513834E0
2.351072304E1,-2.057157278E0,-7.553242683E0,3.010811806E0,8.387392851E0
2.352754782E1,-3.006183863E0,-4.571266174E0,-1.861439347E0,5.779149790E0
2.354434009E1,-4.071293831E0,-1.292060852E0,-2.810199499E0,5.112932224E0
2.356115849E1,-4.470632553E0,1.128930092E0,-1.689107060E0,4.910613122E0
2.357795803E1,-3.964087725E0,2.403399944E0,-1.408607841E0,4.845048899E0
2.359477851E1,-3.235455036E0,3.586431503E0,-1.493494391E0,5.055807128E0
2.361158886E1,-3.129221916E0,3.250176430E0,7.461720109E-1,4.573013153E0
2.362838892E1,-2.341507912E0,2.022871971E0,1.931261420E0,3.647525323E0
2.364520482E1,-1.644738197E0,1.278785706E0,2.768291712E0,3.464663854E0
2.366201181E1,-2.208170414E0,6.877484322E-1,2.777654648E0,3.614468125E0
2.367881185E1,-3.918070793E0,2.165970802E0,1.411360741E0,4.694107732E0
2.369562451E1,-5.819373131E0,2.911854744E0,1.400289536E0,6.656186030E0
2.371243688E1,-6.584192276E0,3.523368359E0,1.243862391E0,7.570528790E0
2.372924289E1,-5.832297325E0,4.086143970E0,7.358765602E-1,7.159174460E0
2.374604677E1,-4.111614704E0,4.251451015E0,-7.121770382E-1,5.957130798E0
2.376285353E1,-2.200498819E0,3.861324310E0,-1.847606540E0,4.813072866E0
2.377967397E1,1.173461437E0,4.998950958E-1,-2.971230984E0,3.233437862E0
2.379646065E1,4.908518791E0,-3.194519043E0,-3.335656404E0,6.739815449E0
2.381326966E1,7.682197094E0,-3.179022789E0,-1.799496651E0,8.506499061E0
2.383009017E1,5.517515182E0,-1.617299080E0,-1.051485419E0,5.845019392E0
2.384690901E1,3.586884499E0,-2.081944466E0,-2.774643660E0,4.989877814E0
2.386370745E1,6.197387218E0,-1.989274979E0,-2.754230499E0,7.067574472E0
2.388051280E1,8.346124649E0,1.106755257E0,-1.050307512E0,8.484447520E0
2.389732268E1,5.247326374E0,1.924525738E0,-6.936222315E-1,5.631993003E0
2.391413786E1,-6.270635128E-1,-3.902122498E0,-3.123216629E-1,3.964506710E0
2.393093742E1,-3.502710819E0,-9.611215591E0,-1.242390513E0,1.030475533E1
2.394774498E1,-5.390410900E0,-1.103636932E1,3.049299479E0,1.265528367E1
2.396455540E1,-8.176451683E0,-4.310575485E0,2.252081633E0,9.513532195E0
2.398136162E1,-8.390105247E0,2.514196873E0,1.930004358E0,8.968833191E0
2.399816774E1,-6.447102070E0,3.763918877E0,3.713225842E0,8.337880819E0
2.401497387E1,-4.543599129E0,9.990377426E-1,1.670609236E0,4.943005631E0
2.403177258E1,-2.728912592E0,-3.014836311E0,1.414272308E0,4.305388261E0
2.404859483E1,-1.629474878E0,-2.162714005E0,2.327199459E0,3.570487021E0
2.406539063E1,-1.003421426E0,-6.323070526E-1,2.446574211E0,2.718895389E0
2.408220707E1,-7.889993191E-1,1.504092216E0,-1.978618801E-1,1.709959837E0
2.409902306E1,-1.328471422E0,2.517289162E0,-2.672073364E0,3.904043687E0
2.411582907E1,-9.642865658E-1,1.872882366E0,-1.431719959E-1,2.111405967E0
2.413263047E1,-4.156255722E-2,1.254107475E0,1.711881042E0,2.122510237E0
2.414945036E1,1.206389666E-1,1.337903023E0,9.974616766E-1,1.673161097E0
2.416625139E1,4.995473623E-1,1.817684174E0,-3.814479709E-2,1.885465022E0
2.418305537E1,1.001109481E0,2.386662006E0,-5.557953715E-1,2.647127541E0
2.419987017E1,1.526128769E0,1.722926140E0,-7.004799843E-1,2.405871092E0
2.421667699E1,1.502313852E0,9.299860001E-1,-5.563574433E-1,1.852391556E0
2.423348695E1,1.676263332E0,4.326896667E-1,-6.650055647E-1,1.854538085E0
2.425029338E1,1.609423757E0,6.332559586E-1,-1.456854820E0,2.261345596E0
2.426709661E1,1.580088615E0,9.053726196E-1,-2.649610996E0,3.215092230E0
2.428391161E1,1.661864519E0,9.610300064E-1,-4.834561348E0,5.201764679E0
2.430071506E1,1.888488173E0,6.931257248E-1,-6.207361698E0,6.525193492E0
2.431752293E1,2.570622444E0,-2.378511429E-1,-3.810258627E0,4.602471480E0
2.433433216E1,2.335516691E0,-8.969831467E-1,1.386571288E0,2.860384051E0
2.435114146E1,1.476594806E0,-1.289367676E0,3.418028116E0,3.940268700E0
2.436794887E1,2.457119942E0,-3.751792908E-1,7.300665379E-1,2.590597433E0
2.438475537E1,4.649287224E0,-1.164579391E-1,-1.349376440E0,4.842545913E0
2.440156431E1,5.902794361E0,-4.304580688E-1,-2.049494028E0,6.263281982E0
2.441836307E1,6.270826817E0,-6.298007965E-1,-1.598729849E0,6.501988552E0
2.443518253E1,6.015108109E0,-6.890773773E-1,-2.240820408E0,6.455821349E0
2.445197871E1,4.422595024E0,-8.872728348E-1,-3.008228779E0,5.421811525E0
2.446879763E1,3.609805584E0,-1.245315552E0,-3.190830231E0,4.976233992E0
2.448560561E1,2.570456743E0,-9.239072800E-1,-2.536496639E0,3.727555195E0
2.450241225E1,8.965090513E-1,7.000923157E-3,-1.424722791E0,1.683333753E0
2.451920314E1,2.051665783E-1,-1.144790649E0,-5.380015969E-1,1.281438517E0
2.453603597E1,1.233737469E-1,-3.797236443E0,6.523380876E-1,3.854837307E0
2.455282433E1,-2.151727676E-1,-6.611680031E0,1.250148296E0,6.732271750E0
2.456964644E1,-1.288227916E0,-9.138016701E0,3.137749195E0,9.747222702E0
2.458645516E1,-2.375081539E0,-7.962892532E0,2.501773834E0,8.677991825E0
2.460326443E1,-3.048078775E0,-4.252626419E0,-2.429969072E0,5.768913708E0
2.462006874E1,-4.377291679E0,-3.019886017E-1,-2.873846054E0,5.245080619E0
2.463687654E1,-4.971995831E0,1.891860485E0,-2.778044224E0,6.001450520E0
2.465368630E1,-4.859824657E0,3.387676716E0,-2.649981022E0,6.489734097E0
2.467049607E1,-4.371113777E0,2.764402390E0,-5.301413536E-1,5.199000488E0
2.468730010E1,-3.867097616E0,2.293575287E0,4.994028211E-1,4.523752286E0
2.470410888E1,-2.716237068E0,2.399900436E0,1.564902812E-1,3.627940893E0
2.472091814E1,-1.078939199E0,1.301744461E0,6.647333503E-1,1.816733020E0
2.473772819E1,-8.347337246E-1,-2.804203033E-1,2.723512173E0,2.862330256E0
2.475453514E1,-2.334408522E0,1.198108673E0,1.705081701E0,3.129254088E0
2.477132937E1,-4.082006931E0,2.813451290E0,9.880161881E-1,5.055142405E0
2.478815360E1,-5.145517349E0,3.598219395E0,1.376381636E0,6.427904636E0
2.480494398E1,-5.136403561E0,4.047772408E0,1.019159913E0,6.618594256E0
2.482176876E1,-4.058980942E0,4.306247711E0,6.271910667E-1,5.950837275E0
2.483857359E1,-2.336484194E0,3.513916969E0,2.275349498E-1,4.225936939E0
2.485538403E1,1.803231239E-2,1.108287811E0,-2.979061604E-1,1.147769627E0
2.487219047E1,2.891267776E0,-1.797057152E0,-1.823443770E0,3.861837768E0
2.488899963E1,5.178855896E0,-1.737338066E0,-2.798274517E0,6.137526556E0
2.490579422E1,6.154571533E0,-4.011507034E-1,-2.904950619E0,6.817507663E0
2.492261472E1,6.427919388E0,-2.156515121E-1,-2.677774429E0,6.966715806E0
2.493942491E1,8.448077202E0,-2.049785614E0,-4.552259922E0,9.812986287E0
2.495623084E1,9.416346550E0,-8.612918854E-1,-1.957058072E0,9.656059360E0
2.497301767E1,6.662360668E0,2.782112598E0,9.059928656E-1,7.276539236E0
2.498984840E1,2.483146191E-1,1.839273453E0,1.612713814E0,2.458746190E0
2.500663428E1,-3.732193708E0,-4.728680611E0,-7.131161690E-1,6.066154042E0
2.502345312E1,-5.392665386E0,-1.257062435E1,-3.430538654E0,1.410212863E1
2.504027005E1,-8.156447411E0,-1.175204468E1,2.271751404E0,1.448444141E1
2.505708650E1,-8.823419571E0,-3.847604752E0,2.010355234E0,9.833530567E0
2.507388660E1,-6.449144840E0,2.911574364E0,2.134453297E0,7.390847402E0
2.509069045E1,-4.507983685E0,3.612339973E0,1.986498594E0,6.108771861E0
2.510751215E1,-3.283685207E0,1.412742615E0,1.626125813E0,3.927176517E0
2.512430932E1,-1.686858892E0,-1.010601044E0,1.975544453E0,2.787397223E0
2.514112472E1,-9.227027893E-1,-7.795114517E-1,2.341154099E0,2.634391970E0
2.515792727E1,-7.429496050E-1,7.552604675E-1,2.095921278E0,2.348463007E0
2.517473877E1,-6.820846796E-1,1.953915596E0,1.899966121E0,2.809430000E0
2.519154399E1,-9.884246588E-1,2.578246593E0,1.797739506E0,3.294875739E0
2.520835325E1,-1.676040888E0,2.055944920E0,-1.731614590E0,3.167729732E0
2.522515983E1,-1.279776692E0,1.018426895E0,-2.326569319E0,2.843931525E0
2.524196875E1,-5.696510077E-1,9.177808762E-1,2.471532822E-1,1.108110442E0
2.525877698E1,-1.568455696E-1,1.086934090E0,1.301598072E0,1.702992598E0
2.527558105E1,2.696851492E-1,1.043166161E0,8.070320487E-1,1.346189603E0
2.529239756E1,7.506144047E-1,1.104168892E0,-1.677319407E-1,1.345639227E0
2.530920188E1,1.500181437E0,1.174573898E0,-1.481336355E0,2.413405391E0
2.532601048E1,2.220727205E0,6.149148941E-1,-2.145423889E0,3.148427117E0
2.534281620E1,1.940451741E0,3.069419861E-1,-2.591585159E0,3.252057807E0
2.535962647E1,1.634908199E0,1.980257034E-1,-3.167012215E0,3.569608573E0
2.537643924E1,1.834882736E0,3.521394730E-1,-3.297679424E0,3.790182904E0
2.539324460E1,2.198659897E0,1.071680069E0,-3.887508392E0,4.592964730E0
2.541004743E1,2.820308924E0,1.301795959E0,-3.330493927E0,4.554229347E0
2.542686934E1,3.168155909E0,8.488464355E-2,-2.499043941E-1,3.179130301E0
2.544367141E1,2.679993391E0,-1.397751808E0,1.132661343E0,3.227847024E0
2.546045542E1,2.349423409E0,-1.241337776E0,-4.999526739E-1,2.703823682E0
2.547728057E1,2.190419197E0,-5.385503769E-1,-2.140899420E0,3.109891171E0
2.549407869E1,2.164334297E0,-3.913202286E-1,-2.227509975E0,3.130379396E0
2.551089508E1,2.616522551E0,-3.189773560E-1,-1.363160133E0,2.967514509E0
2.552771066E1,4.422594547E0,-9.622850418E-1,-2.141557693E0,5.007155319E0
2.554451180E1,6.139005661E0,-1.931513786E0,-3.148140669E0,7.164420820E0
2.556132448E1,6.274064064E0,-1.445772171E0,-2.939143896E0,7.077619931E0
2.557813286E1,4.562892437E0,-6.217126846E-1,-1.765223026E0,4.931787342E0
2.559494500E1,2.087635994E0,7.988166809E-2,-6.179118752E-1,2.178628057E0
2.561174622E1,1.522647142E-1,-1.394014359E-1,-4.413116574E-1,4.872096905E-1
2.562855528E1,-4.708528519E-1,-1.942232132E0,-6.406053901E-1,2.098652741E0
2.564536444E1,-3.341635466E-1,-5.016454697E0,-3.426855803E-1,5.039237681E0
2.566217022E1,-1.301826119E0,-9.155275345E0,3.342869282E0,9.833035794E0
2.567897953E1,-2.456084251E0,-9.571063042E0,5.097280025E0,1.111844689E1
2.569578772E1,-3.326431274E0,-4.970750809E0,1.304482818E0,6.121697808E0
2.571259459E1,-3.858853817E0,-1.213871002E0,-1.056176066E0,4.180878314E0
2.572940256E1,-3.972388983E0,6.761455536E-1,-2.791638374E0,4.902070160E0
2.574621354E1,-4.377647400E0,2.009215832E0,-3.858265877E0,6.171463408E0
2.576301836E1,-3.976074219E0,3.591367722E0,-3.029610872E0,6.155130408E0
2.577982858E1,-2.999208927E0,3.472089291E0,-1.968263984E-1,4.592319551E0
2.579663493E1,-1.609887362E0,2.936860561E0,1.832644463E0,3.817783781E0
2.581345218E1,7.612657547E-2,2.186626911E0,2.405654430E0,3.251815761E0
2.583025279E1,3.180317879E-1,4.217004776E-1,3.007261038E0,3.053292397E0
2.584706683E1,-1.861025095E0,1.551597118E0,1.998275876E0,3.140696499E0
2.586386777E1,-4.512021065E0,2.508199692E0,6.800391674E-1,5.206904364E0
2.588067908E1,-5.931686401E0,2.984452724E0,5.405247211E-2,6.640390297E0
2.589748863E1,-6.211077690E0,3.387926579E0,3.496676981E-1,7.083629019E0
2.591428023E1,-4.669594765E0,3.428988457E0,3.500421345E-1,5.803930272E0
2.593109998E1,-2.735544682E0,3.355845451E0,2.430436611E-1,4.336354877E0
2.594788991E1,-1.512122154E-1,2.375852108E0,-3.285121918E-1,2.403218391E0
2.596471685E1,3.680985451E0,-4.737415314E-1,-8.634410501E-1,3.810461307E0
2.598152547E1,7.629244804E0,-2.421471596E0,-1.768717408E0,8.197393625E0
2.599833248E1,8.904287338E0,-1.359445572E0,-3.416397095E0,9.633597167E0
2.601514371E1,5.956634521E0,-8.140468597E-2,-3.274470329E0,6.797814169E0
2.603194821E1,4.311506748E0,-9.629287720E-1,-7.810952663E-1,4.486249221E0
2.604875663E1,4.792922974E0,-7.849454880E-1,3.017835021E-1,4.866140497E0
2.606556192E1,6.726646423E0,6.670742035E-1,7.269095182E-1,6.798614384E0
2.608237451E1,6.226469994E0,2.356414795E0,4.799433351E-1,6.674725827E0
2.609919485E1,1.832814455E0,2.039094925E0,-3.814219832E-1,2.768140110E0
2.611598888E1,-9.279403687E-1,-2.086215019E0,-1.321655154E0,2.638207494E0
2.613279744E1,-1.875996590E0,-6.737169266E0,-3.111233711E0,7.654318267E0
2.614960689E1,-2.798762321E0,-9.979014397E0,1.294578552E0,1.044460303E1
2.616641424E1,-5.799910069E0,-7.731922150E0,5.416612625E0,1.107976847E1
2.618322329E1,-6.755521774E0,2.693815231E-1,1.124310970E0,6.853737375E0
2.620003117E1,-5.388415337E0,3.485796452E0,9.700559974E-1,6.490516573E0
2.621683911E1,-3.670403004E0,2.432677746E0,2.621203423E0,5.124498669E0
2.623364788E1,-2.201756001E0,-8.063316345E-2,1.900924921E0,2.909939303E0
2.625045412E1,-1.538216352E0,1.326084137E-2,6.493468881E-1,1.669711585E0
2.626726062E1,-1.062452197E0,9.700880051E-1,6.670238972E-1,1.585810924E0
2.628407449E1,-1.549028158E-1,1.488108635E0,9.724019170E-1,1.784384398E0
2.630087756E1,-3.564670086E-1,2.298333645E0,-6.546173096E-1,2.416180890E0
2.631768736E1,-1.262593985E0,2.237851143E0,-9.997127652E-1,2.757090300E0
2.633449820E1,-9.584351778E-1,6.785478592E-1,4.150658846E-1,1.245513900E0
2.635130328E1,-4.037480354E-1,2.028331757E-1,1.217577457E0,1.298710375E0
2.636809814E1,-3.290522099E-2,6.705236435E-1,1.288998604E0,1.453341705E0
2.638492126E1,-3.497743607E-2,1.298854828E0,8.803290129E-1,1.569466934E0
2.640172313E1,-2.544927597E-2,1.978790283E0,5.573760271E-1,2.055949096E0
2.641853601E1,2.830972672E-1,2.001529217E0,2.385664582E-1,2.035479605E0
2.643533109E1,8.965395689E-1,1.472893715E0,-3.007553220E-1,1.750329357E0
2.645215211E1,1.176319838E0,5.472059250E-1,-1.162322044E0,1.741882665E0
2.646896126E1,1.062886119E0,1.364011765E-1,-2.048005819E0,2.311419481E0
2.648576526E1,1.000423074E0,-2.163982391E-1,-2.210468531E0,2.435948614E0
2.650257801E1,1.171218872E0,-6.385908127E-1,-2.359764576E0,2.710726974E0
2.651938084E1,1.265183687E0,-5.155267715E-1,-2.753416538E0,3.073720912E0
2.653619820E1,1.747896314E0,-2.043695450E-1,-2.184429884E0,2.805110043E0
2.655299587E1,2.117236137E0,-1.919822693E-1,-8.087810278E-1,2.274570905E0
2.656980206E1,2.684564590E0,-1.216306686E-1,4.768136740E-1,2.729291545E0
2.658660745E1,3.772387981E0,3.272924423E-1,-1.953816414E-2,3.786609719E0
2.660342665E1,4.513112068E0,1.435394287E-1,-7.381213903E-1,4.575325922E0
2.662024238E1,4.818158627E0,-5.243787766E-1,-9.038947225E-1,4.930177616E0
2.663703911E1,4.955425262E0,-7.163066864E-1,-1.568810463E0,5.246951598E0
2.665385008E1,4.766527176E0,-1.128182411E0,-2.567617178E0,5.530391925E0
2.667065828E1,4.455891609E0,-1.132843018E0,-2.741818905E0,5.353118179E0
2.668745370E1,4.080788612E0,-9.385213852E-1,-1.753242016E0,4.539550160E0
2.670427749E1,2.839917421E0,-6.030187607E-1,-2.125536203E-1,2.911003543E0
2.672107743E1,1.123402119E0,-2.724132538E-1,-8.367639780E-2,1.158983624E0
2.673788973E1,1.085034966E0,-2.503383636E0,5.874162912E-2,2.729043988E0
2.675469804E1,1.147292495E0,-4.839694023E0,1.098637342E0,5.093714000E0
2.677150838E1,-1.908271313E-1,-6.221192360E0,3.235590219E0,7.014890836E0
2.678831459E1,-1.670483232E0,-6.213802338E0,5.262631416E0,8.312469136E0
2.680512451E1,-2.723321915E0,-4.401296616E0,1.875340581E0,5.504979241E0
2.682191832E1,-3.110592604E0,-1.772174835E0,-1.889480591E0,4.048027531E0
2.683873886E1,-3.819242477E0,-6.767940521E-2,-2.579566479E0,4.609268578E0
2.685553864E1,-4.819083214E0,1.582885265E0,-1.307592750E0,5.238214160E0
2.687235320E1,-4.299000740E0,3.352665424E0,-8.370421529E-1,5.515651582E0
2.688915158E1,-3.360409260E0,3.871844292E0,-5.962100029E-1,5.161297800E0
2.690597169E1,-2.273204088E0,2.811173439E0,1.057637572E0,3.766795742E0
2.692275764E1,-8.778831959E-1,1.050994873E0,2.695002079E0,3.022963006E0
2.693958697E1,2.395634651E-1,3.361940384E-1,3.066034079E0,3.093700382E0
2.695639441E1,-1.347181797E0,1.072695732E0,1.302609444E0,2.159251326E0
2.697320429E1,-4.041180134E0,1.706147671E0,3.054238856E-1,4.397199165E0
2.698999533E1,-5.288444996E0,2.024575710E0,3.597274423E-1,5.674148492E0
2.700681843E1,-5.289527893E0,2.496140480E0,4.808829725E-1,5.868651554E0
2.702362981E1,-4.416671276E0,2.901257515E0,9.030001760E-1,5.360941116E0
2.704043724E1,-3.065036297E0,2.886114597E0,5.347615480E-1,4.243827857E0
2.705724559E1,-1.561601400E0,2.239593506E0,-2.476849556E-1,2.741482417E0
2.707404948E1,8.539724350E-1,-1.990060806E-1,-1.728355765E0,1.938062432E0
2.709086019E1,3.693817616E0,-2.798995972E0,-3.005415916E0,5.523693679E0
2.710765766E1,5.283352852E0,-2.498091698E0,-3.097855806E0,6.614453121E0
2.712449023E1,6.763204098E0,-3.508405685E-1,-7.775882483E-1,6.816792666E0
2.714128212E1,7.978491306E0,1.457547665E0,3.003249407E0,8.648715264E0
2.715809341E1,9.564152718E0,1.732252121E0,9.244482517E-1,9.763622237E0
2.717490083E1,1.117234802E1,2.112371445E0,-1.551322937E0,1.147562967E1
2.719170935E1,7.851155281E0,2.509926796E0,5.651441216E-1,8.261946481E0
2.720851554E1,1.874163389E0,4.548616409E-1,1.026208162E0,2.184603102E0
2.722532581E1,-1.669105530E0,-6.083668709E0,-1.500645876E0,6.484510488E0
2.724213455E1,-2.686161041E0,-1.373267460E1,-3.041203022E0,1.431959247E1
2.725894135E1,-5.452387810E0,-1.132002163E1,6.009772778E0,1.392798590E1
2.727575419E1,-7.878294468E0,-4.265613556E-1,6.264688015E0,1.007451211E1
2.729255633E1,-7.053968430E0,5.629040241E0,1.423541784E0,9.136248456E0
2.730936640E1,-5.700852394E0,5.661601067E0,2.383276701E0,8.380540107E0
2.732617252E1,-4.502572536E0,2.237629890E0,2.737452984E0,5.724840243E0
2.734298169E1,-3.232294559E0,-1.125424385E0,3.070261002E0,4.597913743E0
2.735978562E1,-1.372474790E0,-2.281066895E0,3.750417233E0,4.599193695E0
2.737658789E1,-1.120947838E0,4.584512711E-1,-5.336859822E-1,1.323450925E0
2.739340175E1,-1.761599183E0,1.656767845E0,-1.359238625E0,2.774101839E0
2.741021973E1,-1.160382390E0,2.268394947E0,-2.662339211E-1,2.561832045E0
2.742701641E1,6.414699554E-2,1.533182144E0,1.006034374E0,1.834902582E0
2.744383068E1,1.404991150E-1,9.128046036E-1,1.635352850E0,1.878119056E0
2.746063233E1,9.911048412E-2,1.542159081E0,6.136354208E-1,1.662716436E0
2.747745541E1,1.853796244E-1,1.783285618E0,7.334133387E-1,1.937103076E0
2.749425050E1,5.894273520E-1,7.975854874E-1,4.095091224E-1,1.072970146E0
2.751106605E1,9.390224218E-1,-5.054273605E-1,-3.739842772E-2,1.067060714E0
2.752786920E1,1.139840484E0,-7.511672974E-1,-5.282981992E-1,1.463758048E0
2.754468018E1,1.116573453E0,-1.027994156E-1,-1.039840817E0,1.529239328E0
2.756149130E1,1.014452696E0,4.628934860E-1,-1.430161476E0,1.813490143E0
2.757829464E1,1.147979856E0,9.170684814E-1,-1.641122818E0,2.202761097E0
2.759510245E1,1.438740015E0,8.420419693E-1,-1.554898977E0,2.279631185E0
2.761191025E1,1.456856012E0,5.161390305E-1,-9.344598055E-1,1.806112972E0
2.762872161E1,1.513373017E0,1.137266159E-1,-9.910761714E-1,1.812584787E0
2.764552595E1,1.967620373E0,2.099189758E-1,-1.182328820E0,2.305102459E0
2.766233476E1,3.116463184E0,-1.210422516E-1,-1.255325079E0,3.361968926E0
2.767915586E1,4.433769226E0,-8.208837509E-1,-1.822492361E0,4.863500600E0
2.769595234E1,5.012293816E0,-7.217302322E-1,-2.674802065E0,5.727001825E0
2.771275828E1,4.582263470E0,-2.521095276E-1,-3.035819054E0,5.502444461E0
2.772956863E1,3.874129057E0,-1.784278870E0,-2.564198971E0,4.976710098E0
2.774637604E1,3.855064154E0,-2.733676910E0,-1.454307437E0,4.944645508E0
2.776318118E1,3.576621056E0,-1.905467987E0,-1.689741135E0,4.390700574E0
2.777999046E1,3.698556423E0,-1.160402298E0,-4.430844784E-1,3.901560837E0
2.779680113E1,3.448898315E0,-4.921989441E-1,1.000953078E0,3.624785022E0
