"Time (s)","Linear Acceleration x (m/s^2)","Linear Acceleration y (m/s^2)","Linear Acceleration z (m/s^2)","Absolute acceleration (m/s^2)"
2.410649900E-2,2.761811972E0,2.388900995E0,2.837626934E0,4.624562676E0
2.902872000E-2,2.761811972E0,2.388900995E0,2.837626934E0,4.624562676E0
3.395079700E-2,2.761811972E0,2.388900995E0,2.837626934E0,4.624562676E0
3.887295100E-2,2.761811972E0,2.388900995E0,2.837626934E0,4.624562676E0
4.379510400E-2,2.761811972E0,2.388900995E0,2.837626934E0,4.624562676E0
4.871725800E-2,2.761811972E0,2.388900995E0,2.837626934E0,4.624562676E0
5.363938300E-2,2.761811972E0,2.388900995E0,2.837626934E0,4.624562676E0
5.856153700E-2,2.761811972E0,2.388900995E0,2.837626934E0,4.624562676E0
6.348369000E-2,2.761811972E0,2.388900995E0,2.837626934E0,4.624562676E0
6.840583400E-2,2.761811972E0,2.388900995E0,2.837626934E0,4.624562676E0
7.332806400E-2,2.761811972E0,2.388900995E0,2.837626934E0,4.624562676E0
7.825022000E-2,2.761811972E0,2.388900995E0,2.837626934E0,4.624562676E0
8.317232500E-2,2.761811972E0,2.388900995E0,2.837626934E0,4.624562676E0
8.809470700E-2,2.761811972E0,2.388900995E0,2.837626934E0,4.624562676E0
9.301686300E-2,2.761811972E0,2.388900995E0,2.837626934E0,4.624562676E0
9.793896400E-2,2.761811972E0,2.388900995E0,2.837626934E0,4.624562676E0
1.028611180E-1,1.243589997E0,-2.526560128E-1,-5.885310173E-1,1.398828045E0
1.077832150E-1,2.538639069E0,6.281489730E-1,-1.918974042E0,3.243720214E0
1.127054440E-1,3.880772114E0,1.473538995E0,-3.232652903E0,5.261345280E0
1.176276000E-1,4.644925117E0,2.585131884E0,-4.492837906E0,6.960160102E0
1.225497040E-1,4.710844994E0,3.221906900E0,-4.843996048E0,7.485789360E0
1.274719330E-1,4.069551945E0,3.087424040E0,-5.245748043E0,7.321974649E0
1.323940120E-1,4.230511189E0,3.248665094E0,-5.343027115E0,7.549767451E0
1.373162320E-1,5.059941769E0,3.243504047E0,-5.082673073E0,7.871270213E0
1.422383880E-1,5.627346039E0,3.687874079E0,-4.631387234E0,8.168058911E0
1.471605370E-1,5.960580826E0,3.459244013E0,-4.096646786E0,8.017319241E0
1.520829190E-1,5.870941162E0,3.572813988E0,-4.105903149E0,8.005709874E0
1.570050750E-1,6.175893784E0,3.790931940E0,-4.714629173E0,8.645262127E0
1.619272000E-1,7.593712807E0,3.660538912E0,-6.041934013E0,1.037154694E1
1.668493540E-1,8.748979568E0,4.050490856E0,-6.318075180E0,1.152689002E1
1.717712770E-1,9.000592232E0,4.111206055E0,-5.582888126E0,1.136139585E1
1.766936600E-1,9.336010933E0,3.996064901E0,-4.129148006E0,1.096264102E1
1.816157700E-1,9.689070702E0,3.983511925E0,-2.460742950E0,1.076112049E1
1.865379990E-1,9.886136055E0,4.000084877E0,-7.728130221E-1,1.069268933E1
1.914600450E-1,1.010480690E1,3.780706882E0,-1.220149994E-1,1.078961328E1
1.963821970E-1,1.031732655E1,3.742008924E0,-3.586379886E-1,1.098082324E1
2.013043510E-1,1.034240723E1,4.099103928E0,-1.125635982E0,1.118190935E1
2.062265620E-1,9.140855789E0,5.245711803E0,-1.900792003E0,1.070914316E1
2.111487180E-1,9.049438477E0,6.155899048E0,-2.033574104E0,1.113206421E1
2.160708620E-1,1.005365562E1,6.520683765E0,-9.574090242E-1,1.202131192E1
2.209932450E-1,1.025695229E1,7.337228775E0,-1.114953041E0,1.266029686E1
2.259154010E-1,1.053486633E1,7.523752213E0,-2.874234915E0,1.326090051E1
2.308375400E-1,1.193467617E1,6.752007961E0,-7.295704842E0,1.553233453E1
2.357594630E-1,1.335036755E1,6.146331787E0,-1.445264053E1,2.061282432E1
2.406816010E-1,1.364084625E1,6.043456078E0,-1.995317268E1,2.491435626E1
2.456039850E-1,1.253001213E1,5.516048908E0,-2.003681183E1,2.426729956E1
2.505261410E-1,1.058256435E1,5.318181992E0,-1.362679291E1,1.805445133E1
2.554482950E-1,8.411474228E0,4.297327042E0,-1.135958672E1,1.477362950E1
2.603704490E-1,5.987347126E0,3.421401024E0,-1.131625843E1,1.325186838E1
2.652926780E-1,4.463326931E0,2.364742041E0,-7.182973862E0,8.781139203E0
2.702147570E-1,3.574495077E0,1.059944034E0,-5.702353954E0,6.813027009E0
2.751369850E-1,4.697147846E0,-4.354400039E-1,-8.899450302E0,1.007238907E1
2.800591550E-1,4.734124184E0,-1.565189958E-1,-1.132186794E1,1.227277979E1
2.849813090E-1,6.539009094E0,7.593899965E-2,-1.179732895E1,1.348856468E1
2.899036920E-1,7.369194984E0,2.385849953E-1,-9.643815994E0,1.213940462E1
2.948258670E-1,7.120673180E0,5.287349820E-1,-7.143289089E0,1.010000625E1
2.997477900E-1,6.157616138E0,5.919610262E-1,-5.640544891E0,8.371523221E0
3.046702010E-1,5.182582855E0,2.112720013E-1,-4.486433029E0,6.857979457E0
3.095921260E-1,4.273614883E0,-1.821420044E-1,-4.243200779E0,6.025090268E0
3.145142640E-1,3.645126104E0,-4.605439901E-1,-3.309395075E0,4.944809485E0
3.194366490E-1,3.247406006E0,-6.154739857E-1,-1.884770989E0,3.804841084E0
3.243588050E-1,2.812602043E0,-6.468309760E-1,-1.853259951E-1,2.891965817E0
3.292809590E-1,2.251972914E0,-6.340860128E-1,2.725362062E0,3.591802535E0
3.342031120E-1,1.551344037E0,-3.603459895E-1,5.033739090E0,5.279682451E0
3.391252800E-1,1.177587032E0,-4.417259991E-1,5.525134087E0,5.666475073E0
3.440475090E-1,1.130493045E0,-8.154659867E-1,4.899589062E0,5.094013376E0
3.489696650E-1,7.088999748E-1,-1.075517058E0,3.638526917E0,3.859812721E0
3.538918140E-1,-1.117699966E-2,-1.442563057E0,2.504585028E0,2.890338952E0
3.588139680E-1,1.831043959E0,-2.542572021E0,3.906567097E0,5.007859917E0
3.637361220E-1,2.800209999E0,-2.701612949E0,4.499173164E0,5.948314697E0
3.686582800E-1,2.751099110E0,-2.477041960E0,3.691652060E0,5.228056820E0
3.735804340E-1,2.481822014E0,-1.541345954E0,2.055115938E0,3.571930763E0
3.785025930E-1,2.584157944E0,-3.101519942E-1,-4.428890049E-1,2.640116893E0
3.834247470E-1,2.501729012E0,9.939389825E-1,-1.290632010E0,2.985346501E0
3.883471300E-1,2.145884037E0,1.860553980E0,-7.498649955E-1,2.937477987E0
3.932692850E-1,1.828184962E0,2.486535072E0,-2.300055981E0,3.849074491E0
3.981914390E-1,1.407091975E0,2.784305096E0,-2.531829119E0,4.017763231E0
4.031135930E-1,8.304150105E-1,2.980458021E0,-3.443032026E0,4.628951138E0
4.080358220E-1,-3.434500098E-2,2.980137110E0,-4.848762035E0,5.691475208E0
4.129579780E-1,-5.286319852E-1,2.987160921E0,-5.990055084E0,6.714413009E0
4.178801320E-1,-6.674649715E-1,3.109471083E0,-7.486170769E0,8.133699815E0
4.228022810E-1,-2.499189973E-1,3.167696953E0,-8.509273529E0,9.083198747E0
4.277246630E-1,1.299445987E0,3.115174055E0,-8.354480743E0,9.010561456E0
4.326468140E-1,3.003655910E0,2.752473116E0,-6.832467079E0,7.954914423E0
4.375687370E-1,4.881610870E0,2.378875971E0,-3.435638905E0,6.425946643E0
4.424909080E-1,2.679663897E0,2.312978029E0,-6.542465210E0,7.438703986E0
4.474130620E-1,2.223155975E0,2.152713060E0,-5.790959835E0,6.565958561E0
4.523354460E-1,2.584120035E0,2.562015057E0,-4.591330051E0,5.858490347E0
4.572576170E-1,2.952753067E0,3.464849949E0,-3.132927895E0,5.526225931E0
4.621798460E-1,2.417541027E0,4.750741959E0,-2.583463907E0,5.923541131E0
4.671019250E-1,2.206681013E0,5.709032059E0,-2.570324898E0,6.638452999E0
4.720241440E-1,2.576742887E0,6.859971046E0,-3.666465998E0,8.194008761E0
4.769463000E-1,3.269160986E0,7.754611969E0,-4.650798798E0,9.615162495E0
4.818684530E-1,3.206990957E0,8.346294403E0,-5.938140869E0,1.073344950E1
4.867905970E-1,3.123986959E0,8.425688744E0,-7.370065212E0,1.162193558E1
4.917126740E-1,2.884886980E0,9.379522324E0,-8.593198776E0,1.304381375E1
4.966348260E-1,2.633136034E0,1.055569553E1,-8.869581223E0,1.403658023E1
5.015570570E-1,1.630344033E0,1.117675209E1,-8.157191277E0,1.393260846E1
5.064792130E-1,6.567080021E-1,9.881177902E0,-6.264197826E0,1.171789727E1
5.114013670E-1,-6.902819872E-1,9.366401672E0,-4.447398186E0,1.039159854E1
5.163235210E-1,-2.304636002E0,6.778178215E0,5.934410095E-1,7.183816482E0
5.212456790E-1,-2.757632017E0,5.617484093E0,1.675343990E0,6.478228103E0
5.261680620E-1,-1.385728002E0,3.939004898E0,4.864467144E0,6.410853475E0
5.310899870E-1,-3.579779863E-1,1.138353944E0,3.524802923E0,3.721321484E0
5.360123560E-1,9.658520222E-1,5.634880066E-1,4.875986099E0,5.002562274E0
5.409345120E-1,2.121315956E0,-1.066715002E0,2.781002998E0,3.656752652E0
5.458567400E-1,3.859932899E0,-6.216340065E-1,7.073649764E-1,3.973144351E0
5.507788720E-1,4.141475201E0,5.962299705E-1,-9.740049839E-1,4.296043846E0
5.557009490E-1,5.199663162E0,-1.796980023E0,-3.780009031E0,6.674885953E0
5.606231050E-1,7.130949974E0,-1.195834994E0,-4.204208851E0,8.363960840E0
5.655452590E-1,5.833375931E0,1.358258009E0,-3.791534901E0,7.088644191E0
5.704674950E-1,5.264844894E0,3.106470108E-1,-5.117216110E0,7.348536864E0
5.753896500E-1,6.324584007E0,-2.981100045E-2,-4.718984127E0,7.891138242E0
5.803118040E-1,5.337227821E0,1.720733047E0,-4.552215099E0,7.222851608E0
5.852339640E-1,3.877511978E0,2.992786884E0,-4.856757164E0,6.897823035E0
5.901561180E-1,2.482120991E0,4.283532143E0,-5.185279846E0,7.169149135E0
5.950782720E-1,1.271468997E0,3.276906967E0,-4.473555088E0,5.689239651E0
6.000006600E-1,1.839743018E0,8.511000313E-3,-3.024776936E0,3.540339294E0
6.049228150E-1,2.105699062E0,1.149279997E-1,-2.155019045E0,3.015175628E0
6.098450440E-1,1.042745948E0,9.722750187E-1,-2.280837059E0,2.689768673E0
6.147671950E-1,1.055493951E0,1.181807995E0,-2.382847071E0,2.861590079E0
6.196892720E-1,1.458902001E0,1.152932048E0,-2.518757105E0,3.130780208E0
6.246114380E-1,1.927497029E0,1.283177018E0,-2.439923048E0,3.363779502E0
6.295335920E-1,2.435580015E0,1.381212950E0,-2.898396015E0,4.029950209E0
6.344558220E-1,2.914707899E0,1.614806056E0,-3.643655062E0,4.937544222E0
6.393779780E-1,3.224431038E0,2.376780987E0,-4.542137146E0,6.056158290E0
6.443001320E-1,3.054207087E0,3.221836090E0,-5.149456978E0,6.798920200E0
6.492222090E-1,2.799029112E0,3.611113071E0,-5.394719124E0,7.069490506E0
6.541444380E-1,2.950299025E0,3.519575119E0,-5.112033844E0,6.872013051E0
6.590665940E-1,3.421087027E0,3.727015018E0,-4.613366127E0,6.846723626E0
6.639889910E-1,3.280092955E0,4.041176796E0,-4.214172840E0,6.696967404E0
6.689111470E-1,2.908747911E0,4.149582863E0,-3.954966068E0,6.428188621E0
6.738333010E-1,2.766294956E0,3.996901035E0,-3.676419973E0,6.094560648E0
6.787555100E-1,3.038599014E0,4.259522915E0,-3.583746910E0,6.341913067E0
6.836775890E-1,3.641604900E0,4.114443779E0,-3.812594891E0,6.687736064E0
6.885997220E-1,3.872937918E0,1.617301941E0,-3.986525059E0,5.788583223E0
6.935218760E-1,2.439021111E0,9.543359876E-1,-2.902266979E0,3.909313849E0
6.984440240E-1,2.291711092E0,1.674824953E0,-2.119889021E0,3.542726043E0
7.033661780E-1,2.361152887E0,1.966809034E0,-2.276889086E0,3.824605162E0
7.082883320E-1,2.407279968E0,1.985442996E0,-1.966575980E0,3.688414540E0
7.132105580E-1,2.442205906E0,1.958433986E0,-1.764420033E0,3.593467881E0
7.181327140E-1,2.508030891E0,2.043843031E0,-1.725993991E0,3.666956305E0
7.230548680E-1,2.580696106E0,2.093385935E0,-1.852156997E0,3.804305798E0
7.279772500E-1,2.752309084E0,2.116499901E0,-2.175098896E0,4.097051663E0
7.328994060E-1,3.338479042E0,2.026079893E0,-2.478946924E0,4.625539958E0
7.378215650E-1,4.119473934E0,2.139695883E0,-2.539772987E0,5.291390251E0
7.427437190E-1,4.762254238E0,2.309133053E0,-2.500504017E0,5.853518704E0
7.476658730E-1,4.785610199E0,2.904719114E0,-2.965827942E0,6.335265858E0
7.525880220E-1,5.144663811E0,3.198396921E0,-3.687848091E0,7.092075305E0
7.575101750E-1,4.328184128E0,3.096467972E0,-4.371757030E0,6.887201992E0
7.624323290E-1,4.047851086E0,2.771223068E0,-3.717381001E0,6.154973372E0
7.673545490E-1,4.337269783E0,2.538064003E0,-3.453326941E0,6.097470378E0
7.722767050E-1,5.007798195E0,2.305892944E0,-3.639034986E0,6.605888333E0
7.771988590E-1,5.607121944E0,1.766378999E0,-3.841690063E0,7.022712710E0
7.821209550E-1,5.918809891E0,2.223485947E0,-3.467989922E0,7.211321264E0
7.870431830E-1,5.828086853E0,3.209345102E0,-4.488656998E0,8.025866557E0
7.919655680E-1,6.041399956E0,7.630900145E-1,-4.459578037E0,7.547758347E0
7.968877130E-1,6.248295784E0,2.478040010E-1,-3.244086981E0,7.044622585E0
8.018098670E-1,6.248166084E0,-4.686070085E-1,-3.049125910E0,6.968237995E0
8.067320210E-1,6.060030937E0,-1.108414054E0,-2.727968931E0,6.737534502E0
8.116541560E-1,6.027823925E0,-1.360965014E0,-2.630188942E0,6.716009299E0
8.165763090E-1,5.603140831E0,-1.137799025E0,-2.127916098E0,6.100639369E0
8.214982320E-1,5.410808086E0,-1.226704001E0,-1.641059041E0,5.785734321E0
8.264206150E-1,5.457018852E0,-1.440948009E0,-1.687126040E0,5.890821691E0
8.313427560E-1,5.649131775E0,-1.534314036E0,-1.817320943E0,6.129393508E0
8.362649100E-1,6.735566139E0,-1.606127977E0,-1.184654951E0,7.025019975E0
8.411870640E-1,6.285184860E0,-1.596338034E0,-2.112730980E0,6.820225512E0
8.461092520E-1,5.548515797E0,-1.507254958E0,-2.811975956E0,6.400394818E0
8.510314050E-1,5.078956127E0,-1.409016967E0,-3.017175913E0,6.073258980E0
8.559536340E-1,4.542112827E0,-1.540851951E0,-3.220616102E0,5.777316137E0
8.608757900E-1,5.319740772E0,-1.787564039E0,-2.547179937E0,6.163047356E0
8.657979440E-1,4.845051765E0,-2.359502077E0,-2.854566097E0,6.098387022E0
8.707203270E-1,4.735079765E0,-2.692940950E0,-1.745028019E0,5.719968019E0
8.756422180E-1,5.197533131E0,-2.953975916E0,-1.825949997E-1,5.981109035E0
8.805643690E-1,5.193741798E0,-3.127290010E0,-2.164829969E-1,6.066445546E0
8.854865180E-1,5.336363792E0,-3.450118065E0,-2.868619859E-1,6.361004872E0
8.904086720E-1,5.038104057E0,-3.510216951E0,-2.685759962E-1,6.146238574E0
8.953308260E-1,4.190306187E0,-3.256886005E0,-6.559270024E-1,5.347542671E0
9.002532260E-1,3.309267998E0,-2.932274103E0,-1.557512045E0,4.687785177E0
9.051753820E-1,3.059791088E0,-2.203120947E0,-2.607372046E0,4.584152309E0
9.100975400E-1,3.046533108E0,-1.106307030E0,-2.460860014E0,4.069534522E0
9.150196940E-1,2.872013092E0,-2.971459925E-1,-1.991539001E0,3.507560767E0
9.199419230E-1,2.699737072E0,3.921419978E-1,-1.472509980E0,3.100103425E0
9.248640740E-1,2.697474957E0,8.317390084E-1,-9.557750225E-1,2.980212545E0
9.297862280E-1,2.814842939E0,1.224431038E0,-5.388259888E-1,3.116553479E0
9.347086100E-1,2.688545942E0,1.510568976E0,-7.105399668E-2,3.084663124E0
9.396305110E-1,2.543900013E0,1.826702952E0,4.472439885E-1,3.163589439E0
9.445526630E-1,2.713836908E0,2.057910919E0,5.783140063E-1,3.454613612E0
9.494747970E-1,2.904644966E0,2.163777113E0,3.941720128E-1,3.643386522E0
9.543969510E-1,3.148181915E0,2.338541985E0,1.316069961E-1,3.923920028E0
9.593191250E-1,3.447750092E0,2.429354906E0,-3.888820112E-1,4.235560786E0
9.642412790E-1,3.799870014E0,2.472646952E0,-4.190779924E-1,4.552869583E0
9.691636630E-1,3.901187897E0,2.458204031E0,-9.899070263E-1,4.716137189E0
9.740855880E-1,4.056108952E0,2.329301119E0,-6.973090172E-1,4.729048889E0
9.790079710E-1,4.203145027E0,2.122226000E0,-5.973709822E-1,4.746274687E0
9.839302040E-1,4.542836189E0,1.887279987E0,-1.848420054E-1,4.922738360E0
9.888523340E-1,4.806188107E0,1.541430950E0,8.783899993E-2,5.048085695E0
9.937744880E-1,4.839385986E0,1.092798948E0,1.418559998E-1,4.963263986E0
9.986966410E-1,4.928831100E0,6.945329905E-1,5.275660157E-1,5.005404878E0
1.003618785E0,4.933391094E0,3.538390100E-1,5.134999752E-1,4.972648385E0
1.008540939E0,4.907700062E0,9.707500041E-2,7.208250165E-1,4.961303474E0
1.013463103E0,4.715535164E0,-1.066780016E-1,8.250420094E-1,4.788355291E0
1.018385257E0,3.608731985E0,-2.242870033E-1,6.275439858E-1,3.669749672E0
1.023307415E0,2.678693056E0,-9.904000163E-2,5.605139732E-1,2.738499831E0
1.028229569E0,1.930791020E0,3.346899897E-2,3.710179925E-1,1.966399880E0
1.033151722E0,1.472669005E0,1.911769956E-1,4.326539934E-1,1.546768283E0
1.038073875E0,1.145153999E0,3.710019886E-1,4.208619893E-1,1.275203894E0
1.042996259E0,1.118541002E0,5.861260295E-1,4.790320098E-1,1.350610737E0
1.047918415E0,9.371259809E-1,7.655500174E-1,3.906880021E-1,1.271577386E0
1.052840630E0,8.230770230E-1,9.809759855E-1,5.125560164E-1,1.379305383E0
1.057762785E0,7.664899826E-1,1.239290953E0,4.751279950E-1,1.532675951E0
1.062684939E0,7.100700140E-1,1.507102966E0,5.292630196E-1,1.748049805E0
1.067607078E0,6.522570252E-1,1.691390991E0,4.304510057E-1,1.863204439E0
1.072529155E0,6.365029812E-1,1.957677960E0,6.191539764E-1,2.149648969E0
1.077451413E0,4.388029873E-1,2.167304993E0,4.348089993E-1,2.253623273E0
1.082373569E0,1.747969985E-1,2.531199932E0,9.000070095E-1,2.692125499E0
1.087295966E0,-3.165650070E-1,2.859600067E0,8.696969748E-1,3.005644486E0
1.092218122E0,-7.325569987E-1,3.171549082E0,1.146612048E0,3.451098742E0
1.097140045E0,-1.118131042E0,3.421546936E0,1.214118004E0,3.798852852E0
1.102062196E0,-1.383877993E0,3.627588987E0,1.194455981E0,4.062172479E0
1.106984581E0,-1.601995945E0,3.810707092E0,1.051362038E0,4.265353641E0
1.111906737E0,-1.855461955E0,4.026963234E0,8.229619861E-1,4.509594038E0
1.116828876E0,-2.011876106E0,4.159856796E0,5.997620225E-1,4.659588878E0
1.121751105E0,-2.131542921E0,4.285748959E0,4.601509869E-1,4.808623326E0
1.126673179E0,-2.211761951E0,4.325867176E0,3.816030025E-1,4.873462692E0
1.131595102E0,-2.224008083E0,4.280213833E0,3.813450038E-1,4.838581034E0
1.136517480E0,-2.176100016E0,4.201179981E0,4.480400085E-1,4.752479812E0
1.141439636E0,-2.216011047E0,4.182408810E0,4.576910138E-1,4.755284374E0
1.146361790E0,-2.227150917E0,4.175561905E0,4.579580128E-1,4.754497236E0
1.151284018E0,-2.025474072E0,4.159772873E0,4.719440043E-1,4.650697444E0
1.156206174E0,-1.811321974E0,4.085227966E0,4.618439972E-1,4.492579961E0
1.161128323E0,-1.698842049E0,4.062559128E0,4.516859949E-1,4.426564267E0
1.166050477E0,-1.686560035E0,4.004058838E0,3.945280015E-1,4.362639599E0
1.170972631E0,-1.833019972E0,3.951370001E0,4.044800103E-1,4.374573257E0
1.175895028E0,-1.820044994E0,3.938779116E0,4.755240083E-1,4.364936172E0
1.180817184E0,-1.665374041E0,3.860147953E0,4.940789938E-1,4.233004485E0
1.185739338E0,-1.534165025E0,3.806541920E0,5.505329967E-1,4.140834492E0
1.190661482E0,-1.386046052E0,3.780067921E0,5.759170055E-1,4.067151035E0
1.195583636E0,-1.154718041E0,3.785013914E0,6.011859775E-1,4.002640212E0
1.200505805E0,-8.564100266E-1,3.721093893E0,5.813999772E-1,3.862383180E0
1.205427959E0,-6.745709777E-1,3.749330997E0,5.905590057E-1,3.855034224E0
1.210350117E0,-5.723299980E-1,3.788860083E0,5.480809808E-1,3.870841654E0
1.215272346E0,-3.606530130E-1,3.782161951E0,5.158619881E-1,3.834179601E0
1.220194502E0,-2.292039990E-1,3.677846909E0,4.580729902E-1,3.713343940E0
1.225116575E0,-1.894939989E-1,3.629441023E0,3.797490001E-1,3.654170141E0
1.230038804E0,-2.526040077E-1,3.575244904E0,2.408230007E-1,3.592238943E0
1.234960960E0,-2.751300037E-1,3.510284901E0,8.925600350E-2,3.522181602E0
1.239883356E0,-2.020359933E-1,3.348438978E0,-6.122399867E-2,3.355087258E0
1.244805512E0,-1.478800029E-1,3.159363031E0,-2.366379946E-1,3.171662151E0
1.249727666E0,-1.225719973E-1,3.009880066E0,-4.227460027E-1,3.041893504E0
1.254649791E0,-4.236660004E-1,2.875092983E0,-4.867880046E-1,2.946627751E0
1.259571945E0,-2.537449896E-1,2.865756989E0,-7.772240043E-1,2.980105164E0
1.264493873E0,-2.223819941E-1,2.711251020E0,-1.065953970E0,2.921744977E0
1.269416255E0,-3.203240037E-1,2.684488058E0,-1.265910983E0,2.985232691E0
1.274338411E0,-3.833169937E-1,2.662712097E0,-1.475636959E0,3.068301169E0
1.279260550E0,-3.642919958E-1,2.578761101E0,-1.621232033E0,3.067753376E0
1.284182704E0,-2.719469965E-1,2.515439987E0,-1.760691047E0,3.082438395E0
1.289104863E0,-5.464199930E-2,2.386071920E0,-1.892951965E0,3.046242292E0
1.294027092E0,1.606059968E-1,2.262590885E0,-1.963744044E0,3.000233736E0
1.298949171E0,4.859910011E-1,2.091762066E0,-2.131907940E0,3.026001860E0
1.303871630E0,8.122649789E-1,1.855260968E0,-2.323709011E0,3.082432680E0
1.308793786E0,1.146834970E0,1.646628022E0,-2.554642916E0,3.248509615E0
1.313715940E0,1.367845058E0,1.497141004E0,-2.692899942E0,3.371074219E0
1.318638104E0,1.648141980E0,1.274554968E0,-3.340322971E0,3.936828661E0
1.323560027E0,2.386929989E0,1.070920944E0,-3.782988071E0,4.599489666E0
1.328482174E0,2.907267094E0,9.207040071E-1,-3.898422956E0,4.949504962E0
1.333404328E0,3.198189020E0,7.192190289E-1,-3.731659889E0,4.966988479E0
1.338326510E0,3.506783962E0,6.933979988E-1,-3.814485073E0,5.227679305E0
1.343248895E0,3.909653902E0,8.375750184E-1,-4.064651012E0,5.701606212E0
1.348170820E0,4.244005203E0,1.119874954E0,-4.368933201E0,6.193002292E0
1.353093222E0,4.713166237E0,1.213924050E0,-4.631641865E0,6.718605059E0
1.358015378E0,5.010701180E0,1.535560966E0,-4.960133076E0,7.215815541E0
1.362937531E0,5.352260113E0,1.877825022E0,-5.113585949E0,7.636862994E0
1.367859760E0,5.614250183E0,2.052104950E0,-5.131064892E0,7.877738684E0
1.372782145E0,6.053691864E0,2.215059042E0,-5.229361057E0,8.300595690E0
1.377704051E0,7.034249783E0,2.224190950E0,-5.680982113E0,9.311350770E0
1.382626203E0,7.617809772E0,2.280395985E0,-5.961586952E0,9.938397787E0
1.387548357E0,7.785287857E0,2.725735903E0,-6.199964046E0,1.031890970E1
1.392470525E0,7.803581238E0,3.177241087E0,-5.870036125E0,1.026879083E1
1.397392678E0,7.504243851E0,3.616333008E0,-5.897872925E0,1.020668630E1
1.402315082E0,7.253967762E0,3.584686041E0,-5.935962200E0,1.003522145E1
1.407237238E0,7.167843819E0,3.086200953E0,-5.744129181E0,9.690079534E0
1.412159161E0,6.746716022E0,2.342883110E0,-5.224166870E0,8.848683396E0
1.417081318E0,5.700861931E0,1.395920038E0,-3.784966946E0,6.983866715E0
1.422003779E0,3.967792034E0,8.245429993E-1,-2.879909039E0,4.971631609E0
1.426925935E0,2.537429094E0,6.629030108E-1,-1.645473957E0,3.096057389E0
1.431848118E0,1.439475060E0,5.169039965E-1,-8.422139883E-1,1.746024797E0
1.436770272E0,1.010558009E0,4.344010055E-1,-1.964219958E-1,1.117368929E0
1.441692426E0,7.131749988E-1,4.886189997E-1,3.200959861E-1,9.218614571E-1
1.446614561E0,5.378419757E-1,2.806659937E-1,1.010792017E0,1.178875690E0
1.451536638E0,4.914889932E-1,-1.630999963E-3,1.420258999E0,1.502897107E0
1.456458880E0,6.690369844E-1,-5.838800073E-1,1.856137991E0,2.057613810E0
1.461381036E0,1.242848992E0,-1.341732025E0,2.121215105E0,2.800798452E0
1.466303190E0,6.648280025E-1,-1.695644021E0,2.281593084E0,2.919395814E0
1.471225363E0,9.696779847E-1,-2.269071102E0,2.467108965E0,3.489353193E0
1.476147517E0,1.071130991E0,-3.194397926E0,2.257582903E0,4.055635619E0
1.481069671E0,1.470497966E0,-3.964040995E0,2.917187929E0,5.136727625E0
1.485991825E0,2.296283007E0,-4.561841011E0,3.680389881E0,6.295123409E0
1.490913978E0,3.183007956E0,-5.291739941E0,3.569317102E0,7.132606524E0
1.495836443E0,4.662270069E0,-6.136650085E0,5.266040802E0,9.334153534E0
1.500758599E0,5.350732803E0,-6.665019035E0,5.692883968E0,1.026945705E1
1.505680753E0,4.680281162E0,-6.905028820E0,6.717638016E0,1.071032751E1
1.510602891E0,4.085385799E0,-6.886428833E0,6.917088985E0,1.058108686E1
1.515524968E0,3.287020922E0,-6.695699215E0,7.214671135E0,1.037730091E1
1.520447202E0,2.539815903E0,-6.312458992E0,7.377620220E0,1.003628833E1
1.525369358E0,1.408082962E0,-5.593000889E0,7.203534126E0,9.227960797E0
1.530291459E0,3.220520020E-1,-4.964221954E0,6.930755138E0,8.531270942E0
1.535213611E0,-1.249459982E-1,-4.469309807E0,6.818130970E0,8.153358300E0
1.540135852E0,-4.319419861E-1,-3.859908104E0,6.707064152E0,7.750495080E0
1.545058007E0,-1.076161981E0,-3.287487984E0,6.472280979E0,7.338673104E0
1.549980161E0,-1.512810946E0,-2.728982925E0,6.070557117E0,6.825511591E0
1.554902310E0,-1.478032947E0,-2.293837070E0,5.574122906E0,6.206215922E0
1.559824693E0,-1.291813016E0,-1.978494048E0,5.210470200E0,5.721207850E0
1.564746849E0,-1.072720051E0,-1.700456977E0,4.604423046E0,5.024240622E0
1.569669003E0,-8.680089712E-1,-1.365664005E0,4.087575912E0,4.396220489E0
1.574591231E0,-6.005200148E-1,-1.167489052E0,3.357475996E0,3.605038147E0
1.579513315E0,-3.536239862E-1,-7.940499783E-1,3.097181082E0,3.216845651E0
1.584435467E0,-4.290210009E-1,-3.886159956E-1,2.861370087E0,2.919335572E0
1.589357621E0,-7.069740295E-1,-1.044510007E-1,1.917880058E0,2.046701299E0
1.594279775E0,-6.202769876E-1,1.540839970E-1,1.693336964E0,1.809937980E0
1.599201929E0,-8.298540115E-1,4.782240093E-1,1.245192051E0,1.570942115E0
1.604124159E0,-1.065258026E0,7.987020016E-1,8.237130046E-1,1.565631714E0
1.609046294E0,-1.283411026E0,1.055945992E0,7.341719866E-1,1.816913401E0
1.613968448E0,-1.418843985E0,1.337946057E0,6.029700041E-1,2.041271841E0
1.618890598E0,-1.304811001E0,1.723724961E0,2.048359960E-1,2.171570233E0
1.623812981E0,-1.208997011E0,2.068470955E0,1.584080011E-1,2.401112026E0
1.628735137E0,-1.617238045E0,2.296539068E0,-2.512049973E-1,2.820045130E0
1.633657246E0,-1.912857056E0,2.536542892E0,-5.177929997E-1,3.218878928E0
1.638579400E0,-2.162790060E0,2.754293919E0,-1.042399049E0,3.653818771E0
1.643501554E0,-2.172761917E0,2.939166069E0,-1.319008946E0,3.885791571E0
1.648423708E0,-2.464818954E0,3.185900927E0,-1.619668961E0,4.341500286E0
1.653345862E0,-2.976713896E0,3.369065046E0,-1.907876968E0,4.883791502E0
1.658268003E0,-3.731829882E0,3.475774050E0,-2.430350065E0,5.649261983E0
1.663190157E0,-4.208749771E0,3.485200882E0,-2.612837076E0,6.056989137E0
1.668112310E0,-4.202326775E0,3.482930899E0,-2.231955051E0,5.896777197E0
1.673034448E0,-3.987123013E0,3.284732103E0,-1.648488045E0,5.422557306E0
1.677956678E0,-3.840452909E0,3.080435038E0,-1.045274973E0,5.032967151E0
1.682878757E0,-3.493119001E0,3.083612919E0,-8.267160058E-1,4.732230800E0
1.687801001E0,-2.568067074E0,3.162394047E0,-7.320860028E-1,4.139040290E0
1.692723157E0,-1.905032992E0,3.094314098E0,-5.064479709E-1,3.668844503E0
1.697645539E0,-2.058459044E0,3.043230057E0,-4.057990015E-1,3.696373309E0
1.702567690E0,-1.704053998E0,3.019845009E0,-3.328660131E-1,3.483398296E0
1.707489613E0,-1.480921984E0,2.934377909E0,-4.294260144E-1,3.314831871E0
1.712411770E0,-1.468963027E0,2.836498022E0,-2.597019970E-1,3.204842981E0
1.717334232E0,-1.370057940E0,2.782552958E0,-1.703689992E-1,3.106233301E0
1.722256080E0,-1.289608002E0,2.658027887E0,5.420500040E-2,2.954850120E0
1.727178475E0,-1.300356984E0,2.583273888E0,2.617999911E-1,2.903923467E0
1.732100631E0,-1.323179960E0,2.548907042E0,3.090589941E-1,2.888468413E0
1.737022860E0,-1.332213044E0,2.595227003E0,1.433670074E-1,2.920710340E0
1.741945016E0,-1.471488953E0,2.583120108E0,5.423900113E-2,2.973336694E0
1.746867170E0,-9.296680093E-1,2.624731064E0,-1.515929997E-1,2.788633393E0
1.751789311E0,-6.113669872E-1,2.665215015E0,-2.267059982E-1,2.743817829E0
1.756711464E0,-4.398190081E-1,2.692744017E0,-3.745979965E-1,2.754021561E0
1.761633618E0,2.765900083E-2,2.819720984E0,-5.021920204E-1,2.864225597E0
1.766556000E0,6.263740063E-1,2.917296886E0,-6.119700074E-1,3.045894419E0
1.771477925E0,1.093652964E0,2.997972012E0,-4.546720088E-1,3.223451508E0
1.776400322E0,1.626330018E0,3.174657106E0,-4.371300042E-1,3.593672176E0
1.781322247E0,1.930451989E0,3.270613909E0,-4.779689908E-1,3.827795002E0
1.786244386E0,2.056549072E0,3.324400902E0,-8.001919985E-1,3.990155721E0
1.791166539E0,2.141020060E0,3.316904068E0,-1.093227983E0,4.096457850E0
1.796088924E0,2.237520933E0,3.160490990E0,-1.238711953E0,4.065662372E0
1.801011079E0,2.698798895E0,3.081413984E0,-1.457368970E0,4.347706514E0
1.805933233E0,2.571983099E0,3.209002018E0,-2.520282030E0,4.823340391E0
1.810855462E0,2.696726084E0,3.121371031E0,-2.685142994E0,4.921918486E0
1.815777622E0,3.227838039E0,2.945066929E0,-2.456764936E0,5.012788802E0
1.820699776E0,3.583364010E0,2.869128942E0,-2.264067888E0,5.118437449E0
1.825621930E0,3.638607979E0,2.890932083E0,-2.403588057E0,5.232035156E0
1.830544079E0,3.766721964E0,2.940661907E0,-2.448661089E0,5.369509096E0
1.835466233E0,3.849965096E0,2.972374916E0,-2.250003099E0,5.359081808E0
1.840388387E0,4.053269863E0,2.858886957E0,-1.766435027E0,5.265218317E0
1.845310541E0,4.268705845E0,2.729250908E0,-1.267737031E0,5.222816988E0
1.850232694E0,4.498723984E0,2.619385958E0,-7.177640200E-1,5.254986724E0
1.855155087E0,4.525288105E0,2.543561935E0,-6.174400076E-2,5.191507688E0
1.860077012E0,4.372217178E0,2.542387009E0,7.193830013E-1,5.108573838E0
1.864999164E0,3.922548056E0,2.496239901E0,1.380650997E0,4.850133407E0
1.869921563E0,3.342740059E0,2.630811930E0,2.581964016E0,4.976104972E0
1.874843719E0,2.243186951E0,2.417355061E0,5.072684765E0,6.050423449E0
1.879765872E0,1.928040981E0,1.981325984E0,4.996053219E0,5.709951177E0
1.884688031E0,2.346066952E0,1.547191978E0,3.863281012E0,4.777318634E0
1.889610260E0,2.931051016E0,1.412519962E-1,1.890333056E0,3.490611873E0
1.894532416E0,4.247072220E0,-1.126045942E0,-8.085500002E-1,4.467589396E0
1.899454464E0,5.261306763E0,-1.745537043E0,-2.870891094E0,6.242616766E0
1.904376616E0,6.000242233E0,-2.253851891E0,-4.245907784E0,7.688334547E0
1.909298765E0,6.724796772E0,-3.110515118E0,-5.031719208E0,8.956360539E0
1.914220995E0,7.704992771E0,-4.322195053E0,-3.888501883E0,9.652395069E0
1.919143074E0,7.994723797E0,-5.193056107E0,-3.080452919E0,1.001861420E1
1.924065318E0,8.070547104E0,-5.770773888E0,-2.040824890E0,1.012919188E1
1.928987474E0,7.738937855E0,-6.143705845E0,-1.079604983E0,9.939910842E0
1.933909628E0,7.107647896E0,-5.901924133E0,-2.318650037E-1,9.241489516E0
1.938831782E0,6.141627789E0,-5.316705227E0,1.264840066E-1,8.124219628E0
1.943754164E0,5.159379959E0,-4.590491772E0,5.482349992E-1,6.927653130E0
1.948676310E0,4.171688080E0,-3.682840109E0,1.127804041E0,5.677872371E0
1.953598464E0,3.361813068E0,-2.725939989E0,1.801242948E0,4.687964600E0
1.958520693E0,2.282299042E0,-1.752267957E0,2.143141985E0,3.587811237E0
1.963442758E0,1.126685023E0,-9.050909877E-1,2.734335899E0,3.092766019E0
1.968364910E0,4.569489956E-1,-1.951860040E-1,2.945743084E0,2.987357072E0
1.973287058E0,2.307699993E-2,1.731940061E-1,3.447966099E0,3.452390321E0
1.978209212E0,-1.287139952E-1,4.437249899E-1,3.613132954E0,3.642552525E0
1.983131443E0,-1.795389950E-1,5.304650068E-1,3.769824028E0,3.811194114E0
1.988053507E0,7.633899897E-2,4.017409980E-1,3.828888893E0,3.850664050E0
1.992975736E0,3.980030119E-1,1.227440014E-1,3.854757071E0,3.877192871E0
1.997897892E0,7.498710155E-1,-2.080650032E-1,3.936373949E0,4.012559962E0
2.002820060E0,9.341040254E-1,-5.061269999E-1,3.946856976E0,4.087345698E0
2.007742443E0,8.149399757E-1,-6.749330163E-1,3.980422974E0,4.118668327E0
2.012664599E0,4.409169853E-1,-7.449880242E-1,3.916750908E0,4.011278178E0
2.017586748E0,1.921190023E-1,-8.915309906E-1,3.775176048E0,3.883772832E0
2.022508902E0,2.683010101E-1,-1.134742975E0,3.725056887E0,3.903290389E0
2.027430820E0,4.086410105E-1,-1.219642043E0,4.257356167E0,4.447425741E0
2.032353202E0,5.390459895E-1,-1.096794009E0,4.696846008E0,4.853235014E0
2.037275391E0,1.239539981E0,-1.084095955E0,5.004511833E0,5.268478157E0
2.042197545E0,1.132495999E0,-1.017498016E0,4.445496082E0,4.698966357E0
2.047119699E0,1.034795046E0,-9.132649899E-1,4.775718212E0,4.971150588E0
2.052041957E0,2.666519880E-1,-7.065809965E-1,4.403631210E0,4.467922092E0
2.056964113E0,-1.952839941E-1,-8.405910134E-1,4.196556091E0,4.284368345E0
2.061886266E0,-5.664309859E-1,-9.754229784E-1,3.735961914E0,3.902525525E0
2.066808429E0,-5.424929857E-1,-9.576889873E-1,3.939505100E0,4.090374955E0
2.071730583E0,-5.658450127E-1,-1.100479960E0,4.241281986E0,4.418111543E0
2.076652737E0,-4.446389973E-1,-1.360370040E0,3.644769907E0,3.915693828E0
2.081575106E0,-4.873270094E-1,-1.413696051E0,3.454025030E0,3.763816288E0
2.086497031E0,-7.710469961E-1,-1.375921011E0,3.107400894E0,3.484768632E0
2.091419163E0,-1.554522038E0,-1.105792046E0,2.141531944E0,2.868008696E0
2.096341316E0,-2.625528097E0,-6.927719712E-1,7.155240178E-1,2.808078598E0
2.101263470E0,-3.542341948E0,-2.218549997E-1,-3.867189884E-1,3.570288180E0
2.106185855E0,-4.179015160E0,8.094199747E-2,-1.202664971E0,4.349381835E0
2.111108016E0,-4.532337189E0,2.209260017E-1,-1.936908960E0,4.933812422E0
2.116030170E0,-4.701954842E0,2.686350048E-1,-2.662043095E0,5.409899956E0
2.120952323E0,-4.501017094E0,3.677510023E-1,-3.239343882E0,5.557674375E0
2.125874257E0,-4.220963001E0,5.211169720E-1,-4.353197098E0,6.085919530E0
2.130796639E0,-3.999624014E0,7.246279716E-1,-5.353850842E0,6.722038142E0
2.135718857E0,-3.771534920E0,9.165689945E-1,-6.379860878E0,7.467743916E0
2.140641011E0,-3.502599955E0,1.147619009E0,-7.081903934E0,7.983645732E0
2.145563165E0,-3.262973070E0,1.358654022E0,-6.978957176E0,7.822964737E0
2.150485301E0,-3.131375074E0,1.529816985E0,-6.966067791E0,7.789220136E0
2.155407454E0,-3.051703930E0,1.654948950E0,-6.694277763E0,7.540895681E0
2.160329608E0,-2.952529907E0,1.779700994E0,-6.285822868E0,7.169123908E0
2.165251762E0,-2.994831085E0,1.968816996E0,-5.803077221E0,6.820627451E0
2.170173921E0,-3.078795910E0,2.231703997E0,-5.360201836E0,6.572005075E0
2.175096075E0,-3.018704891E0,2.489073038E0,-4.770044804E0,6.169391480E0
2.180018229E0,-2.896898985E0,2.702334881E0,-4.244694233E0,5.806209320E0
2.184940387E0,-2.948700905E0,2.902374029E0,-3.732163906E0,5.572042664E0
2.189862540E0,-2.818135977E0,3.033821106E0,-3.022559881E0,5.126580646E0
2.194784923E0,-2.644771099E0,3.168155909E0,-2.573684931E0,4.863731094E0
2.199707083E0,-2.397823095E0,3.235771894E0,-2.052918911E0,4.520426020E0
2.204629312E0,-2.156341076E0,3.289172888E0,-1.667950988E0,4.272063391E0
2.209551468E0,-1.923243999E0,3.278363943E0,-1.349707961E0,4.033391774E0
2.214473536E0,-1.583181024E0,3.216337919E0,-9.556339979E-1,3.710057695E0
2.219395688E0,-1.305093050E0,3.148839951E0,-6.126869917E-1,3.463213284E0
2.224317836E0,-1.168766022E0,3.083583117E0,-3.227260113E-1,3.313404734E0
2.229239990E0,-1.134531975E0,2.992288113E0,-7.623700052E-2,3.201056549E0
2.234162115E0,-1.215579987E0,2.922715902E0,-1.727999933E-2,3.165470194E0
2.239084269E0,-1.209674954E0,2.971313953E0,-4.731899872E-2,3.208466798E0
2.244006500E0,-1.133527994E0,3.005779028E0,-1.920340061E-1,3.218147035E0
2.248928645E0,-1.033190966E0,3.083328009E0,-1.793809980E-1,3.256773361E0
2.253850799E0,-9.175840020E-1,3.155893087E0,-3.695710003E-1,3.307295618E0
2.258772953E0,-8.582850099E-1,3.233742952E0,-3.361729980E-1,3.362552442E0
2.263695322E0,-8.091580272E-1,3.290725946E0,-4.123780131E-1,3.413747148E0
2.268617478E0,-7.512459755E-1,3.369930983E0,-4.048570096E-1,3.476307602E0
2.273539631E0,-6.419690251E-1,3.466283083E0,-3.358410001E-1,3.541190734E0
2.278461799E0,-6.716700196E-1,3.535094976E0,-3.214010000E-1,3.612663243E0
2.283383953E0,-5.534229875E-1,3.516402960E0,-3.004220128E-1,3.572340992E0
2.288306117E0,-5.391190052E-1,3.565777063E0,-1.695369929E-1,3.610285052E0
2.293228271E0,-3.251009881E-1,3.541106939E0,-3.212589920E-1,3.570481249E0
2.298150439E0,-3.351089954E-1,3.581887007E0,-2.273489982E-1,3.604705277E0
2.303072668E0,-3.235490024E-1,3.698719025E0,-3.235960007E-1,3.726918399E0
2.307994823E0,-3.764980137E-1,3.819756985E0,-4.301649928E-1,3.862296739E0
2.312916992E0,-5.235790014E-1,4.039789200E0,-4.818269908E-1,4.101973793E0
2.317839069E0,-6.410089731E-1,4.276461124E0,-4.537959993E-1,4.347981493E0
2.322761298E0,-7.510730028E-1,4.538207054E0,-3.901439905E-1,4.616453861E0
2.327683683E0,-8.619319797E-1,4.788578033E0,-4.970100150E-2,4.865786320E0
2.332605838E0,-9.467149973E-1,5.039552212E0,-8.045300096E-2,5.128335838E0
2.337527992E0,-7.768449783E-1,5.141605854E0,2.625400014E-2,5.200027707E0
2.342449910E0,-5.800439715E-1,5.319775105E0,1.368339956E-1,5.353053494E0
2.347372293E0,-6.412900239E-2,5.397219181E0,2.277639955E-1,5.402403526E0
2.352294540E0,4.100379944E-1,5.396385193E0,1.607909948E-1,5.414328957E0
2.357216694E0,1.010887027E0,5.318165779E0,-3.259109855E-1,5.423190740E0
2.362138771E0,1.859120011E0,5.027193069E0,-6.393970251E-1,5.397946455E0
2.367060937E0,2.606436968E0,4.577587128E0,-1.094089031E0,5.380041672E0
2.371983168E0,3.510737896E0,3.794965029E0,-1.567914009E0,5.402350829E0
2.376905324E0,4.403659821E0,2.502952099E0,-2.559567928E0,5.675242462E0
2.381827478E0,5.209936142E0,1.144209027E0,-3.851401091E0,6.579205063E0
2.386749555E0,5.661142826E0,2.171400003E-2,-4.230470181E0,7.067240448E0
2.391671784E0,6.228857040E0,-1.201568961E0,-3.905463934E0,7.449501764E0
2.396593935E0,6.822083950E0,-2.699707985E0,-3.219779968E0,8.012255342E0
2.401516088E0,7.513318062E0,-4.193144798E0,-2.167498112E0,8.873018633E0
2.406438242E0,8.198519707E0,-5.704135895E0,-1.200306058E0,1.005950428E1
2.411360386E0,8.702241898E0,-7.034702778E0,-1.535010040E-1,1.119105088E1
2.416282540E0,8.916666031E0,-8.054279327E0,9.419900179E-1,1.205262186E1
2.421204704E0,9.839443207E0,-8.925912857E0,1.827885985E0,1.340998621E1
2.426126858E0,9.131817818E0,-9.144739151E0,3.704583883E0,1.344396863E1
2.431049012E0,7.826179028E0,-9.051843643E0,4.176695824E0,1.267397884E1
2.435971169E0,5.605790138E0,-8.105550766E0,4.795102119E0,1.095982849E1
2.440893552E0,3.647150993E0,-6.925487995E0,4.881046772E0,9.224354283E0
2.445815708E0,1.929623961E0,-5.826846123E0,4.898918152E0,7.853342182E0
2.450737862E0,3.177630007E-1,-4.789364815E0,4.695015907E0,6.714325210E0
2.455660091E0,-9.766499996E-1,-3.998863935E0,4.356121063E0,5.993375402E0
2.460582246E0,-1.911663055E0,-3.382330894E0,4.119813919E0,5.662815964E0
2.465504396E0,-2.426214933E0,-2.899820089E0,3.781982899E0,5.347791142E0
2.470426473E0,-2.156071901E0,-2.504236937E0,3.571533918E0,4.865768512E0
2.475348611E0,-1.145123005E0,-2.241302013E0,3.692528963E0,4.468725943E0
2.480270842E0,-3.862380087E-1,-2.110083103E0,3.669644117E0,4.250637417E0
2.485192984E0,2.588450015E-1,-2.005763054E0,3.477334023E0,4.022677972E0
2.490115138E0,1.010542035E0,-1.887094975E0,3.401288986E0,4.018841800E0
2.495037291E0,1.628345966E0,-1.757222056E0,3.377916098E0,4.141214448E0
2.499959449E0,1.876346946E0,-1.473458052E0,3.372289896E0,4.130871050E0
2.504881832E0,2.154977083E0,-9.127759933E-1,3.301044941E0,4.046477968E0
2.509803988E0,2.504143953E0,-3.748280108E-1,3.300627947E0,4.159973296E0
2.514726142E0,2.855043888E0,1.414700039E-2,3.258400917E0,4.332280263E0
2.519648370E0,2.981172085E0,4.172700047E-1,2.703938007E0,4.046329448E0
2.524570449E0,3.132189035E0,5.964140296E-1,2.474069118E0,4.035757160E0
2.529492659E0,3.381609917E0,8.173170090E-1,2.452449083E0,4.256500820E0
2.534414738E0,2.634704113E0,1.282291055E0,1.766566992E0,3.421504793E0
2.539336861E0,1.682754993E0,1.986251950E0,1.020197034E0,2.796008435E0
2.544259015E0,6.495149732E-1,2.777394056E0,3.488160074E-1,2.873579658E0
2.549181160E0,3.272149861E-1,3.234432936E0,-1.676580012E-1,3.255262703E0
2.554103313E0,7.728400230E-1,3.319068909E0,1.478009969E-1,3.411062189E0
2.559025544E0,1.876835942E0,3.213562012E0,2.951830029E-1,3.733179203E0
2.563947637E0,1.555078983E0,3.217787981E0,3.470369875E-1,3.590663561E0
2.568869866E0,9.733449817E-1,3.199790955E0,6.226140261E-1,3.402015701E0
2.573792022E0,1.437029988E-1,2.997273922E0,1.036759973E0,3.174771292E0
2.578714390E0,-7.555919886E-1,2.932466030E0,2.969399989E-1,3.042770059E0
2.583636546E0,-1.349171042E0,2.752096891E0,1.446589977E-1,3.068424030E0
2.588558700E0,-1.681651950E0,2.617480993E0,5.686099827E-2,3.111654416E0
2.593480839E0,-2.009170055E0,2.490966082E0,4.021050036E-1,3.225424742E0
2.598402762E0,-2.300614119E0,2.649396896E0,-3.693670034E-1,3.528251865E0
2.603325135E0,-2.874485970E0,2.826653957E0,-9.113739729E-1,4.133188201E0
2.608247291E0,-3.228441954E0,2.962348938E0,-1.175469041E0,4.536526881E0
2.613169440E0,-3.583241940E0,3.111042023E0,-1.324331045E0,4.926668041E0
2.618091594E0,-3.743108988E0,3.104531050E0,-1.491626978E0,5.086642210E0
2.623013748E0,-3.732477903E0,3.062077999E0,-1.368859053E0,5.018115989E0
2.627935906E0,-3.731232882E0,3.012168884E0,-1.404381037E0,4.996753576E0
2.632858135E0,-3.701291084E0,2.940249920E0,-1.320736051E0,4.908051446E0
2.637780214E0,-3.597457886E0,2.889136076E0,-1.362123013E0,4.810840842E0
2.642702678E0,-3.434221983E0,2.784519911E0,-1.313256979E0,4.612166048E0
2.647624834E0,-3.252440929E0,2.724436998E0,-1.344127059E0,4.450573728E0
2.652546988E0,-3.028213978E0,2.701684952E0,-1.416020989E0,4.298173672E0
2.657469128E0,-2.761626005E0,2.629997015E0,-1.421010017E0,4.069733647E0
2.662391051E0,-2.438328028E0,2.530927896E0,-1.348914027E0,3.764386888E0
2.667313414E0,-2.199491978E0,2.469288111E0,-1.282168984E0,3.546703545E0
2.672235569E0,-1.963747978E0,2.375623941E0,-1.323367000E0,3.354280168E0
2.677157507E0,-1.661733985E0,2.199632883E0,-1.075880051E0,2.959267230E0
2.682079659E0,-1.288622975E0,2.053922892E0,-1.175233006E0,2.694498290E0
2.687002044E0,-7.866969705E-1,1.895689011E0,-1.093137026E0,2.325398354E0
2.691924229E0,-5.460129976E-1,1.780240059E0,-1.244711041E0,2.239796963E0
2.696846383E0,-3.104589880E-1,1.726647019E0,-1.145187020E0,2.095029361E0
2.701768551E0,4.851860106E-1,1.617746949E0,-1.313611984E0,2.139646490E0
2.706690779E0,1.008417010E0,1.528445959E0,-1.261013985E0,2.223332676E0
2.711612935E0,1.199605942E0,1.461354017E0,-1.444754004E0,2.379479799E0
2.716535084E0,1.401201963E0,1.517066956E0,-1.321743011E0,2.451910210E0
2.721457238E0,1.486376047E0,1.585484028E0,-1.351282954E0,2.559109020E0
2.726379272E0,1.522233963E0,1.640306950E0,-1.291373014E0,2.583688718E0
2.731301501E0,1.242836952E0,1.755555034E0,-1.333577037E0,2.530819014E0
2.736223641E0,1.409209967E0,1.926051974E0,-1.269325972E0,2.703097734E0
2.741145795E0,1.274263978E0,2.053577900E0,-1.351045966E0,2.768800477E0
2.746067978E0,1.302055955E0,2.120944023E0,-1.406154037E0,2.858500032E0
2.750990132E0,1.554623961E0,2.123147011E0,-1.439730048E0,2.999571887E0
2.755912286E0,1.775724053E0,2.112812042E0,-1.413465023E0,3.100815056E0
2.760834669E0,1.941313982E0,2.123384953E0,-1.540061951E0,3.263319544E0
2.765756824E0,2.046381950E0,2.092401981E0,-1.601711988E0,3.336361256E0
2.770679053E0,2.128906012E0,2.105722904E0,-1.665933013E0,3.426608025E0
2.775601224E0,2.222206116E0,2.029051065E0,-1.699586034E0,3.455986246E0
2.780523378E0,2.323687077E0,1.948374987E0,-1.707749009E0,3.480243296E0
2.785445532E0,2.485927105E0,1.865993977E0,-1.821972966E0,3.602964416E0
2.790367609E0,2.608304977E0,1.784255981E0,-1.785902023E0,3.629913263E0
2.795289761E0,2.650095940E0,1.722288966E0,-1.750360966E0,3.612900674E0
2.800211909E0,2.690244913E0,1.828475952E0,-1.492588043E0,3.578905009E0
2.805134063E0,2.513256073E0,1.810731053E0,-1.215806961E0,3.327670297E0
2.810056303E0,2.140549898E0,1.688135028E0,-9.169669747E-1,2.876209688E0
2.814978459E0,1.852303982E0,1.669306993E0,-2.583569884E-1,2.506863421E0
2.819900536E0,1.364076018E0,1.573107958E0,5.283970237E-1,2.148156290E0
2.824822751E0,1.433395028E0,1.340953946E0,1.283045053E0,2.344991130E0
2.829744906E0,1.560806036E0,9.212279916E-1,1.795385957E0,2.551114899E0
2.834667289E0,2.081027985E0,2.081529945E-1,1.697119951E0,2.693366160E0
2.839589445E0,2.853935003E0,-5.532140136E-1,6.481239796E-1,2.978431708E0
2.844511599E0,3.250174999E0,-1.383201003E0,-1.184692979E0,3.725638200E0
2.849433762E0,3.902523041E0,-1.690497994E0,-2.328952074E0,4.848864539E0
2.854355916E0,4.295551777E0,-1.804268003E0,-2.843745947E0,5.458391622E0
2.859277844E0,4.500167847E0,-1.817286015E0,-2.320810080E0,5.379609515E0
2.864200226E0,4.874376774E0,-1.740442038E0,-1.464401960E0,5.378955337E0
2.869122372E0,4.729510784E0,-1.949097037E0,2.154400013E-2,5.115438951E0
2.874044526E0,4.459101200E0,-1.606341958E0,1.099231958E0,4.865411483E0
2.878966680E0,3.754877090E0,-1.235442996E0,1.568274021E0,4.252635038E0
2.883888825E0,3.145212889E0,-9.018359780E-1,2.256591082E0,3.974654143E0
2.888810979E0,2.625152111E0,-7.372469902E-1,2.763345003E0,3.882142751E0
2.893733212E0,2.410917044E0,-6.138889790E-1,3.137382984E0,4.004067015E0
2.898655368E0,2.513433933E0,-6.188889742E-1,3.494379997E0,4.348685464E0
2.903577751E0,3.027626038E0,-8.269330263E-1,3.373563051E0,4.607739719E0
2.908499897E0,3.921133995E0,-9.540849924E-1,2.839770079E0,4.934558144E0
2.913422051E0,4.602286816E0,-1.299769044E0,1.748512983E0,5.091929021E0
2.918343974E0,4.998536110E0,-1.695222974E0,1.094856977E0,5.390533923E0
2.923266168E0,5.015082836E0,-1.955590963E0,8.173639774E-1,5.444582238E0
2.928188322E0,4.847899914E0,-2.024425030E0,6.880580187E-1,5.298476584E0
2.933110726E0,4.611102104E0,-1.993309975E0,4.773600101E-1,5.046129195E0
2.938032882E0,4.483953953E0,-1.963142991E0,4.162389934E-1,4.912537873E0
2.942955036E0,4.461547852E0,-1.924456000E0,2.858960032E-1,4.867306920E0
2.947877250E0,4.448122025E0,-1.949020982E0,1.723670065E-1,4.859442634E0
2.952799329E0,4.477016926E0,-1.998641968E0,8.281700313E-2,4.903581235E0
2.957721481E0,4.502704144E0,-2.094850063E0,1.204819977E-1,4.967620890E0
2.962643702E0,4.637524128E0,-2.189878941E0,5.826500058E-2,5.128897993E0
2.967565858E0,4.546265125E0,-2.207086086E0,2.617100067E-2,5.053755089E0
2.972488012E0,4.247933865E0,-2.108270884E0,2.614989877E-1,4.749539973E0
2.977410390E0,3.778078079E0,-1.845875978E0,4.245789945E-1,4.226274887E0
2.982332546E0,3.069389105E0,-1.429708958E0,6.232010126E-1,3.442905268E0
2.987254728E0,2.202876091E0,-9.415249825E-1,7.423359752E-1,2.508026129E0
2.992176882E0,1.506109953E0,-4.128560126E-1,9.424949884E-1,1.824037851E0
2.997098825E0,1.096351981E0,2.215900086E-2,9.508659840E-1,1.451421650E0
3.002021208E0,5.452389717E-1,3.613190055E-1,9.541199803E-1,1.156798123E0
3.006943364E0,-7.301999629E-2,6.477010250E-1,8.707119823E-1,1.087652469E0
3.011865531E0,-4.998529851E-1,8.190190196E-1,7.343869805E-1,1.208291934E0
3.016787454E0,-6.562799811E-1,9.302849770E-1,3.753600121E-1,1.198761315E0
3.021709837E0,-8.986979723E-1,9.482460022E-1,-3.356200084E-2,1.306887499E0
3.026632012E0,-1.035554051E0,9.399409890E-1,-5.382720232E-1,1.498531957E0
3.031554166E0,-1.100209951E0,8.743730187E-1,-8.852930069E-1,1.660943654E0
3.036476395E0,-1.138090014E0,8.066729903E-1,-1.127742052E0,1.793815021E0
3.041398540E0,-1.177628994E0,7.251549959E-1,-1.601315975E0,2.115862157E0
3.046320617E0,-1.283225060E0,5.223609805E-1,-1.789662004E0,2.263275863E0
3.051242773E0,-1.342185974E0,3.948059976E-1,-1.695567966E0,2.198246049E0
3.056164927E0,-1.337466955E0,2.949019969E-1,-1.479714036E0,2.016268502E0
3.061087158E0,-1.211272955E0,1.463750005E-1,-1.331300974E0,1.805815632E0
3.066009237E0,-1.128430009E0,4.061999917E-2,-1.161929965E0,1.620211564E0
3.070931476E0,-1.162848949E0,-7.942099869E-2,-7.521330118E-1,1.387165975E0
3.075853631E0,-1.094143033E0,-2.326810062E-1,-4.378499985E-1,1.201250202E0
3.080775785E0,-1.532557011E0,-1.913270056E-1,-3.606899977E-1,1.586012071E0
3.085697920E0,-1.798177004E0,-6.712329984E-1,-2.561200038E-2,1.919544282E0
3.090620303E0,-2.015805006E0,-1.502624035E0,4.182029963E-1,2.548772755E0
3.095542459E0,-2.209249020E0,-2.139480114E0,5.926390290E-1,3.131992562E0
3.100464608E0,-2.112485886E0,-2.485853910E0,7.835190296E-1,3.354991557E0
3.105386761E0,-2.048017979E0,-2.797333002E0,7.601839900E-1,3.549271653E0
3.110308915E0,-1.572260022E0,-3.267246008E0,1.007339001E0,3.763194111E0
3.115231069E0,-1.323523045E0,-3.243215084E0,1.342174053E0,3.751211607E0
3.120153228E0,-1.349010944E0,-3.023718119E0,1.062788010E0,3.477386971E0
3.125075382E0,-1.380058050E0,-2.713530064E0,8.753139973E-1,3.167645849E0
3.129997560E0,-1.844854951E0,-2.300405979E0,-8.266000077E-3,2.948800737E0
3.134919714E0,-2.861171007E0,-1.655683994E0,-6.784260273E-1,3.374588997E0
3.139841942E0,-3.635592937E0,-1.033527970E0,-1.240473986E0,3.978000978E0
3.144764098E0,-4.211990833E0,-5.392000079E-1,-1.205036044E0,4.414036168E0
3.149686252E0,-4.618117809E0,-9.531199932E-2,-1.234709978E0,4.781276525E0
3.154608635E0,-4.862174988E0,2.589569986E-1,-9.889479876E-1,4.968482913E0
3.159530790E0,-5.155128002E0,5.960909724E-1,-7.186880112E-1,5.239005786E0
3.164452944E0,-5.302672863E0,9.049959779E-1,-5.510640144E-1,5.407497458E0
3.169375098E0,-5.222609997E0,1.136150956E0,-3.960770071E-1,5.359418921E0
3.174297011E0,-4.959885120E0,1.407755971E0,-2.245409936E-1,5.160683670E0
3.179219163E0,-4.772391796E0,1.716055989E0,-6.779500097E-2,5.071998401E0
3.184141298E0,-4.648486137E0,1.901680946E0,1.408569962E-1,5.024405884E0
3.189063683E0,-4.503262997E0,2.025095940E0,3.785299957E-1,4.952138542E0
3.193985839E0,-4.299671173E0,2.217006922E0,7.380470037E-1,4.893567744E0
3.198907992E0,-4.149355888E0,2.346268892E0,7.885860205E-1,4.831562885E0
3.203830146E0,-3.895075083E0,2.424084902E0,8.036289811E-1,4.657640717E0
3.208752290E0,-3.565941095E0,2.478753090E0,7.461969852E-1,4.406468282E0
3.213674444E0,-3.282385111E0,2.439920902E0,5.660229921E-1,4.128879758E0
3.218596673E0,-3.056895971E0,2.278254032E0,3.950729966E-1,3.832901915E0
3.223518829E0,-2.726619959E0,2.041511059E0,9.212999605E-3,3.406216183E0
3.228441211E0,-2.327353001E0,1.792039990E0,-4.257600009E-1,2.968038223E0
3.233363136E0,-2.034986973E0,1.569471955E0,-7.390810251E-1,2.674070859E0
3.238285227E0,-2.206029892E0,1.498322964E0,-1.108394027E0,2.887919131E0
3.243207458E0,-2.219208002E0,1.362048984E0,-1.273079991E0,2.898412368E0
3.248129599E0,-2.065357924E0,1.269443035E0,-1.288243055E0,2.745315855E0
3.253051753E0,-1.934280038E0,1.242532969E0,-1.429126978E0,2.706978271E0
3.257973907E0,-1.780146956E0,1.099671006E0,-1.415647030E0,2.526312732E0
3.262896079E0,-1.753613949E0,1.003854036E0,-1.374958038E0,2.444052867E0
3.267818462E0,-1.833026052E0,9.288499951E-1,-1.424460053E0,2.500366626E0
3.272740618E0,-1.893988013E0,8.913189769E-1,-1.344184995E0,2.487664248E0
3.277662772E0,-1.989400029E0,9.054049850E-1,-1.344871998E0,2.566349811E0
3.282584926E0,-2.107634068E0,9.994860291E-1,-1.356716037E0,2.698475883E0
3.287507154E0,-2.404699087E0,1.041494012E0,-1.494405985E0,3.016709586E0
3.292429310E0,-2.541371107E0,1.121677041E0,-1.434491038E0,3.126418243E0
3.297351464E0,-2.614031076E0,1.191593051E0,-1.536407948E0,3.257852337E0
3.302273618E0,-2.639931917E0,1.308280945E0,-1.676097035E0,3.389711025E0
3.307195743E0,-2.578797102E0,1.382776976E0,-1.801216006E0,3.436079999E0
3.312117820E0,-2.464482069E0,1.443614006E0,-1.745700955E0,3.347411700E0
3.317040049E0,-2.309194088E0,1.514618039E0,-1.771965981E0,3.281205354E0
3.321962228E0,-2.294781923E0,1.579172015E0,-2.088696957E0,3.481732802E0
3.326884611E0,-2.194004059E0,1.632338047E0,-2.131686926E0,3.467314589E0
3.331806772E0,-2.078690052E0,1.645385981E0,-2.353602886E0,3.545094343E0
3.336728695E0,-1.908133030E0,1.580024958E0,-2.503613949E0,3.522148965E0
3.341651078E0,-1.792333961E0,1.532101989E0,-2.621987104E0,3.526274792E0
3.346573224E0,-1.625802040E0,1.456187010E0,-2.715416908E0,3.483848715E0
3.351495378E0,-1.525616050E0,1.347622991E0,-2.723078012E0,3.399815571E0
3.356417532E0,-1.448518038E0,1.309424996E0,-2.696640015E0,3.329364158E0
3.361339756E0,-1.317921996E0,1.267269969E0,-2.529808998E0,3.121349889E0
3.366261912E0,-9.111030102E-1,1.213961005E0,-3.047555923E0,3.404615562E0
3.371183969E0,-6.036329865E-1,1.089912057E0,-3.494882107E0,3.710321012E0
3.376106121E0,-3.187440038E-1,1.153805017E0,-4.239275932E0,4.405033960E0
3.381028298E0,-1.425649971E-1,1.211724043E0,-4.407650948E0,4.573399918E0
3.385950529E0,-8.980699629E-2,1.347072005E0,-4.138154984E0,4.352814601E0
3.390872594E0,2.194280028E-1,1.551787972E0,-3.950229883E0,4.249765957E0
3.395794746E0,6.695700288E-1,1.631118059E0,-3.000761032E0,3.480436311E0
3.400716900E0,1.487643003E0,1.672901988E0,-2.125755072E0,3.087153607E0
3.405639141E0,2.685803890E0,1.581068039E0,-1.592072964E0,3.499716417E0
3.410561525E0,4.185595036E0,1.247957945E0,-1.659687042E0,4.672383322E0
3.415483681E0,6.485717773E0,1.028507948E0,-2.644207954E0,7.079138319E0
3.420405820E0,8.384064674E0,3.984780014E-1,-4.135230064E0,9.356893334E0
3.425327974E0,9.166802406E0,-3.930729926E-1,-5.346555233E0,1.061934205E1
3.430249878E0,9.838427544E0,-1.143576026E0,-6.713429928E0,1.196547383E1
3.435172030E0,1.004645443E1,-1.465724945E0,-8.484693527E0,1.323138770E1
3.440094159E0,1.012342262E1,-1.484336019E0,-8.323806763E0,1.318987104E1
3.445016543E0,9.754375458E0,-1.461613059E0,-8.134114265E0,1.278467709E1
3.449938699E0,8.347986221E0,-1.220118046E0,-7.021440983E0,1.097625599E1
3.454860872E0,6.048573017E0,-6.177200079E-1,-5.670091152E0,8.313648250E0
3.459783026E0,3.794068098E0,6.964299828E-2,-4.459363937E0,5.855401746E0
3.464705255E0,1.653535008E0,8.390690088E-1,-3.815361023E0,4.242074323E0
3.469627329E0,-3.682599962E-1,1.709596992E0,-3.187220097E0,3.635479231E0
3.474549557E0,-1.993265986E0,2.420597076E0,-2.625574112E0,4.089748026E0
3.479471713E0,-2.907625914E0,2.769479036E0,-1.985136032E0,4.479404832E0
3.484393853E0,-3.284668922E0,2.840775013E0,-1.046185017E0,4.466940306E0
3.489316007E0,-3.242588997E0,2.749377012E0,-1.612710059E-1,4.254346683E0
3.494238166E0,-2.804970026E0,2.354293108E0,8.046870232E-1,3.749409832E0
3.499160320E0,-1.936648011E0,1.813436031E0,1.085832953E0,2.866738384E0
3.504082702E0,-1.485723019E0,1.291964054E0,1.282506943E0,2.349759150E0
3.509004627E0,-1.227334976E0,4.712019861E-1,1.155958056E0,1.750606033E0
3.513926779E0,-1.150076032E0,-4.818400145E-1,1.046669006E0,1.627992840E0
3.518848923E0,-9.820230007E-1,-1.728301048E0,7.765190005E-1,2.134098275E0
3.523771308E0,-6.767489910E-1,-3.015702009E0,5.721750259E-1,3.143220015E0
3.528693464E0,-5.312029719E-1,-4.003980160E0,5.625330210E-1,4.078048199E0
3.533615626E0,-5.821980238E-1,-4.972317219E0,3.923349977E-1,5.021635173E0
3.538537855E0,-5.294780135E-1,-6.025671959E0,3.572640121E-1,6.059431252E0
3.543460011E0,-4.534280002E-1,-7.300209045E0,1.787869930E-1,7.316461839E0
3.548382170E0,-1.566559970E-1,-8.453218460E0,3.097099997E-2,8.454726645E0
3.553304324E0,3.139869869E-1,-9.553886414E0,-1.632090062E-1,9.560437783E0
3.558226401E0,4.974960089E-1,-1.042741871E1,-6.486070156E-1,1.045940984E1
3.563148630E0,3.392130136E-1,-1.116534805E1,-1.073838949E0,1.122199593E1
3.568070771E0,-1.085750014E-1,-1.191250515E1,-1.700425029E0,1.203374475E1
3.572992848E0,-6.581799984E-1,-1.276665306E1,-1.890511990E0,1.292264164E1
3.577915067E0,-1.752696991E0,-1.291409874E1,-1.671110988E0,1.313919727E1
3.582837452E0,-3.374743938E0,-1.252893543E1,-2.108522892E0,1.314568327E1
3.587759608E0,-4.671790123E0,-1.210167217E1,-2.522439957E0,1.321509726E1
3.592681550E0,-5.515934944E0,-1.149680519E1,-2.202064991E0,1.294029204E1
3.597603702E0,-5.926442146E0,-1.089108276E1,-1.770987034E0,1.252496688E1
3.602526086E0,-6.073493958E0,-9.731195450E0,-1.301463008E0,1.154457880E1
3.607448232E0,-6.040400982E0,-9.481533051E0,4.906820059E-1,1.125285216E1
3.612370386E0,-4.793935776E0,-8.143295288E0,1.159958005E0,9.520534698E0
3.617292540E0,-3.612642050E0,-7.062328815E0,2.843751907E0,8.427015829E0
3.622214779E0,-2.237848043E0,-5.984311104E0,4.264885902E0,7.681744269E0
3.627136857E0,-5.132489800E-1,-4.908446789E0,4.736192226E0,6.840160174E0
3.632059009E0,6.540709734E-1,-4.104971886E0,4.778651237E0,6.333570136E0
3.636981163E0,1.461884975E0,-3.519795895E0,4.637228966E0,6.002496422E0
3.641903394E0,1.848067999E0,-2.925322056E0,4.564937115E0,5.728133668E0
3.646825565E0,1.767107010E0,-2.371846914E0,3.992801905E0,4.968982996E0
3.651747642E0,1.630866051E0,-1.840126038E0,3.299885035E0,4.115219211E0
3.656669794E0,1.256855965E0,-1.127146959E0,2.823741913E0,3.289933977E0
3.661591943E0,9.544259906E-1,-2.994520068E-1,2.489777088E0,2.683205252E0
3.666514174E0,7.296289802E-1,5.101289749E-1,2.598579884E0,2.746854097E0
3.671436330E0,2.653024912E0,1.691462040E0,3.073270082E0,4.398246698E0
3.676358722E0,4.210330009E0,2.537791967E0,4.256680012E0,6.502814128E0
3.681280878E0,4.915741920E0,3.233648062E0,5.549492836E0,8.088131376E0
3.686202801E0,5.302537918E0,4.106495857E0,5.114596844E0,8.434412693E0
3.691124963E0,5.519956112E0,4.931913853E0,4.209527969E0,8.515504416E0
3.696047116E0,5.809710979E0,5.803195000E0,4.062985897E0,9.161750284E0
3.700969279E0,4.904990196E0,6.861329079E0,3.839664936E0,9.267135068E0
3.705891433E0,4.211793900E0,7.721317768E0,3.205770969E0,9.361352650E0
3.710813587E0,3.196867943E0,8.034208298E0,2.334831953E0,8.956556697E0
3.715735967E0,2.694056034E0,7.606554985E0,2.221549034E0,8.369760855E0
3.720658122E0,1.337895989E0,7.287340164E0,1.583719015E0,7.576506996E0
3.725580276E0,-8.045009971E-1,6.956910133E0,1.890195012E0,7.253871907E0
3.730502510E0,-3.011558056E0,6.518042088E0,2.091646910E0,7.478592205E0
3.735424666E0,-3.975218058E0,5.990868092E0,1.570633054E0,7.359330628E0
3.740346820E0,-4.358870983E0,5.777617931E0,1.492679000E0,7.389771025E0
3.745268974E0,-4.758543968E0,5.540855885E0,1.502256036E0,7.456647895E0
3.750191128E0,-4.871955872E0,5.501628876E0,1.853322029E0,7.578830836E0
3.755113272E0,-5.086576939E0,5.440115929E0,2.289623976E0,7.791694567E0
3.760035349E0,-5.548299789E0,5.442820072E0,1.957497954E0,8.014968442E0
3.764957587E0,-6.302711010E0,5.509898186E0,1.546205997E0,8.513160229E0
3.769879743E0,-6.931938171E0,5.563903809E0,1.274508953E0,8.979597178E0
3.774801897E0,-7.235680103E0,5.484726906E0,3.072760105E-1,9.084696711E0
3.779724093E0,-6.760559082E0,5.417269230E0,-4.153290093E-1,8.673203745E0
3.784646247E0,-5.954443932E0,5.179318905E0,-8.881959915E-1,7.941639564E0
3.789568400E0,-5.316183090E0,4.712132931E0,-1.171653986E0,7.199914754E0
3.794490788E0,-4.754611015E0,4.291165829E0,-1.320554018E0,6.539441336E0
3.799413021E0,-4.248684883E0,3.930166006E0,-1.494055986E0,5.977435183E0
3.804335098E0,-4.451251984E0,3.604684114E0,-1.820660949E0,6.010174546E0
3.809257327E0,-3.904707909E0,3.274249077E0,-1.924494028E0,5.447121087E0
3.814179405E0,-3.226878881E0,2.924352884E0,-2.012579918E0,4.797401905E0
3.819101552E0,-2.796324968E0,2.793932915E0,-2.199441910E0,4.523609087E0
3.824023706E0,-2.517333984E0,2.614270926E0,-2.139257908E0,4.212814648E0
3.828945860E0,-2.265933037E0,2.559694052E0,-2.305612087E0,4.123388566E0
3.833868091E0,-1.961184978E0,2.512393951E0,-2.436014891E0,4.011550627E0
3.838790247E0,-1.712710977E0,2.467947006E0,-2.533297062E0,3.929597348E0
3.843712353E0,-1.394127011E0,2.447416067E0,-2.626858950E0,3.851470300E0
3.848634581E0,-1.059944987E0,2.364984989E0,-2.971580029E0,3.942958945E0
3.853556737E0,-5.813109875E-1,2.258629084E0,-3.318964005E0,4.056457798E0
3.858479135E0,-3.669299930E-2,2.050044060E0,-3.512329102E0,4.066999230E0
3.863401291E0,8.171269894E-1,1.915635943E0,-3.970278025E0,4.483354233E0
3.868323445E0,1.449977994E0,1.770843983E0,-3.873523951E0,4.499167966E0
3.873245598E0,2.201025963E0,1.389747977E0,-4.030751228E0,4.798215313E0
3.878167522E0,2.654664993E0,1.123044968E0,-3.999589920E0,4.930029995E0
3.883089664E0,2.833184004E0,9.691399932E-1,-3.873069048E0,4.895592689E0
3.888012049E0,2.768558979E0,7.540029883E-1,-3.807915926E0,4.767983119E0
3.892933998E0,2.402620077E0,5.360280275E-1,-3.739034891E0,4.476638381E0
3.897856381E0,2.310261011E0,3.116590083E-1,-3.440584898E0,4.155967001E0
3.902778613E0,2.811920881E0,-1.183210015E-1,-3.239249945E0,4.291111640E0
3.907700776E0,2.870934010E0,-6.534159780E-1,-3.028676987E0,4.223990864E0
3.912622930E0,2.845947981E0,-8.463479877E-1,-3.103121042E0,4.294774153E0
3.917545084E0,3.620125055E0,-9.990990162E-1,-3.285202980E0,4.989595463E0
3.922467272E0,4.123549938E0,-1.108916044E0,-3.178105116E0,5.322941951E0
3.927389426E0,4.401577950E0,-1.372176051E0,-3.019426107E0,5.511233036E0
3.932311580E0,4.939993858E0,-1.470595002E0,-3.123310089E0,6.026711781E0
3.937233729E0,5.446711063E0,-1.504716992E0,-3.276618958E0,6.532003248E0
3.942156111E0,5.814300060E0,-1.500625968E0,-3.285301924E0,6.844791612E0
3.947078031E0,6.103271961E0,-1.419355035E0,-3.317951918E0,7.090366865E0
3.952000414E0,6.404118061E0,-1.335548043E0,-3.247605085E0,7.303653572E0
3.956922585E0,6.429728031E0,-1.105293989E0,-3.175699949E0,7.255904322E0
3.961844739E0,6.354826927E0,-8.290920258E-1,-2.914155960E0,7.040136634E0
3.966766671E0,6.165012836E0,-4.566340148E-1,-2.688829899E0,6.741342902E0
3.971688823E0,5.860153198E0,-1.029390022E-1,-2.236923933E0,6.273421764E0
3.976611207E0,5.689230919E0,2.198960036E-1,-2.127728939E0,6.078069853E0
3.981533363E0,5.187643051E0,6.217889786E-1,-1.893677950E0,5.557362516E0
3.986455592E0,4.553666115E0,8.652240038E-1,-1.931561947E0,5.021495715E0
3.991377748E0,3.958873034E0,1.184129000E0,-1.412837982E0,4.367029694E0
3.996299882E0,4.087573051E0,1.439136982E0,-6.285989881E-1,4.378870333E0
4.001222036E0,4.338960171E0,1.541723013E0,4.408630133E-1,4.625780519E0
4.006144108E0,4.488292217E0,1.504027009E0,7.284619808E-1,4.789313221E0
4.011066260E0,4.600490093E0,1.287881970E0,1.286494970E0,4.947546703E0
4.015988486E0,4.602570057E0,1.117390037E0,1.701495051E0,5.032623275E0
4.020910642E0,4.775646210E0,9.047279954E-1,2.309357882E0,5.381306839E0
4.025832719E0,4.918583870E0,8.629860282E-1,2.583868027E0,5.622596033E0
4.030754876E0,5.124859810E0,7.168970108E-1,2.499543905E0,5.746812084E0
4.035677106E0,4.834302902E0,5.431900024E-1,2.454030037E0,5.448651517E0
4.040599262E0,4.753078938E0,3.848670125E-1,2.266056061E0,5.279667800E0
4.045521416E0,4.550655842E0,1.867839992E-1,2.070610046E0,5.003077335E0
4.050443799E0,4.128524780E0,1.336700004E-2,2.092704058E0,4.628639737E0
4.055365955E0,3.725785971E0,-1.033869982E-1,2.102899075E0,4.279527367E0
4.060288078E0,3.260569096E0,-3.835169971E-1,2.009340048E0,3.849135428E0
4.065210232E0,2.859451056E0,-7.985209823E-1,1.573284984E0,3.359958592E0
4.070132155E0,2.939301968E0,-1.220819950E0,7.265610099E-1,3.264626825E0
4.075054524E0,3.212829113E0,-1.624045968E0,5.490899831E-2,3.600390425E0
4.079976680E0,3.093044043E0,-1.870071054E0,-5.334560275E-1,3.653582150E0
4.084898834E0,2.555092096E0,-1.931313992E0,-8.210780025E-1,3.306454058E0
4.089820988E0,1.998450041E0,-1.848785996E0,-9.469599724E-1,2.882454755E0
4.094743141E0,1.394744992E0,-1.856775999E0,-6.009969711E-1,2.398776368E0
4.099665290E0,1.167739987E0,-1.746654034E0,-2.833909988E-1,2.120077227E0
4.104587444E0,9.584529996E-1,-1.647604942E0,-1.321689934E-1,1.910681251E0
4.109509598E0,6.026039720E-1,-1.570795059E0,2.125329971E-1,1.695788589E0
4.114431832E0,3.131020069E-1,-1.492486000E0,3.886300027E-1,1.573715542E0
4.119353988E0,1.348150074E-1,-1.401293039E0,6.803399920E-1,1.563540781E0
4.124276370E0,-4.671199992E-2,-1.347125053E0,9.895259738E-1,1.672151181E0
4.129198497E0,-2.645719945E-1,-1.293725967E0,1.180971026E0,1.771558010E0
4.134120420E0,-3.085590005E-1,-1.282297969E0,1.381625056E0,1.910074484E0
4.139042557E0,-3.719100058E-1,-1.352530003E0,1.455168009E0,2.021179951E0
4.143964711E0,-2.922720015E-1,-1.416810036E0,1.629464984E0,2.178974468E0
4.148887096E0,-3.612439930E-1,-1.577640057E0,1.922772050E0,2.513264357E0
4.153809012E0,-3.630900085E-1,-1.679164052E0,2.287396908E0,2.860701117E0
4.158731163E0,-3.070960045E-1,-1.797719002E0,2.348567009E0,2.973527965E0
4.163653548E0,-2.765739858E-1,-1.877719045E0,2.547777891E0,3.177025993E0
4.168575718E0,-3.141320050E-1,-1.909057021E0,2.577125072E0,3.222538016E0
4.173497872E0,-3.835240006E-1,-1.910490036E0,2.595120907E0,3.245260445E0
4.178420026E0,-5.251659751E-1,-1.860105038E0,2.484914064E0,3.148108632E0
4.183342254E0,-7.099779844E-1,-1.735919952E0,2.376013041E0,3.027032340E0
4.188264410E0,-9.879580140E-1,-1.563900948E0,2.160324097E0,2.844089910E0
4.193186564E0,-1.495412946E0,-1.212113976E0,1.911892056E0,2.713081533E0
4.198108612E0,-2.115207911E0,-8.315370083E-1,1.614096045E0,2.787627010E0
4.203030841E0,-2.696754932E0,-4.271860123E-1,1.271888018E0,3.012088011E0
4.207953007E0,-3.237871885E0,2.228599973E-2,1.062082052E0,3.407686796E0
4.212875389E0,-3.947186947E0,3.632999957E-1,8.334320188E-1,4.050540780E0
4.217797314E0,-4.442161083E0,6.814550161E-1,6.377320290E-1,4.539149498E0
4.222719475E0,-4.608111858E0,8.855109811E-1,4.071379900E-1,4.710051586E0
4.227641860E0,-4.593581200E0,1.090306997E0,1.671140045E-1,4.724159679E0
4.232564016E0,-4.364820004E0,1.308120012E0,1.965199970E-2,4.556667404E0
4.237486175E0,-4.354776859E0,1.534685016E0,-1.336240023E-1,4.619220169E0
4.242408329E0,-4.038919926E0,1.648169994E0,-7.040700316E-2,4.362831150E0
4.247330482E0,-3.768775940E0,1.742496967E0,-2.310470045E-1,4.158527442E0
4.252252631E0,-3.629904032E0,1.744210958E0,-3.754310012E-1,4.044678428E0
4.257174785E0,-3.372936010E0,1.584380031E0,-3.220070004E-1,3.740407186E0
4.262096925E0,-3.368524075E0,1.574888945E0,-4.782100022E-2,3.718805786E0
4.267019079E0,-3.530420065E0,1.727825046E0,-2.064760029E-1,3.935972251E0
4.271941317E0,-4.081614017E0,2.018805027E0,-6.481109858E-1,4.599477642E0
4.276863472E0,-4.543859005E0,2.193191051E0,-1.198367000E0,5.185829260E0
4.281785549E0,-4.999168873E0,2.417726040E0,-1.891253948E0,5.866338732E0
4.286707807E0,-5.349890232E0,2.538450956E0,-2.292385101E0,6.349810092E0
4.291629886E0,-5.737597942E0,2.540522099E0,-2.518460035E0,6.761429112E0
4.296552043E0,-5.999807835E0,2.497713089E0,-2.565063953E0,6.986831744E0
4.301474197E0,-6.230276108E0,2.483731985E0,-2.774746895E0,7.258407903E0
4.306396428E0,-6.383787155E0,2.499905109E0,-2.785234928E0,7.399986325E0
4.311318578E0,-6.443009853E0,2.545623064E0,-2.834218979E0,7.485009684E0
4.316240961E0,-6.282542229E0,2.509248972E0,-2.831403017E0,7.333724177E0
4.321162886E0,-5.987400055E0,2.523694992E0,-2.792593956E0,7.072239874E0
4.326085033E0,-5.729306221E0,2.523085117E0,-2.662461042E0,6.802911662E0
4.331007187E0,-5.394110203E0,2.530870914E0,-2.566628933E0,6.487627960E0
4.335929332E0,-5.093944073E0,2.535958052E0,-2.458380938E0,6.198627775E0
4.340851486E0,-4.760096073E0,2.595437050E0,-2.350512981E0,5.909290937E0
4.345773639E0,-4.490196228E0,2.633744955E0,-2.215207100E0,5.657350718E0
4.350695793E0,-4.198091984E0,2.641581059E0,-2.138849020E0,5.401536996E0
4.355618178E0,-3.974174976E0,2.646294117E0,-1.997418046E0,5.175579016E0
4.360540319E0,-3.825170040E0,2.650851965E0,-1.854940057E0,5.009964530E0
4.365462548E0,-3.743671894E0,2.648922920E0,-1.586138010E0,4.852597827E0
4.370384703E0,-3.502371073E0,2.661436081E0,-8.985480070E-1,4.489680798E0
4.375306823E0,-3.281599998E0,2.638062954E0,-2.873890102E-1,4.220292305E0
4.380228977E0,-3.045274973E0,2.563977957E0,1.767410040E-1,3.984836258E0
4.385151054E0,-2.837174892E0,2.418464899E0,4.840039909E-1,3.759360810E0
4.390073269E0,-2.605742931E0,2.282301903E0,8.578990102E-1,3.568583600E0
4.394995425E0,-2.237317085E0,2.111041069E0,1.321617007E0,3.347947677E0
4.399917579E0,-1.856192946E0,1.871045947E0,1.553050041E0,3.059122361E0
4.404839732E0,-1.368731976E0,1.594843030E0,1.542242050E0,2.606810705E0
4.409761905E0,-9.318649769E-1,1.287626982E0,1.435286999E0,2.141589211E0
4.414684059E0,-3.139359951E-1,9.251350164E-1,1.503785014E0,1.793265172E0
4.419606213E0,2.014559954E-1,5.867350101E-1,1.303781986E0,1.443845545E0
4.424528377E0,6.366770267E-1,2.394489944E-1,1.061537981E0,1.260776087E0
4.429450531E0,1.240584970E0,-7.208099961E-2,7.250649929E-1,1.438737635E0
4.434372913E0,1.899209976E0,-4.431560040E-1,3.232580125E-1,1.976836240E0
4.439295083E0,2.002279997E0,-7.812150121E-1,-5.259699821E-1,2.212705697E0
4.444217237E0,2.350336075E0,-1.182726026E0,-7.248290181E-1,2.729156943E0
4.449139160E0,2.806267023E0,-1.517217040E0,-6.618620157E-1,3.258088931E0
4.454061524E0,3.598387957E0,-1.956174970E0,-6.983739734E-1,4.154845678E0
4.458983680E0,4.641129017E0,-2.075829983E0,-9.694309831E-1,5.175803812E0
4.463905820E0,5.549107075E0,-1.900802970E0,-8.844590187E-1,5.931939734E0
4.468827973E0,6.004096985E0,-1.354598045E0,-6.397619843E-1,6.188167084E0
4.473750202E0,6.358736992E0,-5.748029947E-1,-4.051850140E-1,6.397508070E0
4.478672271E0,6.438655853E0,4.836469889E-1,-7.839980125E-1,6.504218361E0
4.483594423E0,6.744418144E0,1.612048030E0,-1.573909998E0,7.110771241E0
4.488516577E0,7.117612839E0,2.560297012E0,-1.398628950E0,7.692314103E0
4.493438717E0,7.725802898E0,3.165052891E0,-1.386167049E0,8.463276512E0
4.498360947E0,8.439758301E0,3.852283955E0,-3.463956118E0,9.902959347E0
4.503283332E0,9.379138947E0,4.260530949E0,-6.175796032E0,1.201086292E1
4.508205463E0,9.702473640E0,5.066236973E0,-8.625490189E0,1.393570353E1
4.513127386E0,9.812509537E0,5.640821934E0,-1.009189796E1,1.516412279E1
4.518049538E0,9.560297012E0,6.136177063E0,-1.057111645E1,1.551774632E1
4.522971644E0,9.152969360E0,5.898897171E0,-9.998716354E0,1.478337460E1
4.527893798E0,8.900794983E0,4.903157234E0,-8.274138451E0,1.310444464E1
4.532816182E0,8.535884857E0,3.827491045E0,-5.404207230E0,1.080353987E1
4.537738333E0,7.398090839E0,3.114293098E0,-3.853760004E0,8.904046032E0
4.542660487E0,4.994431019E0,2.012834072E0,-2.739443064E0,6.041555305E0
4.547582716E0,3.390085936E0,9.517300129E-1,-2.487062931E0,4.310911121E0
4.552504815E0,2.466500044E0,-1.512400061E-1,-2.031369925E0,3.198899776E0
4.557427043E0,1.717381001E0,-9.660639763E-1,-1.728126049E0,2.620896173E0
4.562349199E0,1.402065992E0,-1.203323007E0,-1.304895997E0,2.261974551E0
4.567271362E0,1.417943954E0,-1.650779009E0,-6.751250029E-1,2.278471014E0
4.572193516E0,1.487117052E0,-2.066869974E0,-3.351190090E-1,2.568223777E0
4.577115593E0,1.571218014E0,-2.734772921E0,-1.266250014E-1,3.156539698E0
4.582037846E0,1.814075947E0,-3.607291937E0,4.372520149E-1,4.061356422E0
4.586960002E0,2.153414965E0,-4.685411930E0,7.876769900E-1,5.216389173E0
4.591882141E0,2.745476007E0,-6.039268017E0,9.462050200E-1,6.701171586E0
4.596804295E0,3.061763048E0,-7.248730183E0,1.266898990E0,7.970164068E0
4.601726444E0,2.399264097E0,-8.460122108E0,1.794054985E0,8.974896522E0
4.606648598E0,1.878520012E0,-8.769156456E0,2.879776955E0,9.419132534E0
4.611570752E0,1.375412941E0,-1.080438423E1,3.764477968E0,1.152379164E1
4.616492920E0,3.597100079E-1,-1.116689777E1,4.812643051E0,1.216513585E1
4.621415302E0,-7.815729976E-1,-1.123503876E1,5.796337128E0,1.266627318E1
4.626337458E0,-2.169225931E0,-1.096721554E1,6.151576042E0,1.276037796E1
4.631259678E0,-3.575196028E0,-1.019767189E1,6.454362869E0,1.258703057E1
4.636181757E0,-4.131282806E0,-9.445693970E0,7.016273022E0,1.247063428E1
4.641103856E0,-3.870404005E0,-8.482801437E0,7.151826859E0,1.175102442E1
4.646026010E0,-3.188469887E0,-7.220497131E0,6.795436859E0,1.041536755E1
4.650948164E0,-2.658123016E0,-5.786273003E0,5.754394054E0,8.582518521E0
4.655870298E0,-2.199769020E0,-4.609623909E0,5.237937927E0,7.315983191E0
4.660792452E0,-1.585970998E0,-3.677829027E0,4.814853191E0,6.262949913E0
4.665714625E0,-1.033676982E0,-3.005826950E0,4.565790176E0,5.563265560E0
4.670636779E0,-5.775740147E-1,-2.496085882E0,4.448257923E0,5.133325922E0
4.675558933E0,-3.268550038E-1,-1.905135989E0,4.127941132E0,4.558099968E0
4.680481063E0,-6.278529763E-1,-1.308958054E0,3.476766109E0,3.767688035E0
4.685403524E0,-4.203439951E-1,-1.054862976E0,3.194780111E0,3.390581798E0
4.690325449E0,4.425499961E-2,-9.103779793E-1,2.857276917E0,2.999129532E0
4.695247616E0,2.562870085E-1,-6.472579837E-1,2.453222036E0,2.550083192E0
4.700170001E0,3.589029908E-1,-3.010660112E-1,2.039483070E0,2.092592482E0
4.705091926E0,4.109129906E-1,6.844899803E-2,1.501407027E0,1.558126379E0
4.710014059E0,2.481440008E-1,3.623830080E-1,1.098242998E0,1.182807919E0
4.714936213E0,-2.245209962E-1,6.708430052E-1,8.562369943E-1,1.110667279E0
4.719858351E0,-6.515709758E-1,9.936349988E-1,8.556969762E-1,1.464265195E0
4.724780505E0,-5.211269855E-1,1.275372028E0,8.752170205E-1,1.632223017E0
4.729702890E0,-4.329450130E-1,1.781226993E0,1.087574959E0,2.131438546E0
4.734625085E0,-5.419250131E-1,2.079902887E0,9.870849848E-1,2.365167120E0
4.739547239E0,-9.910349846E-1,2.420073032E0,1.323768020E0,2.931086077E0
4.744469393E0,-1.999716043E0,2.808496952E0,1.386497021E0,3.716031939E0
4.749391541E0,-2.666645050E0,3.132972002E0,1.418884993E0,4.351981619E0
4.754313770E0,-2.974426985E0,3.398050070E0,1.425506949E0,4.735612973E0
4.759235926E0,-3.162928104E0,3.673872948E0,1.328930974E0,5.026680233E0
4.764158080E0,-3.336246967E0,3.893258095E0,1.067219973E0,5.237075605E0
4.769080157E0,-3.548430920E0,4.000938892E0,1.027150989E0,5.445540668E0
4.774002304E0,-3.658685923E0,3.997912884E0,1.203621984E0,5.551395859E0
4.778924458E0,-3.746210098E0,4.068573952E0,1.043738961E0,5.628212427E0
4.783846664E0,-4.093276978E0,4.343556881E0,7.460299730E-1,6.014812010E0
4.788768820E0,-4.614093781E0,4.615365028E0,3.364540040E-1,6.534880034E0
4.793690974E0,-4.546792984E0,4.675526142E0,2.852480114E-1,6.528034740E0
4.798613147E0,-4.019218922E0,4.569983959E0,2.543269992E-1,6.091268862E0
4.803535301E0,-3.603257895E0,4.501598835E0,1.711499989E-1,5.768635181E0
4.808457455E0,-3.525583029E0,4.424054146E0,3.498199955E-2,5.657138368E0
4.813379842E0,-3.626496077E0,4.391732216E0,-1.109000016E-2,5.695516538E0
4.818301998E0,-3.560609102E0,4.357062817E0,7.794299722E-2,5.627433578E0
4.823224152E0,-3.530754089E0,4.280650139E0,2.351499908E-2,5.548940710E0
4.828146306E0,-3.477317095E0,4.281712055E0,8.106199652E-2,5.516462938E0
4.833068460E0,-3.230098963E0,4.196301937E0,1.433399972E-2,5.295535357E0
4.837990594E0,-3.078198910E0,4.123336792E0,-1.893899962E-2,5.145636357E0
4.842912518E0,-2.993465900E0,3.888470888E0,8.878999949E-2,4.908047230E0
4.847834977E0,-2.602276087E0,3.633766890E0,3.182100058E-1,4.480776746E0
4.852757171E0,-2.270338058E0,3.506865025E0,4.127619863E-1,4.197964942E0
4.857679325E0,-2.071075916E0,3.507071018E0,2.836369872E-1,4.082811840E0
4.862601479E0,-1.937312961E0,3.548064947E0,6.805299968E-2,4.043090104E0
4.867523561E0,-1.837582946E0,3.506500006E0,-8.078599721E-2,3.959643892E0
4.872445789E0,-1.788483977E0,3.469917059E0,-1.522639990E-1,3.906684484E0
4.877367959E0,-1.508877039E0,3.355228901E0,-2.392030060E-1,3.686663664E0
4.882290113E0,-1.180817962E0,3.210298061E0,-3.466689885E-1,3.438098906E0
4.887212267E0,-8.927760124E-1,3.092770100E0,-4.293679893E-1,3.247557970E0
4.892134455E0,-6.162670255E-1,2.968947887E0,-5.187469721E-1,3.076285914E0
4.897056609E0,-2.508060038E-1,2.829161882E0,-7.680389881E-1,2.942268597E0
4.901978991E0,1.461489946E-1,2.642347097E0,-8.661929965E-1,2.784537308E0
4.906901147E0,4.526009858E-1,2.513845921E0,-9.422410131E-1,2.722514847E0
4.911823315E0,9.078930020E-1,2.378844976E0,-9.289199710E-1,2.710362603E0
4.916745238E0,1.428457022E0,2.184814930E0,-8.212980032E-1,2.736500713E0
4.921667390E0,2.103004932E0,2.001265049E0,-8.658930063E-1,3.029432660E0
4.926589814E0,2.865003109E0,1.737576962E0,-6.649309993E-1,3.416072269E0
4.931511739E0,2.665997028E0,1.458572030E0,-1.154519990E-1,3.041102051E0
4.936434121E0,2.501159906E0,1.249621034E0,1.630599983E-2,2.796000624E0
4.941356354E0,2.678479910E0,1.186470032E0,5.123100057E-2,2.929947163E0
4.946278508E0,3.010848045E0,1.012658954E0,1.255879998E-1,3.179065343E0
4.951200662E0,3.438493013E0,8.789669871E-1,6.508900225E-2,3.549655440E0
4.956122816E0,3.793800116E0,8.524019718E-1,4.222799838E-2,3.888610503E0
4.961044893E0,4.340212822E0,7.103310227E-1,-3.020119965E-1,4.408313595E0
4.965967029E0,4.986876011E0,5.486570001E-1,-5.438759923E-1,5.046360862E0
4.970889183E0,5.542533875E0,3.915550113E-1,-8.604310155E-1,5.622574020E0
4.975811424E0,6.020381927E0,2.784720063E-1,-1.022035956E0,6.112863708E0
4.980733580E0,6.335631847E0,2.277600020E-1,-1.232575059E0,6.458432225E0
4.985655734E0,6.430566788E0,1.482840031E-1,-1.334337950E0,6.569218760E0
4.990577917E0,6.347830772E0,1.499380022E-1,-1.418903947E0,6.506206677E0
4.995500299E0,6.307082176E0,1.340589970E-1,-1.433778048E0,6.469387674E0
5.000422224E0,6.257613182E0,7.394000143E-2,-1.338204026E0,6.399529661E0
5.005344607E0,6.053012848E0,4.833900183E-2,-1.177855968E0,6.166737053E0
5.010266763E0,5.730998993E0,8.542799950E-2,-9.380649924E-1,5.807892331E0
5.015188917E0,5.343804836E0,2.206919938E-1,-7.118510008E-1,5.395524713E0
5.020111056E0,5.173535824E0,3.220660090E-1,-4.247289896E-1,5.200922433E0
5.025032979E0,5.217538834E0,4.203990102E-1,4.983359873E-1,5.258116161E0
5.029955131E0,5.360496998E0,4.508549869E-1,2.717717886E0,6.026955184E0
5.034877592E0,5.217709064E0,4.389669895E-1,4.464032173E0,6.880753094E0
5.039799657E0,5.345962048E0,5.384650230E-1,4.942622185E0,7.300600582E0
5.044721811E0,5.111700058E0,7.090449929E-1,5.836021900E0,7.790466860E0
5.049643965E0,4.632888794E0,9.364500046E-1,6.148091793E0,7.754974525E0
5.054566194E0,4.192918777E0,1.017773032E0,6.662518978E0,7.937605996E0
5.059488272E0,3.604574919E0,9.193369746E-1,6.600310802E0,7.576426830E0
5.064410424E0,3.333739996E0,7.131239772E-1,4.892217159E0,5.962898364E0
5.069332640E0,3.373372078E0,4.380260110E-1,3.501252890E0,4.881626549E0
5.074254796E0,3.475306034E0,1.518989950E-1,1.739521980E0,3.889313828E0
5.079176950E0,3.620951891E0,-5.872200057E-2,-1.342840046E-1,3.623916812E0
5.084099070E0,3.572987080E0,-1.546539962E-1,-9.725840092E-1,3.706221011E0
5.089021224E0,3.473377943E0,-1.106700022E-2,-2.384597063E0,4.213167451E0
5.093943392E0,3.036365032E0,2.484939992E-1,-3.504910946E0,4.643884432E0
5.098865546E0,3.000511885E0,6.349200010E-2,-3.582297087E0,4.673323787E0
5.103787700E0,3.170826912E0,-4.145739973E-1,-2.697422028E0,4.183551183E0
5.108709854E0,2.750909090E0,-5.851039886E-1,-2.284265995E0,3.623219374E0
5.113632237E0,2.243751049E0,-6.781820059E-1,-1.835136056E0,2.976923571E0
5.118554152E0,1.983224034E0,-7.931410074E-1,-1.266126990E0,2.483007810E0
5.123476304E0,1.553450942E0,-9.247080088E-1,-8.493729830E-1,1.997430648E0
5.128398688E0,9.467930198E-1,-9.340450168E-1,-4.718729854E-1,1.411212681E0
5.133320839E0,2.989740074E-1,-8.958439827E-1,-2.374420017E-1,9.738072718E-1
5.138242993E0,-2.026389986E-1,-8.494809866E-1,2.875600010E-2,8.737891152E-1
5.143165222E0,-3.521440029E-1,-8.117449880E-1,2.456000075E-3,8.848397348E-1
5.148087364E0,-2.086009979E-1,-7.889509797E-1,-2.012519985E-1,8.405119819E-1
5.153009517E0,-5.868199840E-2,-9.116119742E-1,-1.449480057E-1,9.249269662E-1
5.157931671E0,7.912799716E-2,-1.042896032E0,-1.893959939E-1,1.062903672E0
5.162853800E0,2.051990032E-1,-1.144407988E0,-2.573730052E-1,1.190805247E0
5.167775954E0,2.544260025E-1,-1.336217999E0,-3.061519861E-1,1.394252549E0
5.172698031E0,4.272649884E-1,-1.569471955E0,-1.810840070E-1,1.636639547E0
5.177620294E0,5.756919980E-1,-1.755373001E0,-1.213650033E-1,1.851346838E0
5.182542373E0,6.404449940E-1,-1.946403980E0,-4.688800126E-2,2.049599163E0
5.187464601E0,7.657269835E-1,-2.180809021E0,-1.453309953E-1,2.315898724E0
5.192386757E0,9.473729730E-1,-2.458182096E0,-1.480599940E-1,2.638578506E0
5.197309140E0,1.186087012E0,-2.691768885E0,2.669399977E-2,2.941621100E0
5.202231296E0,1.240839958E0,-2.758763075E0,9.916000068E-2,3.026597134E0
5.207153421E0,1.490473986E0,-3.022536993E0,4.070169926E-1,3.394540530E0
5.212075574E0,1.703459978E0,-3.498754025E0,1.044952035E0,4.029265488E0
5.216997714E0,2.230012894E0,-3.824748039E0,1.609505057E0,4.710855718E0
5.221919868E0,2.415111065E0,-3.891334057E0,1.824746966E0,4.930004431E0
5.226842017E0,2.391295910E0,-3.816920042E0,1.855461955E0,4.871335936E0
5.231763940E0,2.261945963E0,-3.512175083E0,1.304139972E0,4.376363150E0
5.236686097E0,1.651103973E0,-3.068779945E0,1.115077972E0,3.658818603E0
5.241608251E0,1.332813978E0,-2.641622066E0,7.605500221E-1,3.054995348E0
5.246530635E0,9.439600110E-1,-2.427478075E0,9.870759845E-1,2.785323914E0
5.251452819E0,4.341660142E-1,-2.179238081E0,1.436102033E0,2.645745224E0
5.256374973E0,-1.583289951E-1,-1.868500948E0,1.740242004E0,2.558281864E0
5.261297202E0,-8.978809714E-1,-1.549854994E0,2.074054956E0,2.740427832E0
5.266219344E0,-1.555596948E0,-1.171911001E0,2.327826977E0,3.035133554E0
5.271141498E0,-2.306341887E0,-7.181640267E-1,2.504488945E0,3.479574305E0
5.276063652E0,-2.947962999E0,-1.758600026E-1,2.670584917E0,3.981637400E0
5.280985714E0,-3.873785973E0,4.825409949E-1,2.451564074E0,4.609688707E0
5.285907943E0,-4.481225014E0,7.488369942E-1,2.465806961E0,5.169365380E0
5.290830108E0,-5.131488800E0,1.054074049E0,2.386279106E0,5.756524766E0
5.295752262E0,-5.393164158E0,1.010167956E0,2.345398903E0,5.967206629E0
5.300674421E0,-5.187472820E0,1.111845970E0,3.204293966E0,6.197868629E0
5.305596575E0,-4.821009159E0,9.354749918E-1,3.306118965E0,5.920106873E0
5.310518729E0,-4.924636841E0,1.000044942E0,3.235456944E0,5.976647851E0
5.315440896E0,-5.436883926E0,1.251680970E0,2.808507919E0,6.246129106E0
5.320363049E0,-6.025125980E0,1.535447001E0,2.017854929E0,6.536931932E0
5.325285433E0,-6.361709118E0,1.826390028E0,1.424438000E0,6.770233899E0
5.330207604E0,-6.543835163E0,1.965999007E0,6.630409956E-1,6.864878302E0
5.335129758E0,-6.514807224E0,2.059029102E0,8.871699870E-2,6.833021639E0
5.340051911E0,-6.405242920E0,2.137768030E0,-4.206399918E-1,6.765657915E0
5.344974060E0,-6.208582878E0,2.118302107E0,-8.354259729E-1,6.612990377E0
5.349896214E0,-5.917521954E0,1.922809005E0,-1.080034018E0,6.315119478E0
5.354818392E0,-5.724625111E0,1.814502001E0,-1.117506981E0,6.108401757E0
5.359740546E0,-5.551503181E0,1.928985000E0,-1.217589021E0,6.001890846E0
5.364662719E0,-5.412780762E0,2.223023891E0,-1.227712989E0,5.978905416E0
5.369584873E0,-5.173262119E0,2.518929005E0,-1.095906019E0,5.857358986E0
5.374507026E0,-4.838911057E0,2.742038012E0,-9.227210283E-1,5.637840612E0
5.379429145E0,-4.444067001E0,2.895175934E0,-6.185569763E-1,5.339886509E0
5.384351298E0,-4.074503899E0,2.972229004E0,-3.115290105E-1,5.052996893E0
5.389273529E0,-3.770382881E0,3.031722069E0,-2.491000108E-3,4.838091770E0
5.394195924E0,-3.586417913E0,3.139142990E0,3.412320018E-1,4.778394233E0
5.399118079E0,-3.488672018E0,3.230954885E0,4.584049881E-1,4.777032243E0
5.404040233E0,-3.387080908E0,3.272108078E0,5.819100142E-1,4.745274240E0
5.408962142E0,-3.323532104E0,3.324009895E0,5.248649716E-1,4.729734736E0
5.413884294E0,-3.292905092E0,3.375119925E0,4.954150021E-1,4.741317800E0
5.418806443E0,-3.235140085E0,3.359353065E0,5.200399756E-1,4.692741839E0
5.423728597E0,-3.181077003E0,3.304050922E0,6.013510227E-1,4.625756852E0
5.428650770E0,-2.528012037E0,3.418987989E0,7.764850259E-1,4.322412836E0
5.433572924E0,-2.131748915E0,3.560049057E0,8.826670051E-1,4.242334707E0
5.438495078E0,-1.960589051E0,3.625895977E0,9.098749757E-1,4.221244311E0
5.443417227E0,-1.830556035E0,3.555303097E0,7.509739995E-1,4.068793120E0
5.448339381E0,-1.709995985E0,3.394700050E0,7.061619759E-1,3.866101323E0
5.453261765E0,-1.528053045E0,3.248842955E0,8.171550035E-1,3.682074002E0
5.458183998E0,-1.353165984E0,3.029474020E0,8.752800226E-1,3.431455396E0
5.463106152E0,-1.142783046E0,2.836407900E0,9.792860150E-1,3.210944404E0
5.468028305E0,-8.226860166E-1,2.599510908E0,1.007047057E0,2.906615389E0
5.472950377E0,-3.723179996E-1,2.404202938E0,1.194831014E0,2.710430521E0
5.477872529E0,-2.672280073E-1,2.191376925E0,7.739080191E-1,2.339332652E0
5.482794789E0,8.162699640E-2,1.909934998E0,9.440529943E-1,2.132076621E0
5.487716945E0,5.932490230E-1,1.578685045E0,8.882309794E-1,1.906081097E0
5.492639022E0,1.136240959E0,1.200765967E0,9.114140272E-1,1.887738847E0
5.497561261E0,1.724087000E0,7.512410283E-1,8.661040068E-1,2.070501199E0
5.502483416E0,2.358428001E0,1.818020046E-1,9.451929927E-1,2.547277841E0
5.507405493E0,2.776870012E0,-4.397290051E-1,9.387770295E-1,2.964063254E0
5.512327707E0,3.352895021E0,-1.111999035E0,4.317820072E-1,3.558775433E0
5.517250092E0,4.281312943E0,-1.571135998E0,-2.634229958E-1,4.568095939E0
5.522172248E0,4.979723930E0,-2.126876116E0,-1.004817963E0,5.507350685E0
5.527094382E0,5.674511909E0,-2.817702055E0,-1.640257955E0,6.544461509E0
5.532016536E0,6.077669144E0,-2.706152916E0,-2.427865982E0,7.082080136E0
5.536938676E0,5.858911991E0,-2.310235977E0,-4.334721088E0,7.645511553E0
5.541860830E0,5.824397087E0,-1.843922019E0,-4.945511818E0,7.860135939E0
5.546782743E0,5.491709232E0,-1.293833971E0,-5.849314213E0,8.126952282E0
5.551704895E0,4.505784035E0,4.757170081E-1,-7.647774220E0,8.889142082E0
5.556627270E0,4.049042225E0,2.262322903E0,-7.610681057E0,8.912649101E0
5.561549425E0,5.073188782E0,3.235131025E0,-7.279695034E0,9.444431002E0
5.566471579E0,6.960435867E0,3.597038984E0,-7.522177219E0,1.086137685E1
5.571393733E0,8.270309448E0,3.845401049E0,-7.146084785E0,1.158670166E1
5.576315887E0,8.309362411E0,4.448815823E0,-7.014324188E0,1.174896633E1
5.581238116E0,8.430710793E0,5.352962017E0,-7.052392006E0,1.222568280E1
5.586160292E0,8.151309967E0,6.546792030E0,-6.542422771E0,1.233319244E1
5.591082446E0,8.031124115E0,7.723713875E0,-6.197909832E0,1.275024693E1
5.596004599E0,8.347659111E0,8.179873466E0,-5.748609066E0,1.302460167E1
5.600926666E0,8.264582634E0,7.977636814E0,-5.263986111E0,1.263548832E1
5.605848895E0,7.339446068E0,7.134643078E0,-4.696631908E0,1.126183607E1
5.610771056E0,5.823197842E0,6.333138943E0,-3.047560930E0,9.127207108E0
5.615693210E0,4.125504971E0,4.742778778E0,-2.362643003E0,6.715342416E0
5.620615364E0,3.017018080E0,3.075644970E0,-2.180412054E0,4.828683754E0
5.625537541E0,2.520411968E0,1.395805001E0,-2.356304884E0,3.721951208E0
5.630459694E0,2.574016094E0,-2.173189968E-1,-2.645745039E0,3.697668618E0
5.635381847E0,2.600827932E0,-1.350878000E0,-2.375724077E0,3.772696939E0
5.640304235E0,2.245151043E0,-1.373059034E0,-1.540004969E0,3.049198193E0
5.645226391E0,2.089977026E0,-1.896430969E0,-7.340080142E-1,2.916028490E0
5.650148545E0,2.355597973E0,-2.605804920E0,5.935300142E-2,3.513201371E0
5.655070713E0,3.074290037E0,-3.432447910E0,8.790540099E-1,4.691022686E0
5.659992867E0,3.122090101E0,-4.278366089E0,2.020142078E0,5.668583333E0
5.664915006E0,3.199019909E0,-5.242642879E0,3.264062881E0,6.955080103E0
5.669836929E0,3.552773952E0,-6.371699810E0,4.573641777E0,8.610398384E0
5.674759341E0,3.877501965E0,-7.972606182E0,6.154858112E0,1.079257843E1
5.679681497E0,4.384177208E0,-9.193462372E0,8.392705917E0,1.319766164E1
5.684603661E0,3.856358051E0,-1.026376915E1,1.009540844E1,1.490415131E1
5.689525814E0,2.385922909E0,-1.115960884E1,1.121259594E1,1.599849385E1
5.694447968E0,9.020220041E-1,-1.139726067E1,1.215070629E1,1.668385021E1
5.699370136E0,-8.461300135E-1,-1.055990505E1,1.184025955E1,1.588770836E1
5.704292290E0,-2.024518967E0,-1.157188797E1,1.090234280E1,1.602711286E1
5.709214519E0,-4.013935089E0,-1.011843109E1,1.008134556E1,1.483670620E1
5.714136690E0,-4.415040016E0,-8.626304626E0,8.640598297E0,1.298328344E1
5.719058844E0,-3.208638906E0,-7.195242882E0,6.835137844E0,1.043005240E1
5.723981226E0,-2.263055086E0,-5.997117043E0,5.258312225E0,8.290758627E0
5.728903155E0,-2.225699902E0,-4.995901108E0,3.774239063E0,6.645122154E0
5.733825307E0,-2.406584024E0,-4.214426041E0,2.992957115E0,5.701826533E0
5.738747485E0,-2.281409979E0,-3.575726032E0,2.546336889E0,4.947168857E0
5.743669639E0,-1.849992037E0,-3.086409092E0,2.413791895E0,4.332987760E0
5.748591822E0,-1.622094989E0,-2.762676001E0,2.304531097E0,3.946445795E0
5.753513976E0,-1.638105989E0,-2.417135954E0,1.894484043E0,3.480661897E0
5.758436129E0,-1.201586008E0,-2.006491899E0,1.634616971E0,2.853382435E0
5.763358514E0,-6.785230041E-1,-1.654497027E0,1.279860973E0,2.199044791E0
5.768280670E0,-1.547890007E-1,-1.281317949E0,1.080541015E0,1.683242171E0
5.773202914E0,2.191119939E-1,-8.766310215E-1,8.036779761E-1,1.209293307E0
5.778125070E0,5.129989982E-1,-4.372589886E-1,5.826719999E-1,8.909938579E-1
5.783047223E0,4.182260036E-1,3.496300057E-2,5.270280242E-1,6.737165130E-1
5.787969309E0,-1.109199971E-1,6.024379730E-1,5.951480269E-1,8.540702144E-1
5.792891538E0,-6.486369967E-1,1.092178941E0,5.697159767E-1,1.392178540E0
5.797813694E0,-1.075309992E0,1.582659006E0,6.124010086E-1,2.009013714E0
5.802735848E0,-1.687620044E0,2.087737083E0,6.175130010E-1,2.754637880E0
5.807658002E0,-2.380266905E0,2.424784899E0,8.309010267E-1,3.497949236E0
5.812580156E0,-2.981283903E0,2.679260015E0,7.145469785E-1,4.071494238E0
5.817502333E0,-3.569972038E0,3.128209114E0,1.736879945E-1,4.749795799E0
5.822424487E0,-3.665010929E0,3.458007097E0,-4.271000158E-3,5.038862613E0
5.827346641E0,-3.840852976E0,3.667121887E0,-1.852219999E-1,5.313590284E0
5.832269019E0,-4.071533203E0,3.885361910E0,-1.827040017E-1,5.630879198E0
5.837191175E0,-4.004187107E0,3.913510084E0,-2.057469934E-1,5.602803530E0
5.842113328E0,-3.941046953E0,4.007156849E0,-1.848179996E-1,5.623461104E0
5.847035468E0,-3.688622952E0,4.031167984E0,-3.911550045E-1,5.478070539E0
5.851957622E0,-3.417146921E0,4.107636929E0,-5.356439948E-1,5.369961704E0
5.856879762E0,-3.319041967E0,4.230975151E0,-5.750839710E-1,5.408133863E0
5.861801916E0,-3.433779001E0,4.340841770E0,-4.200940132E-1,5.550695856E0
5.866723853E0,-3.388907909E0,4.337150097E0,-1.491580009E-1,5.506161630E0
5.871646005E0,-3.041762114E0,4.340207100E0,2.498580068E-1,5.305859351E0
5.876568149E0,-2.768095016E0,4.340878010E0,3.711630106E-1,5.161718115E0
5.881490303E0,-2.532686949E0,4.271152020E0,5.198150277E-1,4.992739771E0
5.886412678E0,-2.503688097E0,4.281867027E0,5.214200020E-1,4.987456079E0
5.891334834E0,-2.500849009E0,4.263239861E0,5.038350224E-1,4.968230027E0
5.896257063E0,-2.419249058E0,4.248072147E0,4.222700000E-1,4.906851834E0
5.901179204E0,-2.221004009E0,4.207194805E0,2.886669934E-1,4.766201377E0
5.906101358E0,-1.840497971E0,4.114199162E0,3.433609903E-1,4.520173038E0
5.911023511E0,-1.464246035E0,4.021965981E0,4.020569921E-1,4.299055318E0
5.915945646E0,-1.160822034E0,3.847990990E0,5.689299703E-1,4.059337848E0
5.920867723E0,-1.041942954E0,3.721745968E0,6.709089875E-1,3.922646688E0
5.925789942E0,-8.129600286E-1,3.542285919E0,6.327909827E-1,3.689053804E0
5.930712098E0,-3.155269921E-1,3.458828926E0,7.259770036E-1,3.548252729E0
5.935634243E0,-3.650499880E-2,3.649429083E0,9.036290050E-1,3.759815238E0
5.940556397E0,-1.268170029E-1,3.757200956E0,7.108319998E-1,3.825953961E0
5.945478550E0,-3.475649953E-1,3.887028933E0,4.226729870E-1,3.925359576E0
5.950400718E0,-3.735800087E-1,3.906661987E0,-2.282300033E-2,3.924549757E0
5.955322872E0,-2.483769953E-1,3.930785894E0,-2.933090031E-1,3.949531498E0
5.960245026E0,-5.797999911E-3,3.856283903E0,-3.077889979E-1,3.868551825E0
5.965167409E0,3.611159921E-1,3.805172920E0,-6.148589849E-1,3.871407662E0
5.970089564E0,7.206119895E-1,3.739254951E0,-7.840110064E-1,3.887927789E0
5.975011718E0,1.036738038E0,3.687330961E0,-1.114815950E0,3.989241780E0
5.979933848E0,1.361984968E0,3.654248953E0,-1.306215048E0,4.112752875E0
5.984855771E0,1.622028947E0,3.544270039E0,-1.485445023E0,4.171255797E0
5.989778144E0,1.821344018E0,3.457834959E0,-1.557165980E0,4.206980215E0
5.994700069E0,2.187009096E0,3.303914070E0,-1.548506975E0,4.254025249E0
5.999622447E0,2.402918100E0,3.254878044E0,-1.505030036E0,4.316637799E0
6.004544372E0,2.677153111E0,3.138156891E0,-1.469823003E0,4.378990421E0
6.009466754E0,2.947340012E0,3.042067051E0,-1.633838058E0,4.539869148E0
6.014388910E0,3.325985909E0,2.820440054E0,-1.596858978E0,4.644030895E0
6.019311064E0,3.614231110E0,2.628737926E0,-1.689064980E0,4.777642735E0
6.024233293E0,4.111238003E0,2.378176928E0,-1.768785954E0,5.068195652E0
6.029155449E0,4.679390907E0,2.033947945E0,-1.668809056E0,5.368292761E0
6.034077603E0,5.276625156E0,1.676251054E0,-1.649606943E0,5.777005600E0
6.038999985E0,5.893463135E0,1.271667957E0,-1.668107033E0,6.255607739E0
6.043922160E0,6.256875992E0,9.446640015E-1,-1.616579056E0,6.531019453E0
6.048844083E0,6.641950130E0,5.848680139E-1,-1.533156037E0,6.841647431E0
6.053766226E0,7.038866043E0,2.520169914E-1,-1.475494027E0,7.196265029E0
6.058688380E0,7.497963905E0,-2.992299944E-2,-1.500882983E0,7.646764534E0
6.063610534E0,7.911705971E0,-1.866790056E-1,-1.601727962E0,8.074371362E0
6.068532688E0,8.189639091E0,-2.348320037E-1,-1.532912016E0,8.335175689E0
6.073454826E0,8.207371712E0,-1.646929979E-1,-1.284901977E0,8.308973901E0
6.078376980E0,7.945314884E0,-2.707999898E-3,-1.109941959E0,8.022468890E0
6.083299134E0,7.803103924E0,2.102549970E-1,-9.074640274E-1,7.858506790E0
6.088221288E0,7.555870056E0,5.341010094E-1,-7.440299988E-1,7.611177099E0
6.093143673E0,7.089041233E0,8.779600263E-1,-5.352029800E-1,7.163222853E0
6.098065828E0,6.467623234E0,1.194126010E0,-3.499610126E-1,6.586240197E0
6.102987968E0,5.902552128E0,1.509053946E0,5.387299880E-2,6.092640457E0
6.107910122E0,5.449562073E0,1.758571029E0,9.996430278E-1,5.812880958E0
6.112832281E0,4.738724232E0,1.750370979E0,1.960134983E0,5.418619295E0
6.117754510E0,4.801310062E0,1.703686953E0,4.435991764E0,6.755231342E0
6.122676666E0,4.557065010E0,1.456311941E0,6.478062153E0,8.053134497E0
6.127598829E0,4.233487129E0,1.194005966E0,5.468083858E0,7.017692256E0
6.132520906E0,3.829555988E0,7.943120003E-1,3.810759068E0,5.460614919E0
6.137443058E0,2.746387959E0,8.564609885E-1,1.145853996E0,3.096635856E0
6.142365289E0,1.714179039E0,1.102098942E0,-7.851949930E-1,2.183932928E0
6.147287445E0,1.293238997E0,1.283498049E0,-1.523666024E0,2.375161573E0
6.152209599E0,1.324877977E0,1.251754045E0,-1.544342041E0,2.388970947E0
6.157131724E0,1.754523039E0,1.115061045E0,-9.785810113E-1,2.297679922E0
6.162053878E0,1.871938944E0,1.129559040E0,4.945609868E-1,2.241573020E0
6.166976260E0,1.975250006E0,1.094491959E0,1.645709038E0,2.794259020E0
6.171898416E0,2.048501968E0,1.069578052E0,2.455159903E0,3.371671347E0
6.176820570E0,2.070905924E0,9.927790165E-1,3.111498117E0,3.867257692E0
6.181742508E0,2.083882093E0,8.327959776E-1,3.400523901E0,4.074270060E0
6.186664660E0,2.221302032E0,5.723249912E-1,3.426970959E0,4.123817232E0
6.191586799E0,2.270726919E0,3.233340085E-1,2.777070045E0,3.601786176E0
6.196508953E0,2.251418114E0,8.169899881E-2,2.438585043E0,3.319978202E0
6.201431106E0,2.123282909E0,-1.214129999E-1,1.853111982E0,2.820832404E0
6.206353501E0,2.101037025E0,-3.149960041E-1,1.473338008E0,2.585402087E0
6.211275657E0,2.153455973E0,-5.230759978E-1,9.995239973E-1,2.431055192E0
6.216197580E0,1.912978053E0,-7.561360002E-1,7.735450268E-1,2.197634772E0
6.221119948E0,1.860653996E0,-1.016244054E0,8.916029930E-1,2.299943732E0
6.226042103E0,1.807083011E0,-1.264799953E0,8.595110178E-1,2.367282644E0
6.230964257E0,1.630259037E0,-1.506577015E0,8.137440085E-1,2.364254246E0
6.235886481E0,1.425889015E0,-1.720278978E0,5.703859925E-1,2.306048444E0
6.240808560E0,1.224931955E0,-1.949265957E0,2.491039932E-1,2.315631418E0
6.245730703E0,9.461240172E-1,-2.174437046E0,5.205019712E-1,2.427807535E0
6.250652934E0,8.503029943E-1,-2.405685902E0,1.006353974E0,2.742824851E0
6.255575022E0,8.153799772E-1,-2.676750898E0,1.527287960E0,3.187859531E0
6.260497250E0,9.182729721E-1,-2.779552937E0,1.670308948E0,3.370322204E0
6.265419329E0,9.154300094E-1,-2.912805080E0,1.736356974E0,3.512460829E0
6.270341481E0,8.218119740E-1,-3.286978006E0,2.295845032E0,4.092737928E0
6.275263712E0,1.391993999E0,-3.779742002E0,2.778820992E0,4.893459206E0
6.280185868E0,2.399563074E0,-3.867911100E0,3.397068024E0,5.679675201E0
6.285108041E0,2.984436035E0,-3.901577950E0,3.712585926E0,6.157309737E0
6.290030423E0,3.155090094E0,-3.929478884E0,3.820841074E0,6.324098695E0
6.294952579E0,3.020052910E0,-3.950398922E0,3.943725109E0,6.346600583E0
6.299874719E0,2.084347010E0,-4.212478161E0,3.672074080E0,5.964361052E0
6.304796642E0,1.935672998E0,-4.677145958E0,3.562513113E0,6.189832304E0
6.309718794E0,2.325216055E0,-4.484123230E0,4.358782768E0,6.671804708E0
6.314640948E0,2.915746927E0,-4.510787010E0,5.457670212E0,7.657345737E0
6.319563102E0,3.717459917E0,-4.496685982E0,6.664690971E0,8.857640702E0
6.324485486E0,3.993782043E0,-4.131361961E0,8.122714043E0,9.949720101E0
6.329407411E0,2.662636042E0,-3.595721006E0,7.995409012E0,9.162172532E0
6.334329794E0,1.270558953E0,-2.931237936E0,7.056315899E0,7.745842108E0
6.339251950E0,-1.686079949E-1,-2.160747051E0,6.153279781E0,6.523810891E0
6.344174104E0,-1.557399035E0,-1.640141964E0,5.154943943E0,5.629298755E0
6.349096332E0,-2.666518927E0,-1.124122977E0,4.114193916E0,5.029966922E0
6.354018502E0,-3.941618919E0,-5.323619843E-1,2.651175976E0,4.780010778E0
6.358940656E0,-5.206047058E0,-5.998599902E-2,1.525292993E0,5.425222853E0
6.363862810E0,-6.652369022E0,2.004519999E-1,2.640750110E-1,6.660625363E0
6.368784882E0,-7.596574783E0,4.415450096E-1,-5.555660129E-1,7.629650322E0
6.373707111E0,-8.261685371E0,6.457599998E-1,-1.039437056E0,8.351818996E0
6.378629267E0,-8.688469887E0,7.913510203E-1,-2.399523020E0,9.048395224E0
6.383551420E0,-8.476379395E0,7.759479880E-1,-2.377912998E0,8.837735748E0
6.388473560E0,-7.998575211E0,7.319470048E-1,-2.549559116E0,8.426933221E0
6.393395714E0,-7.783683777E0,1.706572056E0,-2.799148083E0,8.445907370E0
6.398317868E0,-7.673685074E0,1.814123988E0,-2.822994947E0,8.375308289E0
6.403240032E0,-7.907679081E0,2.117903948E0,-2.972875118E0,8.709471399E0
6.408162186E0,-7.966649055E0,2.299323082E0,-2.763288021E0,8.740145565E0
6.413084568E0,-8.143173218E0,2.506130934E0,-3.472884893E0,9.200700614E0
6.418006728E0,-8.264149666E0,2.827680111E0,-4.053442955E0,9.629244223E0
6.422928882E0,-8.279930115E0,3.137407064E0,-3.898098946E0,9.674489195E0
6.427851046E0,-8.327856064E0,3.343641996E0,-4.024013042E0,9.834928032E0
6.432773200E0,-7.905029774E0,3.547323942E0,-3.938219070E0,9.517487711E0
6.437695354E0,-7.163056850E0,3.644071102E0,-3.288374901E0,8.683435215E0
6.442617508E0,-6.657046795E0,3.690532923E0,-2.844640970E0,8.125779195E0
6.447539431E0,-5.901233196E0,3.719062090E0,-2.318480015E0,7.350600359E0
6.452461583E0,-5.164641857E0,3.663578033E0,-1.898340940E0,6.610524022E0
6.457383981E0,-4.621178150E0,3.653820038E0,-1.708263040E0,6.133828411E0
6.462306137E0,-4.155615807E0,3.606393099E0,-1.501536012E0,5.703492291E0
6.467228371E0,-3.672089100E0,3.564560890E0,-1.235061049E0,5.264571065E0
6.472150527E0,-3.297595024E0,3.466049910E0,-8.323349953E-1,4.855967099E0
6.477072680E0,-2.977557898E0,3.327445030E0,-5.024880171E-1,4.493354612E0
6.481994839E0,-2.885082006E0,3.184353113E0,-1.819439977E-1,4.300803012E0
6.486916993E0,-2.862890959E0,3.113033056E0,1.330559999E-1,4.231409145E0
6.491839123E0,-2.807365894E0,3.118180037E0,1.167879999E-1,4.197378878E0
6.496761200E0,-2.748228073E0,3.005568981E0,7.367999852E-2,4.073282606E0
6.501683424E0,-2.726543903E0,2.906536102E0,8.269499987E-2,3.986079808E0
6.506605580E0,-2.772341013E0,2.749452114E0,-5.263699964E-2,3.904885693E0
6.511527728E0,-2.825947046E0,2.574646950E0,-1.668100059E-1,3.826566242E0
6.516449882E0,-2.771157980E0,2.383656025E0,-2.295459956E-1,3.662488766E0
6.521372036E0,-2.575305939E0,2.123209000E0,-2.536129951E-1,3.347317835E0
6.526294414E0,-2.267911911E0,1.861768961E0,-3.082369864E-1,2.950358985E0
6.531216339E0,-1.956364989E0,1.563848972E0,-3.122319877E-1,2.523980268E0
6.536138722E0,-1.437772989E0,1.169129968E0,-2.925719917E-1,1.876074204E0
6.541060862E0,-1.048061013E0,7.906039953E-1,-4.187659919E-1,1.377988215E0
6.545983016E0,-7.700520158E-1,4.043659866E-1,-5.190410018E-1,1.012865006E0
6.550905170E0,-5.215229988E-1,3.407200053E-2,-6.996979713E-1,8.733409361E-1
6.555827281E0,-3.306980133E-1,-2.414419949E-1,-9.470319748E-1,1.031758196E0
6.560749204E0,-2.546269894E-1,-4.080379903E-1,-8.450250030E-1,9.723153608E-1
6.565671587E0,-4.466620088E-1,-2.553690076E-1,-7.496399879E-1,9.092196608E-1
6.570593743E0,-5.409259796E-1,-9.019600153E-1,-9.768570065E-1,1.435403217E0
6.575515670E0,-5.207909942E-1,-9.122120142E-1,-5.041319728E-1,1.165119335E0
6.580438052E0,8.149669766E-1,-1.247270942E0,-3.357520103E-1,1.527280389E0
6.585360285E0,2.330890894E0,-1.423007965E0,-1.436993957E0,3.085928654E0
6.590282372E0,3.408783913E0,-1.586956978E0,-1.048552990E0,3.903550126E0
6.595204524E0,4.784148216E0,-1.878608942E0,-1.527819991E0,5.362040623E0
6.600126755E0,6.692387104E0,-1.879407048E0,-1.739022970E0,7.165501859E0
6.605048920E0,7.605120182E0,-1.522428036E0,-2.394119024E0,8.117108230E0
6.609971074E0,6.845583916E0,-5.603399873E-1,-2.567089081E0,7.332526604E0
6.614893228E0,6.654919147E0,6.482070088E-1,-2.697331905E0,7.209973689E0
6.619815290E0,7.959034920E0,1.367334008E0,2.838830054E-1,8.080620564E0
6.624737750E0,9.072235107E0,1.872663975E0,1.309406042E0,9.355579319E0
6.629659589E0,9.632500648E0,2.408340931E0,1.811897039E0,1.009297507E1
6.634581741E0,9.575098038E0,3.381094933E0,1.101711988E0,1.021411155E1
6.639503895E0,9.409624100E0,4.762720108E0,-4.565770030E-1,1.055618260E1
6.644426125E0,1.045785332E1,5.782209873E0,-1.658743024E0,1.206449649E1
6.649348281E0,1.109896088E1,6.875638962E0,-3.223381042E0,1.344810503E1
6.654270420E0,1.142038345E1,7.314640999E0,-3.604459047E0,1.403286344E1
6.659192574E0,1.170791626E1,7.029097080E0,-4.134183884E0,1.426797061E1
6.664114957E0,1.149034023E1,6.201564789E0,-4.357801914E0,1.376509215E1
6.669037122E0,1.071798229E1,4.737889767E0,-4.000390053E0,1.238248216E1
6.673959276E0,8.797262192E0,2.851866007E0,-3.539613962E0,9.902213328E0
6.678881430E0,7.206319809E0,1.030025005E0,-2.995055914E0,7.871617155E0
6.683803564E0,6.178748131E0,-1.330790073E-1,-2.689415932E0,6.739999743E0
6.688725487E0,5.529678822E0,-8.609470129E-1,-1.980422974E0,5.936383814E0
6.693647875E0,4.896331787E0,-1.042163968E0,-1.007555008E0,5.106401649E0
6.698570031E0,4.345944881E0,-1.140115976E0,7.797060013E-1,4.560158199E0
6.703492278E0,4.246819973E0,-1.480046034E0,2.123738050E0,4.973558027E0
6.708414357E0,4.638555050E0,-2.053570032E0,3.020888090E0,5.904160201E0
6.713336509E0,5.234617233E0,-2.760844946E0,3.676417112E0,6.967031303E0
6.718258683E0,5.623764992E0,-3.576200962E0,4.015028000E0,7.780513855E0
6.723180837E0,5.443645000E0,-4.460073948E0,4.278416157E0,8.235919822E0
6.728103068E0,5.124485970E0,-5.433369160E0,4.164525032E0,8.551323033E0
6.733025227E0,4.423684120E0,-6.159947872E0,3.647002935E0,8.415139297E0
6.737947381E0,3.625952959E0,-6.983969212E0,4.022934914E0,8.837837186E0
6.742869535E0,2.503866911E0,-8.020273209E0,5.072236061E0,9.814362461E0
6.747791918E0,1.112102032E0,-9.089502335E0,6.023746967E0,1.096090102E1
6.752714074E0,-5.829769969E-1,-9.727634430E0,7.042953014E0,1.202372326E1
6.757636243E0,-2.441690922E0,-9.261075974E0,7.638907909E0,1.225080801E1
6.762558396E0,-4.503169060E0,-9.387523651E0,6.919610023E0,1.250140531E1
6.767480319E0,-6.048773766E0,-8.825152397E0,6.884771824E0,1.272285589E1
6.772402480E0,-6.128359795E0,-8.118785858E0,7.178330898E0,1.244989607E1
6.777324865E0,-5.422939777E0,-7.460937023E0,6.998402119E0,1.157806069E1
6.782247021E0,-4.128829002E0,-6.573429108E0,6.480310917E0,1.011195474E1
6.787168939E0,-2.332704067E0,-5.551159859E0,5.799781799E0,8.360284263E0
6.792091322E0,-1.285590053E0,-4.438539982E0,4.941132069E0,6.765217297E0
6.797013477E0,-1.053779006E0,-3.580570936E0,3.831285954E0,5.348802715E0
6.801935711E0,1.536200009E-2,-3.444984913E0,3.593231916E0,4.977898417E0
6.806857790E0,8.143839836E-1,-3.366269112E0,3.444072962E0,4.884324679E0
6.811779928E0,1.075924993E0,-2.950051069E0,3.150029898E0,4.447820169E0
6.816702082E0,1.111014962E0,-2.715017080E0,2.563020945E0,3.895477937E0
6.821624002E0,1.401075006E0,-2.475967884E0,2.273521900E0,3.641748202E0
6.826546385E0,1.740399003E0,-2.148314953E0,2.012671947E0,3.419809087E0
6.831468559E0,2.134332895E0,-1.877177000E0,1.919149995E0,3.429622005E0
6.836390713E0,2.087960005E0,-1.541950941E0,1.882966995E0,3.206673415E0
6.841312867E0,1.285151005E0,-1.008260965E0,1.949087977E0,2.543058635E0
6.846235031E0,1.463270038E-1,-4.516330063E-1,1.946905017E0,2.003951873E0
6.851157185E0,-8.552719951E-1,7.650899887E-2,1.886407971E0,2.072650199E0
6.856079414E0,-1.806208014E0,6.012560129E-1,1.984616995E0,2.750018327E0
6.861001569E0,-2.713378906E0,1.001634002E0,1.835093021E0,3.425384965E0
6.865923723E0,-3.296363115E0,1.547091961E0,1.354406953E0,3.885089641E0
6.870846106E0,-3.545469999E0,2.107578993E0,1.214679956E0,4.299731866E0
6.875768011E0,-4.656887054E0,2.635318995E0,-2.868939936E-1,5.358526981E0
6.880690163E0,-5.195741177E0,2.937668085E0,-7.680680156E-1,6.017935579E0
6.885612313E0,-4.974236965E0,3.102014065E0,2.178920060E-1,5.866259589E0
6.890534467E0,-4.652850151E0,3.155738115E0,8.522629738E-1,5.686303699E0
6.895456634E0,-4.440045834E0,3.226560116E0,1.002010942E0,5.579312064E0
6.900378788E0,-4.392944813E0,3.319768906E0,9.666299820E-1,5.590456443E0
6.905300942E0,-4.526799202E0,3.296691895E0,7.685369849E-1,5.652498347E0
6.910223101E0,-4.370770931E0,3.276742935E0,1.090639949E0,5.570473794E0
6.915145255E0,-4.164343834E0,3.469357014E0,1.293403029E0,5.572350406E0
6.920067640E0,-4.167335033E0,3.536223888E0,1.226366043E0,5.601386823E0
6.924989795E0,-4.082395077E0,3.503150940E0,1.256840944E0,5.524279612E0
6.929911949E0,-3.835005999E0,3.500157118E0,1.510555983E0,5.407416225E0
6.934834103E0,-3.585953951E0,3.553807020E0,1.806947947E0,5.362244955E0
6.939756242E0,-3.473459005E0,3.687763929E0,1.894356966E0,5.408614293E0
6.944678396E0,-3.234858036E0,3.802846909E0,1.936139941E0,5.354865918E0
6.949600550E0,-3.073844910E0,3.925582886E0,1.833554983E0,5.312310928E0
6.954522704E0,-3.027338028E0,4.087755203E0,1.743849039E0,5.377316023E0
6.959444872E0,-3.084297895E0,4.209403038E0,1.707880974E0,5.490794557E0
6.964367025E0,-2.883398056E0,4.283604145E0,1.423061013E0,5.356150807E0
6.969289178E0,-2.480952978E0,4.258845806E0,1.348976970E0,5.110052264E0
6.974211312E0,-2.212876081E0,4.236656189E0,1.245301962E0,4.939317077E0
6.979133466E0,-2.064143896E0,4.184956074E0,1.246907949E0,4.830044182E0
6.984055712E0,-1.845391035E0,4.044280052E0,1.185765982E0,4.600837986E0
6.988977867E0,-1.607769966E0,3.959644079E0,1.260887980E0,4.455731589E0
6.993900021E0,-1.181558967E0,3.883455038E0,1.343544960E0,4.275794392E0
6.998822394E0,-9.189659953E-1,3.827636957E0,1.301566958E0,4.146007685E0
7.003744319E0,-9.230189919E-1,3.811285973E0,1.113255024E0,4.076420191E0
7.008666399E0,-8.733429909E-1,3.764764071E0,9.456589818E-1,3.978749476E0
7.013588630E0,-6.364769936E-1,3.682912111E0,7.719269991E-1,3.816387805E0
7.018510776E0,-3.466359973E-1,3.659053087E0,6.230000257E-1,3.727861993E0
7.023432929E0,-4.443399981E-2,3.602195024E0,3.913139999E-1,3.623659755E0
7.028355312E0,2.749809921E-1,3.490782022E0,2.445670068E-1,3.510126308E0
7.033277232E0,7.242519855E-1,3.372699976E0,-1.450839937E-1,3.452636012E0
7.038199384E0,9.995679855E-1,3.260103941E0,-2.604170144E-1,3.419829072E0
7.043121538E0,1.323341012E0,3.114623070E0,-5.687149763E-1,3.431551402E0
7.048043923E0,1.628167987E0,2.876342058E0,-6.252359748E-1,3.363806572E0
7.052966078E0,2.002242088E0,2.686398029E0,-6.555290222E-1,3.414004401E0
7.057888247E0,2.224915028E0,2.422650099E0,-5.357180238E-1,3.332637721E0
7.062810401E0,2.506011963E0,2.111023903E0,-5.011590123E-1,3.314766694E0
7.067732555E0,3.060715914E0,1.866129994E0,-5.253329873E-1,3.623037097E0
7.072654769E0,3.786133051E0,1.513165951E0,-7.445549965E-1,4.144736037E0
7.077576848E0,4.470652103E0,1.079393983E0,-9.211940169E-1,4.690460534E0
7.082499020E0,5.123235226E0,7.796580195E-1,-1.354251981E0,5.356249082E0
7.087421173E0,5.796868801E0,5.470770001E-1,-1.655709982E0,6.053458242E0
7.092343404E0,6.393578053E0,2.334499955E-1,-1.770774007E0,6.638371773E0
7.097265564E0,6.920362949E0,-9.906399995E-2,-1.560775042E0,7.094875317E0
7.102187718E0,7.559123039E0,-3.765250146E-1,-1.087478995E0,7.646222778E0
7.107109795E0,8.300669670E0,-6.062120199E-1,-6.708459854E-1,8.349769118E0
7.112032015E0,8.530405998E0,-5.845040083E-1,-1.028102040E0,8.611995427E0
7.116954170E0,8.361063004E0,-3.497309983E-1,-1.086230993E0,8.438577137E0
7.121876324E0,8.043039322E0,4.499499872E-2,-1.054288983E0,8.111968401E0
7.126798692E0,7.790947914E0,4.557130039E-1,-7.607280016E-1,7.841253142E0
7.131720617E0,7.429254055E0,8.677300215E-1,-5.101490021E-1,7.497134333E0
7.136642779E0,7.218190193E0,1.175325990E0,-2.742120028E-1,7.318391426E0
7.141564933E0,7.109653950E0,1.488507986E0,8.354300261E-2,7.264283498E0
7.146487087E0,6.931225777E0,1.768872976E0,4.987010062E-1,7.170739506E0
7.151409240E0,6.713897228E0,2.033086061E0,1.086222053E0,7.098572622E0
7.156331394E0,6.321026802E0,2.338367939E0,1.523298025E0,6.909687498E0
7.161253543E0,5.958383083E0,2.705940962E0,1.765202999E0,6.777933836E0
7.166175928E0,5.752933025E0,3.003974915E0,1.793490052E0,6.733254061E0
7.171097853E0,5.666654110E0,3.160656929E0,1.886580944E0,6.757211606E0
7.176020246E0,5.476665020E0,3.166196108E0,4.257198811E0,7.625116343E0
7.180942478E0,5.392299175E0,2.914055109E0,7.115693092E0,9.391575787E0
7.185864632E0,5.327717781E0,2.609011889E0,9.599748611E0,1.128479921E1
7.190786762E0,4.954529762E0,2.346565962E0,1.138025379E1,1.263186104E1
7.195708839E0,4.977039814E0,2.155163050E0,1.300561142E1,1.409118808E1
7.200630986E0,5.415775776E0,1.856017947E0,1.291179657E1,1.412409008E1
7.205553140E0,4.808752060E0,1.282498002E0,1.048516369E1,1.160635839E1
7.210475289E0,4.011497021E0,1.010040998E0,7.004249096E0,8.134604881E0
7.215397442E0,3.216245890E0,1.121364951E0,3.941230059E0,5.209125776E0
7.220319596E0,3.073554993E0,1.307950020E0,1.075670958E0,3.509208110E0
7.225241832E0,3.337277889E0,1.139634967E0,7.972799987E-2,3.527399626E0
7.230163911E0,3.581564903E0,5.408790112E-1,2.330590039E-1,3.629665792E0
7.235086140E0,3.792351961E0,-1.250779927E-1,4.584510028E-1,3.822009318E0
7.240008281E0,3.704093933E0,-5.371239781E-1,5.398780107E-1,3.781571406E0
7.244930663E0,3.422252893E0,-6.689370275E-1,3.051989973E-1,3.500348274E0
7.249852819E0,2.904014111E0,-6.833710074E-1,1.933560073E-1,2.989595363E0
7.254774704E0,2.491852999E0,-6.190159917E-1,-1.968390048E-1,2.575122863E0
7.259696856E0,2.214839935E0,-5.691530108E-1,-3.815270066E-1,2.318407631E0
7.264618981E0,2.121627092E0,-5.863680243E-1,-1.604287982E0,2.723760068E0
7.269541135E0,1.878262997E0,-5.980700254E-1,-2.789748907E0,3.415883283E0
7.274463289E0,1.387526035E0,-7.018920183E-1,-3.185590982E0,3.544837205E0
7.279385442E0,7.447329760E-1,-7.566159964E-1,-2.527260065E0,2.741192880E0
7.284307596E0,3.391599953E-1,-8.945410252E-1,-1.524266005E0,1.799616626E0
7.289229750E0,3.975830078E-1,-1.013286948E0,-8.328310251E-1,1.370558355E0
7.294151904E0,6.709949970E-1,-1.151244044E0,6.618000101E-3,1.332531776E0
7.299074058E0,1.085651040E0,-1.320152044E0,2.855319977E-1,1.732907419E0
7.303996424E0,1.493831038E0,-1.493443966E0,5.172219872E-1,2.174724036E0
7.308918579E0,1.927485943E0,-1.704287052E0,8.462600112E-1,2.708496340E0
7.313840733E0,2.224721909E0,-1.906679988E0,1.211202025E0,3.170461558E0
7.318762891E0,2.376794100E0,-2.119479895E0,1.077144980E0,3.361783236E0
7.323685045E0,2.511393070E0,-2.301680088E0,1.029698968E0,3.558806871E0
7.328607195E0,2.423319101E0,-2.390731096E0,1.070173979E0,3.568381004E0
7.333529349E0,2.081727028E0,-2.369543076E0,1.143447995E0,3.354965741E0
7.338451483E0,1.845585942E0,-2.197532892E0,1.079550982E0,3.066067286E0
7.343373636E0,2.088404894E0,-2.142676115E0,1.421545029E0,3.312595086E0
7.348295789E0,1.685199976E0,-2.079741955E0,1.409394979E0,3.025164420E0
7.353217953E0,1.497753024E0,-2.056152105E0,1.726232052E0,3.074232050E0
7.358140107E0,1.631225944E0,-2.138391018E0,1.996680021E0,3.349678392E0
7.363062338E0,1.889791965E0,-2.231967926E0,2.197896957E0,3.658380179E0
7.367984513E0,2.265710115E0,-2.293263912E0,2.428819895E0,4.036293817E0
7.372906666E0,2.422144890E0,-2.174494982E0,2.715209961E0,4.238818164E0
7.377829049E0,2.277348042E0,-2.056052923E0,2.606870890E0,4.026095324E0
7.382751205E0,1.725132942E0,-1.918848038E0,2.660518885E0,3.706267961E0
7.387673359E0,1.050446033E0,-1.738512993E0,2.822755098E0,3.477615655E0
7.392595513E0,2.926279902E-1,-1.229145050E0,3.043118954E0,3.294996458E0
7.397517441E0,-9.315819740E-1,-6.769549847E-1,3.002408028E0,3.215675200E0
7.402439593E0,-1.757634044E0,-2.183389962E-1,3.243643999E0,3.695696922E0
7.407361746E0,-2.497037888E0,1.955800056E-1,3.300724983E0,4.143456910E0
7.412284150E0,-2.900180101E0,4.526779950E-1,3.503870964E0,4.570894193E0
7.417206306E0,-3.397068977E0,6.161649823E-1,3.697727919E0,5.058945412E0
7.422128229E0,-3.924139023E0,9.700940251E-1,3.866640091E0,5.593822940E0
7.427050390E0,-4.278514862E0,9.540389776E-1,3.631932020E0,5.692697954E0
7.431972775E0,-4.526240826E0,8.144000173E-1,2.914671898E0,5.444760387E0
7.436894930E0,-4.417990208E0,1.137495995E0,2.742326021E0,5.322864513E0
7.441817155E0,-4.623875141E0,1.305695057E0,2.114753008E0,5.249499137E0
7.446739234E0,-4.909801006E0,1.532960057E0,1.763555050E0,5.437484609E0
7.451661390E0,-5.079568863E0,1.891711950E0,1.396116018E0,5.597297015E0
7.456583544E0,-5.152709961E0,2.077702999E0,1.114056945E0,5.666426790E0
7.461505718E0,-5.279149055E0,2.159086943E0,8.659530282E-1,5.768964016E0
7.466427872E0,-5.389696121E0,2.215229034E0,7.040929794E-1,5.869566498E0
7.471350026E0,-5.621977806E0,2.270814896E0,4.784669876E-1,6.082118496E0
7.476272199E0,-5.750254154E0,2.306329966E0,4.735470116E-1,6.213600206E0
7.481194353E0,-5.948915005E0,2.233700991E0,4.035100043E-1,6.367246671E0
7.486116507E0,-6.370062828E0,2.386115074E0,2.890709937E-1,6.808436503E0
7.491038685E0,-6.363017082E0,2.535465002E0,4.441710114E-1,6.863953456E0
7.495960915E0,-6.344720840E0,2.615636110E0,3.551560044E-1,6.871911713E0
7.500883070E0,-6.329319000E0,2.692747116E0,4.568600059E-1,6.893466987E0
7.505805229E0,-6.264819145E0,2.795123100E0,5.622159839E-1,6.883077719E0
7.510727383E0,-5.995586872E0,2.847765923E0,7.779889703E-1,6.682970861E0
7.515649537E0,-5.642849922E0,2.893174887E0,1.009462953E0,6.421155007E0
7.520571699E0,-5.264939785E0,2.931636095E0,1.292953014E0,6.163262823E0
7.525493853E0,-4.826510906E0,3.092838049E0,1.513728976E0,5.928931619E0
7.530416003E0,-4.379921913E0,3.265583038E0,1.645720959E0,5.705799332E0
7.535338156E0,-3.994709015E0,3.388609886E0,1.676174998E0,5.499994518E0
7.540260309E0,-3.671252966E0,3.496746063E0,1.664505005E0,5.336282253E0
7.545182509E0,-3.349750996E0,3.493501902E0,1.600064993E0,5.097606816E0
7.550104663E0,-3.035797119E0,3.442346096E0,1.512117982E0,4.832422952E0
7.555026817E0,-2.787125111E0,3.281100988E0,1.313351035E0,4.500953346E0
7.559949241E0,-2.564909935E0,3.104785919E0,1.208832026E0,4.204727511E0
7.564871396E0,-2.312433958E0,2.861301899E0,1.033081055E0,3.821211304E0
7.569793550E0,-2.039645910E0,2.546346903E0,9.275259972E-1,3.391805193E0
7.574715704E0,-1.689345002E0,2.209621906E0,7.853279710E-1,2.890165311E0
7.579637858E0,-1.143039942E0,1.866626978E0,6.070569754E-1,2.271421307E0
7.584560007E0,-5.913789868E-1,1.524783969E0,3.845329881E-1,1.680047879E0
7.589482161E0,-9.301800281E-2,1.165719986E0,2.260590047E-1,1.191074350E0
7.594404320E0,4.697569907E-1,8.511710167E-1,-2.391000092E-2,9.724892894E-1
7.599326473E0,9.644920230E-1,4.884769917E-1,-3.083570004E-1,1.124250272E0
7.604248645E0,1.382429957E0,8.097799867E-2,-3.813300133E-1,1.436343483E0
7.609170798E0,1.657389045E0,-3.041580021E-1,-5.091490149E-1,1.760307716E0
7.614092952E0,1.978217006E0,-6.912580132E-1,-5.476199985E-1,2.165887307E0
7.619015101E0,2.375814915E0,-1.066835046E0,-6.574040055E-1,2.686040497E0
7.623937332E0,3.000782967E0,-1.436787963E0,-9.338369966E-1,3.455591064E0
7.628859487E0,3.845078945E0,-1.733870029E0,-1.269981027E0,4.404973233E0
7.633781636E0,4.811104774E0,-2.040870905E0,-1.496443987E0,5.436104102E0
7.638703790E0,5.760605812E0,-2.364579916E0,-1.551156044E0,6.417312722E0
7.643625886E0,6.260456085E0,-1.826357007E0,-2.169131994E0,6.872701355E0
7.648548038E0,6.969940186E0,-1.239948988E0,-3.149059057E0,7.748168340E0
7.653470202E0,7.349460125E0,-2.422890067E-1,-3.916929007E0,8.331602543E0
7.658392433E0,7.335035801E0,5.293290019E-1,-3.652762890E0,8.211310256E0
7.663314598E0,7.759969234E0,1.222612023E0,-4.167748928E0,8.892807982E0
7.668236752E0,8.297386169E0,1.986130953E0,-4.107481956E0,9.469041210E0
7.673158906E0,7.839118004E0,3.472564936E0,-3.317748070E0,9.193363398E0
7.678081055E0,6.756287098E0,5.230228901E0,-2.226550102E0,8.829509333E0
7.683003209E0,5.710958004E0,6.478398800E0,-1.079979986E-1,8.636918195E0
7.687925592E0,5.722996235E0,7.255206108E0,7.872380018E-1,9.274181648E0
7.692847747E0,5.769146919E0,7.791438103E0,3.757329881E-1,9.702099730E0
7.697769901E0,6.443295002E0,8.654891014E0,-6.154779792E-1,1.080749749E1
7.702692055E0,7.433623791E0,9.458297729E0,-1.352807999E0,1.210571138E1
7.707614199E0,8.437385559E0,9.596991539E0,-2.452950954E0,1.301186728E1
7.712536353E0,9.102236748E0,9.474652290E0,-3.853281975E0,1.369187832E1
7.717458521E0,9.854290009E0,8.927506447E0,-4.934906960E0,1.418311354E1
7.722380675E0,1.031019402E1,7.727327824E0,-6.027153969E0,1.422456611E1
7.727302903E0,1.058292389E1,6.358922958E0,-5.593078136E0,1.355421345E1
7.732225078E0,9.138545990E0,4.696306229E0,-4.499812126E0,1.121680098E1
7.737147155E0,8.129639626E0,3.291127920E0,-4.283111095E0,9.760512491E0
7.742069298E0,7.217084885E0,2.281878948E0,-3.724396944E0,8.435900566E0
7.746991529E0,6.537677765E0,1.572702050E0,-3.181678057E0,7.438931210E0
7.751913685E0,5.566580772E0,1.372938991E0,-2.206693888E0,6.143393271E0
7.756835828E0,4.648326874E0,1.259832025E0,-1.131757975E0,4.947220995E0
7.761757982E0,4.242956161E0,9.184820056E-1,-1.689990014E-1,4.344519173E0
7.766680136E0,4.272864819E0,3.693709970E-1,7.126640081E-1,4.347608386E0
7.771602301E0,4.883638859E0,-4.010590017E-1,1.460147977E0,5.113003906E0
7.776524455E0,5.673695087E0,-1.282938957E0,2.374193907E0,6.282797547E0
7.781446508E0,6.723014832E0,-2.162636042E0,3.148123980E0,7.732180007E0
7.786368967E0,6.837861061E0,-3.133804083E0,3.784179926E0,8.420040952E0
7.791290820E0,6.109191895E0,-3.989898920E0,4.510343075E0,8.578153277E0
7.796213048E0,5.285484791E0,-4.608964920E0,5.190887928E0,8.724919747E0
7.801135217E0,4.651116848E0,-5.195181847E0,5.620524883E0,8.956176769E0
7.806057371E0,4.110604763E0,-5.733809948E0,6.043616772E0,9.289722909E0
7.810979525E0,3.352344990E0,-6.010536194E0,6.220711231E0,9.276961275E0
7.815901910E0,2.239650965E0,-5.887484074E0,6.137683868E0,8.794866027E0
7.820824065E0,1.161540031E0,-5.705863953E0,6.202542782E0,8.507502316E0
7.825746219E0,8.186429739E-1,-5.607820988E0,6.235587120E0,8.426172279E0
7.830668373E0,4.809859991E-1,-5.346774101E0,6.262746811E0,8.248717381E0
7.835590296E0,9.702599794E-2,-4.879687786E0,5.819324970E0,7.595084598E0
7.840512433E0,2.012699991E-1,-4.289760113E0,5.211509228E0,6.752953418E0
7.845434587E0,5.821830034E-1,-3.507937908E0,4.568332195E0,5.789147127E0
7.850356741E0,8.940740228E-1,-2.690946102E0,3.820543051E0,4.757847043E0
7.855278895E0,1.243926048E0,-2.141066074E0,3.184477091E0,4.033907571E0
7.860201048E0,1.632704973E0,-1.805820942E0,2.899188995E0,3.785764340E0
7.865123433E0,1.985409975E0,-1.621016979E0,2.524207115E0,3.597383824E0
7.870045599E0,2.242955923E0,-1.365039945E0,2.152710915E0,3.395342340E0
7.874967753E0,2.293930054E0,-1.110556006E0,1.806522012E0,3.123935261E0
7.879889982E0,2.308474064E0,-8.519250154E-1,1.602941990E0,2.936707639E0
7.884812137E0,2.067195892E0,-5.974249840E-1,1.456552029E0,2.598414763E0
7.889734291E0,1.660989046E0,-3.149909973E-1,1.503087044E0,2.262161489E0
7.894656435E0,1.187477946E0,-6.854400039E-2,1.765288949E0,2.128625666E0
7.899578512E0,5.295199752E-1,2.000460029E-1,2.069299936E0,2.145323294E0
7.904500655E0,4.285399988E-2,3.754059970E-1,2.435266972E0,2.464404867E0
7.909422809E0,-3.975520134E-1,5.292019844E-1,2.866766930E0,2.942185408E0
7.914344939E0,-9.851300120E-1,7.526879907E-1,3.222517014E0,3.452772256E0
7.919267093E0,-1.427916050E0,8.702960014E-1,3.468054056E0,3.850163414E0
7.924189246E0,-1.490417957E0,9.154999852E-1,3.584728956E0,3.988705003E0
7.929111462E0,-2.121268988E0,1.002163053E0,3.796514988E0,4.462918211E0
7.934033618E0,-2.598153114E0,1.100152969E0,3.932501078E0,4.839969100E0
7.938955753E0,-2.830262899E0,1.098667026E0,3.970618963E0,4.998326946E0
7.943878136E0,-2.731630087E0,1.102722049E0,4.055910110E0,5.012804173E0
7.948800291E0,-3.129885912E0,1.450041056E0,3.764204979E0,5.105687418E0
7.953722426E0,-3.830444098E0,1.831590056E0,3.143908024E0,5.283103423E0
7.958644580E0,-4.589125156E0,2.320832968E0,2.519303083E0,5.726536771E0
7.963566487E0,-4.687877178E0,2.597068071E0,1.666599989E0,5.612353386E0
7.968488639E0,-4.787641048E0,2.911457062E0,-3.993999958E-1,5.617615988E0
7.973410793E0,-4.386672974E0,3.176644087E0,-1.251747012E0,5.558852221E0
7.978333178E0,-3.586802959E0,3.331629038E0,-1.079619050E0,5.013031499E0
7.983255103E0,-3.241636038E0,3.375518084E0,-5.983060002E-1,4.718081878E0
7.988177485E0,-3.048234940E0,3.457412004E0,-2.825179994E-1,4.617927071E0
7.993099641E0,-2.643317938E0,3.565253973E0,-5.504700169E-2,4.438602909E0
7.998021781E0,-2.163738966E0,3.684179068E0,1.020620018E-1,4.273799056E0
8.002943935E0,-1.941769004E0,3.879939079E0,-1.888800040E-2,4.338749921E0
8.007866164E0,-1.781929970E0,4.000011921E0,-3.032749891E-1,4.389458452E0
8.012788319E0,-1.568750024E0,4.058897018E0,-4.973739982E-1,4.379840469E0
8.017710473E0,-1.258466005E0,4.120962143E0,-5.739020109E-1,4.346887299E0
8.022632627E0,-7.458249927E-1,4.200662136E0,-5.360479951E-1,4.299902877E0
8.027554694E0,-6.721130013E-1,4.271938801E0,-7.406359911E-1,4.387452413E0
8.032476846E0,-7.549399734E-1,4.425627232E0,-8.547880054E-1,4.570204951E0
8.037399087E0,-8.199999928E-1,4.489099026E0,-1.056283951E0,4.684030939E0
8.042321243E0,-8.319150209E-1,4.533954144E0,-1.159154058E0,4.753152733E0
8.047243396E0,-8.274300098E-1,4.636374950E0,-1.317396998E0,4.890413884E0
8.052165468E0,-6.730260253E-1,4.647724152E0,-1.337986946E0,4.883084362E0
8.057087620E0,-3.714030087E-1,4.745032787E0,-1.565989971E0,5.010548966E0
8.062009851E0,-7.804699987E-2,4.760829926E0,-1.812351942E0,5.094723984E0
8.066932002E0,1.351529956E-1,4.798100948E0,-1.912214994E0,5.166875770E0
8.071854156E0,3.757779896E-1,4.832791805E0,-2.275060892E0,5.354716406E0
8.076776538E0,6.773430109E-1,4.750045776E0,-2.187802076E0,5.273348685E0
8.081698694E0,9.033499956E-1,4.676679134E0,-2.325500965E0,5.300502210E0
8.086620848E0,1.057525992E0,4.649720192E0,-2.421241999E0,5.347959602E0
8.091542776E0,1.286772966E0,4.571959019E0,-2.583504915E0,5.406763504E0
8.096464928E0,1.588726997E0,4.503218174E0,-2.577613115E0,5.426519766E0
8.101387091E0,1.838713050E0,4.400241852E0,-2.410767078E0,5.343668397E0
8.106309245E0,1.972102046E0,4.349184990E0,-2.832403898E0,5.552216530E0
8.111231419E0,2.276200056E0,4.285227776E0,-2.704631090E0,5.555114141E0
8.116153572E0,2.811044931E0,4.148495197E0,-2.594440937E0,5.642969944E0
8.121075726E0,3.007112026E0,4.015642166E0,-2.635133982E0,5.666748260E0
8.125998125E0,3.460618973E0,3.867444992E0,-2.562994003E0,5.788087137E0
8.130920281E0,3.819720984E0,3.665602922E0,-2.602899075E0,5.899321721E0
8.135842435E0,4.242272854E0,3.400429964E0,-2.568308115E0,6.012986735E0
8.140764603E0,4.701797009E0,3.160356045E0,-2.504467010E0,6.194118214E0
8.145686831E0,5.057084084E0,2.883111000E0,-2.425570965E0,6.306331974E0
8.150608987E0,5.346249104E0,2.602035999E0,-2.300246000E0,6.375272738E0
8.155531151E0,5.698257923E0,2.278562069E0,-2.099443913E0,6.486112333E0
8.160453228E0,6.053034782E0,1.972370982E0,-1.918707967E0,6.649129088E0
8.165375390E0,6.465610027E0,1.661869049E0,-1.743479967E0,6.899684352E0
8.170297544E0,6.852409840E0,1.301676989E0,-1.540089965E0,7.142951819E0
8.175219783E0,6.859187126E0,1.092957020E0,-1.291486979E0,7.064767632E0
8.180141862E0,6.871294022E0,1.016414046E0,-1.156949043E0,7.041754762E0
8.185064091E0,6.680254936E0,9.282839894E-1,-1.147585034E0,6.841379144E0
8.189986242E0,6.644574165E0,9.598760009E-1,-1.361045957E0,6.850122179E0
8.194908396E0,6.922157764E0,9.962469935E-1,-1.500283957E0,7.152595902E0
