"Time (s)","Linear Acceleration x (m/s^2)","Linear Acceleration y (m/s^2)","Linear Acceleration z (m/s^2)","Absolute acceleration (m/s^2)"
2.258431200E-2,1.149129868E-1,5.121228695E-1,-6.335682869E-1,8.227293614E-1
3.938868400E-2,2.532958984E-3,1.415874958E-1,-3.364417553E-1,3.650294366E-1
5.619859100E-2,-1.385736465E-1,-1.660239547E-1,1.771715879E-1,2.795646270E-1
7.300508900E-2,-5.357646942E-1,-2.149784267E-1,6.875890493E-1,8.977963200E-1
8.980148600E-2,-9.573793411E-1,-2.196293622E-1,1.002146006E0,1.403249399E0
1.066201220E-1,-9.786930084E-1,-3.349961042E-1,1.166322231E0,1.558964381E0
1.234210250E-1,-5.793390274E-1,-4.714474380E-1,1.185462952E0,1.401149102E0
1.402332810E-1,8.644104004E-3,-4.819446504E-1,7.345109582E-1,8.785509173E-1
1.570266680E-1,6.751489639E-1,-4.689230621E-1,-1.472139359E-2,8.221506438E-1
1.738468690E-1,7.459802628E-1,-5.230102539E-1,-1.409540176E-1,9.218971272E-1
1.906564090E-1,1.235513687E-1,-3.562633395E-1,9.099304676E-2,3.879023619E-1
2.074658780E-1,-4.781055450E-2,-6.655454636E-3,7.789504528E-2,9.163941443E-2
2.242722030E-1,1.406459808E-1,4.524778128E-1,-4.010739326E-1,6.207880173E-1
2.410767790E-1,1.820697784E-1,7.261587977E-1,-4.542260170E-1,8.756581972E-1
2.578910710E-1,-1.166238785E-1,7.686351538E-1,-1.288158894E-1,7.880321453E-1
2.746910480E-1,-2.231111526E-1,5.367850065E-1,-7.819247246E-2,5.865413817E-1
2.915068240E-1,-1.253395081E-1,2.841252089E-1,2.209380865E-1,3.811177832E-1
3.083082070E-1,-4.264574051E-1,-7.612614334E-2,1.132836461E0,1.212839460E0
3.251214900E-1,-1.022354126E0,-5.284962058E-1,1.954923391E0,2.268532932E0
3.419243660E-1,-1.363454819E0,-4.612047970E-1,2.617099762E0,2.986792606E0
3.587378340E-1,-1.532448769E0,-7.628067136E-1,2.859471798E0,3.332694447E0
3.755404060E-1,-2.083759308E0,-9.691339135E-1,2.828109264E0,3.644101454E0
3.923488060E-1,-2.960772038E0,-9.775264263E-1,2.681042910E0,4.112143000E0
4.091545320E-1,-3.923582077E0,-5.500266552E-1,2.139146328E0,4.502551793E0
4.259650090E-1,-4.455525398E0,-1.806600094E-1,2.131715417E-1,4.464278970E0
4.427772640E-1,-4.962912560E0,-1.161927730E-1,-1.608747244E0,5.218435544E0
4.595779850E-1,-5.408612251E0,-1.034780443E-1,-7.718771100E-1,5.464392781E0
4.763850950E-1,-5.148635387E0,-5.932533741E-1,-7.565820813E-1,5.237634234E0
4.931944520E-1,-4.036159039E0,1.360008359E0,-3.913795948E-1,4.277076163E0
5.099855180E-1,-2.116375446E0,2.316338778E0,1.024698853E0,3.300678431E0
5.268109280E-1,1.290413857E0,2.697374582E0,-3.830103636E0,4.859083393E0
5.436150260E-1,6.317317963E0,1.910399914E0,-1.909703732E0,6.870596947E0
5.604258680E-1,1.273388481E1,-9.845323563E-1,1.396635056E0,1.284802381E1
5.772309530E-1,1.789086342E1,-3.368203640E0,-2.972728729E0,1.844627078E1
5.940380000E-1,2.045159531E1,-1.991883039E0,-5.249204159E0,2.120824116E1
6.108429120E-1,2.160334778E1,-1.396417379E0,-4.014981270E0,2.201759958E1
6.276622190E-1,2.129727364E1,8.222270012E-1,-2.072139263E0,2.141363310E1
6.444499280E-1,2.079724884E1,2.917703867E0,-1.495102167E0,2.105407053E1
6.612684810E-1,1.994245529E1,2.157730103E0,-1.021857023E0,2.008485783E1
6.780819790E-1,1.413933372E1,2.436003685E0,-1.962713003E-1,1.434898584E1
6.948849070E-1,6.152836800E0,9.933213592E-1,3.650800586E-1,6.243186002E0
7.116786590E-1,-6.551475525E-1,-1.605154991E0,2.812789440E0,3.304167867E0
7.284963480E-1,-1.045922852E1,-8.454120636E0,-4.044658184E0,1.404374867E1
7.453101100E-1,-1.205410194E1,-4.949892521E0,-1.898311973E-1,1.303222335E1
7.621150710E-1,-8.709588051E0,3.247249603E0,7.438797474E0,1.190534594E1
7.789200030E-1,-9.820521355E0,2.217942476E0,7.748109818E0,1.270413768E1
7.957324440E-1,-1.038972378E1,1.798986673E0,6.246158600E0,1.225549715E1
8.125378130E-1,-1.059215641E1,1.756058216E0,4.590881824E0,1.167705930E1
8.293412090E-1,-1.069778538E1,1.774292588E0,2.931253910E0,1.123311959E1
8.461504240E-1,-1.086286449E1,1.874776483E0,2.069616079E0,1.121605646E1
8.608612290E-1,-1.111637878E1,2.189824104E0,1.556453228E0,1.143642223E1
8.776785920E-1,-1.087587643E1,2.576081991E0,8.571550846E-1,1.120962093E1
8.944751210E-1,-1.017429352E1,2.599345207E0,-1.434257627E-1,1.050206718E1
9.112804140E-1,-9.938124657E0,2.737893105E0,-9.656742811E-1,1.035349734E1
9.280888160E-1,-9.781933784E0,3.063335419E0,-1.538447857E0,1.036518568E1
9.448984620E-1,-9.710454941E0,3.244866133E0,-2.040433645E0,1.043961019E1
9.617050880E-1,-9.614253044E0,3.389941931E0,-2.402745724E0,1.047371734E1
9.785113180E-1,-9.484484673E0,3.528398752E0,-2.475806236E0,1.041799711E1
9.953223890E-1,-9.366755486E0,3.779447079E0,-2.612951994E0,1.043301714E1
1.012127829E0,-9.370794296E0,4.250932217E0,-2.907279015E0,1.069273032E1
1.028935146E0,-9.498210907E0,4.692642689E0,-3.371263266E0,1.111765811E1
1.045741381E0,-1.011441612E1,5.520893097E0,-3.446666956E0,1.202751791E1
1.062550311E0,-1.002008438E1,5.796975136E0,-3.129913568E0,1.199180431E1
1.079360669E0,-8.772987366E0,4.340466976E0,-2.930629969E0,1.021731633E1
1.096163928E0,-8.391650200E0,3.889986992E0,-3.938845634E0,1.005317347E1
1.112971729E0,-7.585648060E0,3.658769131E0,-4.833041191E0,9.710145992E0
1.129767928E0,-2.218972206E0,5.241797924E0,6.624001503E0,8.733709352E0
1.146586914E0,4.785301971E1,-8.608425140E0,2.758082390E1,5.589918001E1
1.163383682E0,8.826359558E1,-3.660718155E1,5.503665161E1,1.102704905E2
1.180202057E0,1.002920303E2,-2.131245804E1,2.643390656E1,1.058841992E2
1.197018464E0,4.730915833E1,-4.197927475E0,1.530253887E1,4.989936625E1
1.213817165E0,1.971733093E1,-2.792501450E-1,1.597298861E0,1.978389455E1
1.230629050E0,-2.356438160E0,5.210471153E0,2.694386244E-1,5.724893677E0
1.247434257E0,-9.537305832E0,-3.374917507E0,6.953545570E0,1.227607701E1
1.264239439E0,-4.230514526E1,7.987486124E-1,2.038681221E1,4.696791913E1
1.281048927E0,-4.836882782E1,2.422711134E0,-8.012858391E0,4.908786951E1
1.297854623E0,-2.888833618E1,-6.023238182E0,7.471571922E0,3.044075808E1
1.314674951E0,-1.551323700E1,-8.507343292E0,8.953553200E0,1.982930980E1
1.331472523E0,-1.176485062E1,-8.413400650E0,1.744869828E0,1.456851369E1
1.348277923E0,-9.017864227E0,-8.622557640E0,2.952120066E0,1.282128653E1
1.365084839E0,-7.594198227E0,-7.188740730E0,3.985141754E0,1.119067446E1
1.381872991E0,-7.573422909E0,-5.157473087E0,3.241863251E0,9.719359060E0
1.398706945E0,-7.731850147E0,-3.745831251E0,3.018556118E0,9.106285714E0
1.415507667E0,-8.031388283E0,-2.606499672E0,3.863367319E0,9.285614968E0
1.432314337E0,-8.349880219E0,-2.271362066E0,5.454351902E-1,8.670472008E0
1.449124747E0,-8.732336998E0,-1.862243056E0,-1.452316761E0,9.046042373E0
1.465930300E0,-9.173931122E0,-1.493084192E0,-2.324042082E0,9.580787245E0
1.482737978E0,-9.335186005E0,-1.278273582E0,-2.380976677E0,9.718473699E0
1.499545779E0,-9.345703125E0,-1.117966056E0,-2.128652573E0,9.650035066E0
1.516342548E0,-9.288677216E0,-1.031169653E0,-1.645861268E0,9.489557133E0
1.589887767E0,-8.040550232E0,-1.676592708E0,-8.279462457E-1,8.255113938E0
1.606696249E0,-7.291955948E0,-2.048540115E0,-5.148830414E-1,7.591721985E0
1.623498750E0,-3.775426865E0,-4.206101418E0,9.728477597E-1,5.735117253E0
1.640310222E0,1.317925358E1,-4.955254555E0,5.148505688E0,1.499181054E1
1.657115897E0,3.765692520E1,3.266125917E-2,2.087937927E1,4.305802551E1
1.673929577E0,7.402441406E1,4.257423878E-1,3.382926178E1,8.138927501E1
1.690737011E0,8.366889954E1,-1.074476051E1,2.750616550E0,8.440083246E1
1.707542738E0,4.797952271E1,-5.966995239E0,-9.274965286E0,4.923072833E1
1.724348789E0,2.821693802E1,-4.282122612E0,-6.187496185E0,2.920303536E1
1.741155288E0,1.788703537E1,-2.899428844E0,-4.208142757E0,1.860271989E1
1.757961085E0,5.820922852E0,-1.124932528E0,8.968504906E0,1.075093932E1
1.774779342E0,-1.513272476E1,1.306500554E0,1.461481667E1,2.107840527E1
1.791579157E0,-4.508559418E1,5.777990222E-1,4.869543076E0,4.535148403E1
1.808395686E0,-1.689914322E1,1.221607685E0,1.150740910E1,2.048154855E1
1.825195837E0,-1.024032402E1,-4.945769310E-1,1.533486366E1,1.844632446E1
1.841985143E0,-8.730404854E0,-3.145928383E0,1.646321297E1,1.889852416E1
1.858808670E0,-7.786103249E0,-4.132367134E0,1.233650303E1,1.516209645E1
1.875612729E0,-7.135194302E0,-3.502078056E0,3.185119390E0,8.562741031E0
1.892427010E0,-9.774744987E0,-2.450201273E0,-4.407919884E0,1.099904012E1
1.909231381E0,-1.208829403E1,-1.800865412E0,-7.190773010E0,1.418016873E1
1.926036701E0,-1.247912025E1,-1.141284466E0,-7.155189514E0,1.443009735E1
1.942849190E0,-1.187261581E1,-7.123288512E-1,-5.756295681E0,1.321368074E1
1.959652525E0,-1.091427135E1,-3.683361411E-1,-4.122085571E0,1.167255671E1
1.976466744E0,-1.009010792E1,-1.350668669E-1,-2.064935923E0,1.030012045E1
1.993267791E0,-9.491149902E0,-2.644876242E-1,8.005090356E-1,9.528520079E0
2.010078389E0,-9.459852219E0,-7.013840675E-1,4.691031456E0,1.058236834E1
2.026888214E0,-1.018574142E1,-5.659245253E-1,7.817127228E0,1.285212344E1
2.043691896E0,-1.057827473E1,-5.294720531E-1,8.238220215E0,1.341821557E1
2.060488415E0,-1.039221573E1,-8.562132120E-1,6.643696308E0,1.236405878E1
2.077307203E0,-1.035247326E1,-9.412832856E-1,5.003672123E0,1.153674354E1
2.094116487E0,-1.017414570E1,-1.133944035E0,3.391641617E0,1.078435453E1
2.110923749E0,-9.469685555E0,-1.686512232E0,2.579462051E0,9.958558755E0
2.127732141E0,-9.019606590E0,-1.990653157E0,2.056688070E0,9.462873182E0
2.144541100E0,-8.551994324E0,-2.079491138E0,1.073970437E0,8.866470708E0
2.161346601E0,9.511669159E0,-1.207917023E1,-7.208006859E0,1.698038770E1
2.178152216E0,7.994582367E1,5.531353474E0,9.516491890E0,8.070002609E1
2.194959345E0,1.222347870E2,1.975839043E1,2.997124481E1,1.273970669E2
2.211777318E0,8.841966248E1,-5.622248650E0,-1.140549660E0,8.860557119E1
2.228576187E0,4.057816696E1,-1.697464943E1,-1.446048355E1,4.630153282E1
2.245383418E0,1.974930954E1,-1.056209755E1,-1.315189934E1,2.597240051E1
2.262189562E0,2.189234734E0,-5.817420959E0,5.294704437E0,8.165110558E0
2.279001399E0,-4.003597260E1,1.411522150E0,1.758479691E1,4.375038947E1
2.295820980E0,-2.973179817E1,5.315394878E0,2.584523773E1,3.975184975E1
2.312613574E0,-8.859766006E0,-1.287143826E0,3.120793533E1,3.246671250E1
2.329420835E0,-6.374484062E0,-4.946511269E0,2.588505936E1,2.711343428E1
2.346230018E0,-4.988023758E0,-5.420478821E0,1.815597153E1,1.959339873E1
2.363014923E0,-3.670575619E0,-4.560369015E0,1.120746231E1,1.264425966E1
2.379842284E0,-5.103507042E0,-2.771714211E0,3.242744207E0,6.651584306E0
2.396651916E0,-9.167711258E0,-1.927152276E0,-4.292456627E0,1.030466057E1
2.413462005E0,-1.274929810E1,-1.055095077E0,-7.603073120E0,1.488168500E1
2.430266794E0,-1.292489815E1,-1.827245235E0,-6.843253136E0,1.473845076E1
2.447072766E0,-1.155720806E1,-2.929904461E0,-6.253237247E0,1.346314875E1
2.463882581E0,-1.067904091E1,-3.489545345E0,-5.745491028E0,1.261861754E1
2.480689017E0,-1.078216267E1,-3.233664751E0,-3.471457005E0,1.177975523E1
2.497501232E0,-1.065151310E1,-3.440116167E0,-2.771931171E0,1.153138036E1
2.514299085E0,-9.275379181E0,-4.483972073E0,-3.573763847E0,1.090460694E1
2.531117688E0,-8.809302330E0,-4.996327877E0,-2.805772781E0,1.050901807E1
2.547918909E0,-8.639326096E0,-5.403501511E0,-1.998966455E0,1.038420198E1
2.564735570E0,-8.635801315E0,-5.916235924E0,-1.085068226E0,1.052408119E1
2.581534671E0,-8.764253616E0,-6.484075546E0,-2.034537792E-1,1.090397958E1
2.598341414E0,-8.512516975E0,-6.258049488E0,-2.111067176E-1,1.056743558E1
2.615150171E0,-8.167776108E0,-5.659286499E0,-5.743271708E-1,9.953388464E0
2.631961127E0,-7.978935242E0,-5.446013451E0,-5.785248280E-1,9.677662996E0
2.648772477E0,-7.798453331E0,-5.316095829E0,-1.200005889E0,9.514029817E0
2.665574795E0,-6.219151497E0,-4.307330608E0,-4.485322952E0,8.794831681E0
2.682380072E0,1.511879826E1,-6.083166122E0,4.356703281E0,1.686901996E1
2.699187842E0,8.287498474E1,1.463757896E1,8.402631760E0,8.457615523E1
2.715994677E0,1.052161484E2,4.815874863E1,2.057307434E1,1.175285256E2
2.732806871E0,8.221777344E1,1.055481434E1,-3.392840576E1,8.956731040E1
2.749610542E0,3.994874573E1,-1.173489094E1,-2.811278534E1,5.023881617E1
2.766418151E0,1.897923279E1,-5.364953041E0,-1.301549435E1,2.363042724E1
2.783213805E0,5.253915787E0,-2.754422188E0,4.243695259E0,7.293793398E0
2.800032267E0,-1.065368843E1,-1.005908012E0,2.032696342E1,2.297168627E1
2.816829590E0,-2.445266342E1,-2.446991682E0,2.059413338E1,3.206304487E1
2.833648376E0,-1.154407978E1,-3.322546959E0,2.183138657E1,2.491815675E1
2.850434366E0,-8.811401367E0,-4.795461655E0,2.402090454E1,2.603154051E1
2.867265962E0,-9.002481461E0,-6.136329174E0,2.014020157E1,2.289818612E1
2.884060588E0,-7.942280293E0,-6.742837906E0,1.518911648E1,1.841887452E1
2.900878817E0,-9.800588608E0,-6.765886307E0,1.022715950E1,1.569788349E1
2.917691002E0,-1.216656685E1,-4.351840019E0,6.145470619E0,1.430841255E1
2.934492140E0,-1.340826416E1,-1.957101941E0,1.718409777E0,1.365886994E1
2.951304416E0,-1.348763466E1,1.031940699E0,1.855241656E-1,1.352832619E1
2.968107141E0,-1.372269154E1,1.810608149E0,7.311245054E-2,1.384181745E1
2.984919549E0,-1.375568199E1,1.736019850E0,-2.507925332E-1,1.386706346E1
3.001735183E0,-1.263697815E1,7.636873722E-1,-1.194958806E0,1.271630299E1
3.018527868E0,-1.169009399E1,-1.664973021E0,-2.880405903E0,1.215430668E1
3.035339899E0,-1.069836330E1,-3.978413105E0,-4.243041515E0,1.217728005E1
3.052147457E0,-9.953027725E0,-5.613100052E0,-4.974686146E0,1.246263035E1
3.068957312E0,-9.486421585E0,-6.379446983E0,-4.719011307E0,1.236764351E1
3.085772294E0,-8.675619125E0,-6.027960777E0,-3.754628658E0,1.121159733E1
3.165596862E0,1.218044281E0,-1.889878511E0,3.496864796E0,4.157323184E0
3.182392364E0,6.832309723E1,2.587926674E1,6.282462311E1,9.635722770E1
3.199202962E0,1.381242828E2,7.754994965E1,6.970736694E1,1.730648122E2
3.216017609E0,4.887358856E1,1.450720692E1,-1.416091156E1,5.291141774E1
3.232827881E0,1.705010414E1,9.513930321E0,2.528904343E1,3.194928229E1
3.249645621E0,4.122333050E0,3.663928986E0,8.818984985E0,1.040156246E1
3.266442284E0,-4.906542778E0,-5.677652359E-2,1.061188221E0,5.020309358E0
3.283238294E0,-9.270623207E0,-9.987574816E-1,-7.895589828E0,1.221811401E1
3.300053611E0,-1.012288284E1,-1.114314318E0,-7.892158508E0,1.288412276E1
3.316868422E0,-1.000642490E1,-2.056639433E0,-6.409783363E0,1.206000116E1
3.333672306E0,-9.406381607E0,6.576756239E-1,-3.929028749E0,1.021517592E1
3.358885003E0,-1.263390923E1,1.181493759E0,3.129917622E0,1.306935248E1
3.375692600E0,-1.474441719E1,1.659102678E0,9.681115150E0,1.771650221E1
3.392500707E0,-1.577201462E1,1.753527045E0,1.090198135E1,1.925316856E1
3.409306035E0,-2.263850021E1,-2.192123890E0,1.859724808E1,2.937966533E1
3.426104466E0,-2.210721970E1,-6.117323875E0,1.594099426E1,2.793324385E1
3.442923344E0,-2.034460640E1,-5.517524242E0,1.132812119E1,2.393057486E1
3.459737728E0,-2.147309113E1,-5.866985321E0,6.450709343E0,2.317599642E1
3.476536699E0,-1.987225342E1,-4.524812698E0,-3.761374950E-2,2.038091756E1
3.493336564E0,-1.466217804E1,-3.131605864E0,-5.845563412E0,1.609214193E1
3.510152034E0,-1.166621304E1,-2.306356192E0,-7.830645084E0,1.423863785E1
3.526948462E0,-8.900714874E0,7.591363192E-1,-8.831243515E0,1.256144400E1
3.543765551E0,-8.674250603E0,-9.326227903E-1,-5.345956326E0,1.023189415E1
3.560591733E0,-9.904275894E0,-3.092813492E0,-2.110600948E0,1.058842824E1
3.577384175E0,-8.544806480E0,-2.057946205E0,-7.801051140E-1,8.823685418E0
3.594191589E0,-4.918688774E0,2.074989557E0,-8.749443293E-1,5.409677301E0
3.610993559E0,-2.567008972E0,4.069594383E0,-2.812607288E0,5.573319771E0
3.627809388E0,-2.648703098E0,-1.870120287E0,-2.631891727E0,4.176102496E0
3.644610453E0,-3.470462799E0,-6.692313194E0,8.451493382E-1,7.585871429E0
3.661423757E0,2.641435623E0,-2.888095856E0,-2.378452301E0,4.579881567E0
3.678228740E0,2.225371170E1,5.196710587E0,2.212225676E0,2.295925582E1
3.695035981E0,6.114720535E1,6.238478088E1,7.002465248E0,8.763490245E1
3.711831931E0,7.295975494E1,9.098529053E1,-3.299835205E1,1.212037135E2
3.728650341E0,2.320988464E1,3.110322571E1,-4.512303543E1,5.951636515E1
3.745461571E0,-2.444012165E0,1.016913986E1,-4.187598419E1,4.316228276E1
3.762267865E0,-8.442233086E0,1.062316322E1,-2.680104256E1,3.004028593E1
3.779073275E0,-6.675080299E0,1.016001511E1,-6.174836636E0,1.363492616E1
3.795880631E0,-5.099550247E0,2.117340565E0,2.660942554E0,6.129368570E0
3.812690556E0,-3.421927929E0,-5.094461441E0,1.043443871E1,1.210539711E1
3.829496231E0,-2.893126488E0,-3.062136841E1,1.806904984E1,3.567252368E1
3.846305893E0,-3.398219585E0,-2.247274971E1,2.099361038E1,3.094033052E1
3.863110581E0,-5.458000660E0,-1.225473976E1,1.438149261E1,1.966712352E1
3.879919328E0,-1.015220070E1,-6.260741234E0,8.310897827E0,1.453736849E1
3.896734870E0,-1.662508774E1,-3.089581490E0,3.082956553E0,1.718847513E1
3.913522448E0,-1.804651451E1,-2.497095585E0,2.732053280E0,1.842216837E1
3.930341570E0,-1.572549057E1,-3.820639849E0,2.473508596E0,1.637090673E1
3.947151233E0,-1.292274570E1,-4.970565796E0,1.581240416E0,1.393571678E1
3.963959073E0,-1.031588745E1,-5.394978046E0,7.511066198E-1,1.166565400E1
3.980773945E0,-9.001288414E0,-6.392210484E0,1.483794689E0,1.113935342E1
3.997572835E0,-8.846182823E0,-7.770175934E0,3.689463139E0,1.233866779E1
4.014380136E0,-9.278764725E0,-9.349183083E0,5.171125412E0,1.415073274E1
4.031186727E0,-8.901302338E0,-1.057464790E1,4.501322746E0,1.453679016E1
4.047998718E0,-6.895020008E0,-9.414203644E0,-1.496624947E-1,1.167008698E1
4.064795644E0,-5.958976269E0,-8.501805305E0,-2.519759893E0,1.068359872E1
4.081611523E0,-5.640465260E0,-8.238933563E0,-3.274206877E0,1.050786873E1
4.098418530E0,-5.739010811E0,-8.244402885E0,-3.349673748E0,1.058899137E1
4.115224326E0,-5.924745560E0,-8.029311180E0,-3.341386318E0,1.052317968E1
4.132035778E0,-6.022245884E0,-7.646456242E0,-3.423585892E0,1.031778459E1
4.148839165E0,-5.966625214E0,-7.334595680E0,-2.986903429E0,9.915568684E0
4.165649295E0,-5.899343014E0,-6.785483360E0,-3.225958586E0,9.552582961E0
4.182452600E0,-4.576182365E-1,-2.749536037E0,5.281097412E0,5.971545256E0
4.199266990E0,4.136079407E1,3.497966003E1,4.547303391E1,7.072544602E1
4.216071488E0,8.159329987E1,7.639189148E1,5.138013840E1,1.230166911E2
4.232879999E0,7.559494019E1,4.470001221E1,3.402839279E1,9.418395611E1
4.249685939E0,4.834306717E1,-4.808351994E0,1.792249203E0,4.861465365E1
4.266495580E0,2.251546097E1,-6.590742588E0,2.373698711E0,2.358004063E1
4.283301489E0,6.998120308E0,-6.525173664E0,2.149699450E0,9.806772502E0
4.300109615E0,-5.045069695E0,-4.856601238E0,3.969426632E0,8.049574622E0
4.316916695E0,-2.602256393E1,2.769868374E0,1.284567356E1,2.915231267E1
4.333731727E0,-2.157029724E1,1.603844523E0,9.754743576E0,2.372772772E1
4.350534461E0,-1.302634525E1,-3.231472969E0,1.493613815E1,2.008024679E1
4.367337889E0,-9.665689468E0,-4.628220558E0,9.279043198E0,1.417556423E1
4.384150969E0,-9.576958656E0,-6.965467453E0,5.346432686E0,1.299308341E1
4.400941375E0,-1.236203575E1,-9.568853378E0,1.607152343E0,1.571514625E1
4.417773478E0,-1.312975025E1,-5.738545418E0,-1.001200676E0,1.436397048E1
4.434577779E0,-1.380030632E1,-5.474645138E0,-1.976090670E0,1.497748738E1
4.451378742E0,-1.472707176E1,-8.569517136E0,1.360793829E0,1.709312805E1
4.468185008E0,-1.409947205E1,-7.615703583E0,4.326797485E0,1.659865144E1
4.484994101E0,-1.405572319E1,-5.705608368E0,6.746422768E0,1.660215472E1
4.501791638E0,-1.465044689E1,-3.007172585E0,7.403275013E0,1.668793462E1
4.518604798E0,-1.425692081E1,-1.565850973E0,6.865773678E0,1.590127443E1
4.535404585E0,-1.345915031E1,-1.299065113E0,5.381448746E0,1.455322260E1
4.552226342E0,-1.296057224E1,-1.292651892E0,3.715204239E0,1.354437611E1
4.569031141E0,-1.183012295E1,-1.192605019E0,1.803735971E0,1.202612070E1
4.585839919E0,-1.010494804E1,-1.552805901E0,-3.204621673E-1,1.022858138E1
4.602647118E0,-8.684308052E0,-2.120656013E0,-1.704371095E0,9.100509277E0
4.619450697E0,-7.934431553E0,-2.339596748E0,-2.949913263E0,8.782420240E0
4.636264013E0,-7.202178001E0,-2.303305626E0,-3.931198835E0,8.522376960E0
4.653055852E0,-6.133295059E0,-1.890396476E0,-4.259872913E0,7.703078888E0
4.669879268E0,-6.410120964E0,-1.573914528E0,-3.971171856E0,7.703055473E0
4.686683255E0,3.681787109E1,9.884855747E-1,2.666269493E1,4.546902282E1
4.703493515E0,9.398703003E1,3.303688049E1,6.980352783E1,1.216450977E2
4.720298509E0,9.087626648E1,3.070787239E1,1.567053890E1,9.719585910E1
4.737107846E0,4.694643021E1,3.025055885E0,-1.011152744E0,4.705465654E1
4.753913542E0,2.226628304E1,-4.507086754E0,-4.610205650E0,2.318092292E1
4.770729297E0,8.545324326E0,-4.471732140E0,2.878075361E0,1.006490308E1
4.787529458E0,-1.699535751E1,-6.187786579E0,1.790287781E1,2.544884896E1
4.804340290E0,-2.636248970E1,-1.026073813E0,1.733050346E1,3.156548813E1
4.821144368E0,-2.216926765E1,5.460100248E-3,1.786445999E1,2.847130817E1
4.837952342E0,-1.557965088E1,2.580517232E-1,2.071217728E1,2.591884256E1
4.854796315E0,-1.079350281E1,-4.210308492E-1,1.536051273E1,1.877824063E1
4.930394279E0,-1.327334023E1,1.470534444E0,-2.258135796E0,1.354412085E1
4.947202417E0,-1.353511047E1,2.718976498E0,-2.833260059E0,1.409323991E1
4.964011346E0,-1.285269547E1,3.244275570E0,-2.210904598E0,1.343894355E1
4.980818933E0,-1.200879478E1,3.300066471E0,-1.475673914E0,1.254110061E1
4.997622777E0,-1.111487579E1,3.153234482E0,-4.714077711E-1,1.156311277E1
5.014432561E0,-1.043320656E1,3.123383999E0,4.272982776E-1,1.089907842E1
5.035441321E0,-1.077722359E1,4.098730087E0,2.642391205E0,1.182921670E1
5.052250382E0,-9.981643677E0,3.638497353E0,2.955321312E0,1.102750187E1
5.069059850E0,-9.220925331E0,2.888715267E0,2.580493450E0,1.000145421E1
5.085865272E0,-8.861482620E0,2.573821545E0,2.660887718E0,9.603684450E0
5.102674485E0,-8.452812195E0,2.323773384E0,2.468857288E0,9.107426258E0
5.119481462E0,-1.893385887E0,1.801507473E0,8.559271812E0,8.949383959E0
5.136288103E0,4.959387207E1,5.420994282E0,2.113476562E1,5.418134037E1
5.153096727E0,1.176976395E2,-2.675198936E1,4.180038452E1,1.277328283E2
5.169903124E0,1.064017410E2,-3.440177441E0,-5.750446320E1,1.209955727E2
5.186714384E0,4.952453232E1,-3.484806538E0,-3.145434189E1,5.877243233E1
5.203518849E0,2.570125580E0,-7.236428261E0,-1.192412376E-1,7.680212103E0
5.220325559E0,-1.616881561E1,-2.776675701E0,1.128661156E1,1.991301400E1
5.237134968E0,-6.207865715E0,3.748590350E-1,1.887695885E1,1.987505198E1
5.253928059E0,-5.073178291E0,1.994228005E0,1.892750549E1,1.969681567E1
5.270744579E0,-6.979137421E0,1.019485116E0,1.580896568E1,1.731101109E1
5.287558727E0,-9.368606567E0,-1.940139979E-1,1.451478958E1,1.727679215E1
5.304367799E0,-7.958346367E0,-1.030915618E0,1.427916431E1,1.637963972E1
5.321174226E0,-6.672523975E0,-1.550858855E0,9.350304604E0,1.159120078E1
5.337980360E0,-8.844368935E0,-2.362775564E0,1.540426612E0,9.283236740E0
5.354785190E0,-1.287747478E1,-1.545389891E0,-5.311451912E0,1.401531691E1
5.371596315E0,-1.587299252E1,-2.395768166E0,-7.536879539E0,1.773403929E1
5.388399113E0,-1.866698456E1,-1.381181955E0,-6.992438316E0,1.998144564E1
5.405210413E0,-1.857204056E1,-1.315933466E-1,-3.981818438E0,1.899454883E1
5.422016739E0,-1.378696823E1,-2.392098188E0,-5.687236786E0,1.510454531E1
5.438824893E0,-1.084413910E1,-3.250548601E0,-5.577892303E0,1.262039229E1
5.455634517E0,-9.599484444E0,-3.708087444E0,-4.516913891E0,1.123843962E1
5.472441554E0,-9.292675972E0,-4.668210983E0,-3.332245827E0,1.092015947E1
5.489247614E0,-9.313696861E0,-6.272451401E0,-4.095809460E0,1.195258344E1
5.506053513E0,-8.935099602E0,-6.286781311E0,-3.668649673E0,1.152469586E1
5.522866440E0,-8.516393661E0,-5.319450855E0,-2.698799372E0,1.039754954E1
5.556623146E0,-7.869007587E0,-3.852138519E0,-3.386000633E0,9.392829812E0
5.573283108E0,-7.436694622E0,-3.681326628E0,-3.549413681E0,9.025238508E0
5.590095945E0,-7.118875504E0,-3.260507345E0,-2.887210846E0,8.345374950E0
5.606901812E0,-4.811476707E0,-6.615953445E-1,1.244452953E0,5.013649336E0
5.623709380E0,1.133547592E1,5.019835472E0,8.550886154E0,1.506019311E1
5.640518146E0,7.252340698E1,8.370171547E0,6.083628082E1,9.503029726E1
5.657322936E0,9.606878662E1,4.646122360E1,3.122334671E1,1.111879240E2
5.674128245E0,4.780261993E1,1.250771141E1,2.549397278E1,5.560104284E1
5.690944203E0,2.991137886E1,-4.720707893E0,4.957201481E0,3.068467883E1
5.707741712E0,1.155291653E1,-4.448707581E0,8.710160255E-1,1.241046125E1
5.724550732E0,6.396188736E-1,-4.622340202E0,-2.287523270E0,5.196912926E0
5.741365552E0,-8.502943039E0,-2.010254860E0,2.046043158E0,8.973709240E0
5.758168378E0,-2.338674927E1,5.491397381E-1,8.589108467E0,2.492016011E1
5.774976078E0,-1.925731277E1,-3.840560913E0,1.215980816E1,2.309664343E1
5.791787590E0,-1.207095051E1,-5.342876911E0,1.087182808E1,1.710119369E1
5.808591861E0,-1.138276291E1,-6.900317192E0,1.405753803E1,1.935964990E1
5.825400465E0,-1.146334553E1,-6.091814995E0,1.853003311E1,2.262477906E1
5.842196009E0,-1.248257732E1,-4.366086960E0,1.473668671E1,1.980018654E1
5.859017247E0,-1.358958721E1,-2.265056849E0,5.457420349E0,1.481859642E1
5.875827163E0,-1.569709492E1,7.574448586E-1,7.030205727E-1,1.573107592E1
5.892631211E0,-1.609285736E1,-9.789049029E-1,-1.496366739E0,1.619189384E1
5.909437598E0,-1.386585426E1,-1.033621311E0,-5.644394159E-1,1.391577807E1
5.926247749E0,-1.229267120E1,-3.391407728E-1,1.571218967E0,1.239731870E1
5.943036729E0,-1.283433437E1,1.006372690E0,3.641150951E0,1.337874826E1
5.959859322E0,-1.374609661E1,1.829473972E0,3.988307476E0,1.442944017E1
5.976667692E0,-1.360674095E1,1.500690937E0,3.354344368E0,1.409422218E1
5.993478554E0,-1.191368866E1,-1.019513607E-1,2.291231871E0,1.213244061E1
6.010282235E0,-1.045723534E1,-1.518296480E0,7.625861168E-1,1.059436325E1
6.027084898E0,-9.626119614E0,-1.965553284E0,-6.464142799E-1,9.845985474E0
6.043902720E0,-9.222406387E0,-1.793166280E0,-1.271664739E0,9.480788790E0
6.060692015E0,-8.901708603E0,-1.744808197E0,-1.831946373E0,9.254231422E0
6.077519704E0,-7.084288120E0,-1.764708161E0,-4.206647873E0,8.425984773E0
6.094316518E0,-3.697797775E0,7.643222809E-2,-1.586123586E0,4.024343214E0
6.111131470E0,2.683603287E1,5.931310177E0,2.359958839E1,3.622559417E1
6.127937287E0,1.242634277E2,2.554579544E1,6.900533199E0,1.270496143E2
6.144744061E0,8.472344208E1,3.336426544E1,4.286117172E1,1.006395344E2
6.161547273E0,2.922312164E1,-2.074795246E0,1.132133293E1,3.140809121E1
6.178363823E0,1.133090305E1,-1.081570148E1,2.013699055E0,1.579315505E1
6.195168318E0,5.219888687E-1,-7.845593929E0,-2.931729794E0,8.391713536E0
6.211985630E0,-5.199630737E0,-5.393523693E0,-2.242573738E0,7.820191468E0
6.228781477E0,-1.454036522E1,-2.473333478E-1,6.035703659E0,1.574525685E1
6.245590947E0,-1.587493515E1,2.449163675E0,1.653854609E0,1.614766868E1
6.262399540E0,-8.932323456E0,-2.880333424E0,-4.637512207E0,1.046848807E1
6.279204045E0,-7.868322372E0,-5.507283211E0,-7.068514824E0,1.192495565E1
6.296011735E0,-1.038513851E1,-9.313371658E0,-8.875188828E0,1.653357101E1
6.312822333E0,-1.286254787E1,-1.141401672E1,-7.994541645E0,1.896411379E1
6.329627366E0,-1.574860477E1,-1.145038223E1,-5.890016556E0,2.034261784E1
6.346435412E0,-1.657830238E1,-9.589656830E0,-3.405590773E0,1.945249795E1
6.363231097E0,-1.513858795E1,-9.447877884E0,2.231255531E0,1.798381892E1
6.380050230E0,-1.308516502E1,-9.527406693E0,8.945547104E0,1.849367013E1
6.396860238E0,-1.183502197E1,-7.590148926E0,1.209624004E1,1.854715959E1
6.413664957E0,-1.307199574E1,-5.404881954E0,1.166319847E1,1.833357630E1
6.430451872E0,-1.554082775E1,-5.418313980E0,1.556978798E1,2.265598710E1
6.447284555E0,-1.296606541E1,-2.554494619E0,2.848184109E0,1.351874431E1
6.464078115E0,-1.074354744E1,-1.875860214E0,-2.154496908E0,1.111685747E1
6.480890411E0,-9.408400536E0,-2.847624302E0,-4.341370583E0,1.074590449E1
6.497711721E0,-8.813659668E0,-3.621550798E0,-4.466168404E0,1.052344464E1
6.514512594E0,-8.511822701E0,-3.848725319E0,-3.959901810E0,1.014616354E1
6.531321556E0,-8.116421700E0,-3.786137104E0,-3.730208158E0,9.701834274E0
6.548125857E0,-7.782104015E0,-3.487741470E0,-3.559914827E0,9.241129641E0
6.564922507E0,-7.471777439E0,-3.444473982E0,-3.808986425E0,9.066434619E0
6.581739108E0,-6.781632423E0,-3.171975851E0,-4.745119095E0,8.863866219E0
6.598552257E0,-1.211145878E0,-1.363345146E0,-3.482551575E-1,1.856573721E0
6.615358707E0,4.421383667E1,4.454958916E0,5.760993958E1,7.275723435E1
6.632165978E0,1.155952911E2,4.021202469E1,6.324454880E1,1.377648403E2
6.648971918E0,4.776970291E1,1.351187038E1,4.215513611E1,6.512734186E1
6.665785009E0,2.860132599E1,-9.253126144E0,1.666947174E1,3.437335421E1
6.682584010E0,1.277220154E1,-1.024096870E1,9.845170975E-1,1.640048310E1
6.699398350E0,3.288576126E0,-7.757147789E0,-6.628872871E0,1.072054244E1
6.716203548E0,-1.609415054E1,-1.236896753E0,1.091773319E1,1.948713661E1
6.733010769E0,-2.190718079E1,4.004044533E0,4.089577675E0,2.264247310E1
6.749819160E0,-1.780708885E1,1.324432850E0,-1.899680972E0,1.795704106E1
6.766625303E0,-1.248933506E1,-1.401154399E0,-1.406511068E0,1.264614555E1
6.783433928E0,-9.319536209E0,-4.166803360E0,-2.900262117E0,1.061261164E1
6.800241024E0,-8.119439125E0,-6.541558266E0,-3.327217579E0,1.094475459E1
6.817049957E0,-8.617000580E0,-9.000385284E0,-4.269816399E0,1.317159695E1
6.833856759E0,-1.034970284E1,-1.215522003E1,-4.688061237E0,1.663861896E1
6.850665211E0,-1.143940544E1,-1.236584091E1,-2.808622122E0,1.707812567E1
6.867471933E0,-1.160006905E1,-9.145269394E0,-4.724733829E-1,1.477906578E1
6.884278707E0,-1.108178043E1,-6.264912128E0,2.400824547E0,1.295449498E1
6.901088013E0,-1.013255405E1,-4.732449532E0,4.498311043E0,1.205402557E1
6.917876883E0,-9.541311264E0,-4.042937279E0,5.180581570E0,1.158535230E1
6.934696961E0,-1.031865120E1,-4.746632099E0,6.594387531E0,1.313358389E1
6.951505006E0,-1.074057007E1,-5.393105030E0,6.606122017E0,1.371445498E1
6.968322705E0,-1.064702988E1,-5.691505432E0,5.014240265E0,1.307268468E1
6.985112489E0,-1.034907818E1,-5.557267189E0,3.129275322E0,1.215643870E1
7.001933179E0,-9.736730576E0,-5.022980213E0,1.764256597E0,1.109715521E1
7.018744846E0,-8.906923294E0,-4.486505508E0,8.044700027E-1,1.000545782E1
7.035543705E0,-8.388399124E0,-4.346481800E0,-6.605285406E-2,9.447830803E0
7.052354496E0,-8.211052895E0,-4.259158611E0,-5.523268580E-1,9.266438727E0
7.073547648E0,-6.063906193E0,-4.146588326E0,-2.484995127E0,7.755021202E0
7.090172327E0,5.965793610E0,-5.659624577E0,3.809057713E0,9.062613552E0
7.106968094E0,5.391366959E1,9.766567230E0,1.488381004E1,5.677673296E1
7.123786708E0,9.947364044E1,4.571329880E1,2.030230331E1,1.113413416E2
7.140585984E0,6.407683563E1,1.558173656E1,1.848303986E1,6.848543014E1
7.157402585E0,2.980130959E1,-1.519491768E1,-1.822711945E1,3.809503195E1
7.174212359E0,1.517323780E1,-1.408981228E1,-6.156688690E0,2.160219366E1
7.191002693E0,2.211820602E0,-1.023393345E1,-7.862893939E-1,1.049970453E1
7.207825733E0,-2.376609802E1,-3.095358133E0,1.004799938E1,2.598790005E1
7.224633950E0,-1.635352707E1,2.028137207E0,5.619949341E0,1.741077307E1
7.241441170E0,-8.647557259E0,-7.890124917E-1,3.526957512E0,9.372417860E0
7.258247018E0,-8.537519455E0,-3.030743599E0,1.965321898E0,9.270228442E0
7.275068216E0,-7.329240322E0,-5.071575642E0,-1.419462442E0,9.025160210E0
7.291865335E0,-7.732019424E0,-6.251210690E0,-5.581317902E0,1.140231858E1
7.308670511E0,-9.380125999E0,-6.190223694E0,-8.531526566E0,1.411001696E1
7.325467948E0,-1.111699963E1,-4.962302685E0,-9.245532990E0,1.528698822E1
7.342288127E0,-1.259904099E1,-2.455726624E0,-8.787938118E0,1.555616545E1
7.359093914E0,-1.256742668E1,-1.059427261E0,-6.797616005E0,1.432725315E1
7.375900984E0,-1.111754513E1,-1.536338568E0,-3.111349583E0,1.164648626E1
7.392712039E0,-9.989622116E0,-2.770727158E0,1.068676591E0,1.042168646E1
7.409513879E0,-9.728693962E0,-3.445330143E0,4.384107113E0,1.121330376E1
7.426328984E0,-1.076622772E1,-4.261568069E0,7.459102154E0,1.377355534E1
7.443119886E0,-1.202045631E1,-5.140638351E0,9.467136383E0,1.614138172E1
7.459941165E0,-1.157557583E1,-5.083686829E0,6.979727268E0,1.444141338E1
7.476744594E0,-1.092800999E1,-4.608437538E0,4.576142311E0,1.271220584E1
7.493552078E0,-9.604092598E0,-3.985516787E0,2.793294430E0,1.076686735E1
7.510365290E0,-8.644588470E0,-3.649107456E0,1.235590100E0,9.464226220E0
7.527171861E0,-8.284649849E0,-3.402067184E0,-2.993925214E-1,8.960977632E0
7.543978450E0,-5.655550480E0,-3.249394178E0,-1.629737139E0,6.723083883E0
7.560771256E0,4.144889069E1,-5.751445770E0,-1.029539943E0,4.185868632E1
7.577581296E0,1.163566589E2,2.777719116E1,-9.686384201E0,1.200177923E2
7.594424638E0,1.012012558E2,2.965830612E1,9.247632027E0,1.058623068E2
7.611206999E0,4.586017609E1,-2.042538643E1,-2.433880615E1,5.579184211E1
7.628006967E0,1.389860725E1,-2.104334068E1,-1.109282780E1,2.755075860E1
7.644820096E0,-8.436920166E0,-1.025021172E1,2.233394146E0,1.346241106E1
7.661636392E0,-1.747325134E1,-1.043469191E0,9.960000992E0,2.013963655E1
7.678439229E0,-1.540474796E1,1.101597071E0,7.029811382E0,1.696873666E1
7.695250397E0,-1.317547989E1,-6.711769700E-1,7.727113724E0,1.528895141E1
7.712057007E0,-9.537759781E0,-3.896375895E0,7.084887028E0,1.250384865E1
7.728860544E0,-1.135663223E1,-3.371196985E0,9.046945572E-1,1.188093166E1
7.745667380E0,-1.586116886E1,-3.236778021E0,-3.496765852E0,1.656142449E1
7.762479717E0,-1.811606026E1,-2.531573772E0,-3.494920969E0,1.862296909E1
7.779284862E0,-1.626133919E1,-1.959367871E0,4.457461834E-1,1.638502256E1
7.796093050E0,-1.339449692E1,-2.027653694E0,5.868236542E0,1.476347274E1
7.812901440E0,-1.164002895E1,-1.760614872E0,8.905632973E0,1.476144767E1
7.829707613E0,-1.074827576E1,-1.126535535E0,8.463101387E0,1.372656545E1
7.846517775E0,-1.113850403E1,-4.084686041E-1,7.017825127E0,1.317129409E1
7.863323551E0,-1.308387089E1,2.852361202E-1,6.780572891E0,1.473924034E1
7.880129430E0,-1.561326027E1,-4.359271526E-1,7.168860435E0,1.718593869E1
7.896937984E0,-1.762930870E1,-2.908820868E0,6.781435013E0,1.911129574E1
7.913734013E0,-1.557688141E1,-4.071586132E0,1.542365313E0,1.617392775E1
7.930553309E0,-1.294058990E1,-4.548337936E0,-2.073081970E0,1.387241558E1
7.947363867E0,-1.134876633E1,-4.716919899E0,-2.766296148E0,1.259746899E1
7.964168289E0,-1.026141357E1,-4.553976059E0,-2.134801388E0,1.142771558E1
7.980976639E0,-9.522944450E0,-3.978102446E0,-1.186284542E0,1.038840898E1
7.997783374E0,-9.124604225E0,-3.427188396E0,-6.548954248E-1,9.768976947E0
8.014579588E0,-8.864883423E0,-3.117786407E0,-4.320658445E-1,9.407094720E0
8.031401650E0,-8.443345070E0,-2.624613047E0,-2.733728588E-1,8.846095316E0
8.048207488E0,-8.055518150E0,-2.439751625E0,-9.508675337E-1,8.470413787E0
8.065002054E0,-4.334461212E0,-1.831755161E0,-2.720613480E-1,4.713480492E0
8.081821054E0,4.558217621E1,-6.673184395E0,1.786028671E1,4.940906819E1
8.098629730E0,1.303485107E2,3.468168259E1,5.255377197E1,1.447599817E2
8.115425172E0,1.205095673E2,1.008968163E1,-6.286100769E1,1.362933005E2
8.132244020E0,5.580938339E1,-5.693187714E0,-2.811528206E1,6.275004977E1
8.149054495E0,-6.956307411E0,-1.295656586E1,1.014630318E1,1.786645683E1
8.165858378E0,-1.033703423E1,-3.041296721E0,1.690894723E0,1.090701092E1
8.182660005E0,-9.820991516E0,1.215840816E0,4.816041470E0,1.100565303E1
8.199470034E0,-1.506881332E1,2.414412975E0,8.102420807E0,1.727853431E1
8.216288191E0,-1.343823242E1,-1.823812723E0,4.134314537E0,1.417762110E1
8.233088401E0,-1.291485786E1,3.973984718E-1,5.860612392E0,1.418796169E1
8.249901257E0,-1.269605064E1,2.968665123E0,9.102431297E0,1.590147572E1
8.266707148E0,-1.424547958E1,4.049909592E0,1.038015175E1,1.808543631E1
8.283514369E0,-1.583205605E1,4.427850246E0,9.313591957E0,1.889451909E1
8.300320297E0,-1.655445480E1,4.875261307E0,7.738186359E0,1.891289705E1
8.317129867E0,-1.608847427E1,4.496668339E0,6.210316181E0,1.782209465E1
8.333935838E0,-1.540841675E1,2.809460640E0,5.010072708E0,1.644424533E1
8.350744909E0,-1.379385376E1,2.246324539E0,4.743158817E0,1.475852063E1
8.367547217E0,-1.241217041E1,2.195059776E0,3.668103218E0,1.312765184E1
8.384363156E0,-1.430044365E1,3.556553125E0,3.938513756E0,1.525331601E1
8.401166705E0,-1.602718163E1,4.271144867E0,4.635312557E0,1.722206003E1
8.417977029E0,-1.417476845E1,2.724343300E0,6.907474995E-1,1.445071760E1
8.434784768E0,-1.136817455E1,-6.384772062E-2,-5.856848240E0,1.278835957E1
8.451591734E0,-1.041966534E1,-1.526828766E0,-9.267176628E0,1.402787206E1
8.468396616E0,-1.000649834E1,-9.286736250E-1,-8.411804199E0,1.310537651E1
8.485206796E0,-9.568981171E0,-1.867111027E-2,-6.333074570E0,1.147491101E1
8.501998992E0,-9.071833611E0,2.371212840E-2,-5.662913799E0,1.069426575E1
8.518819834E0,-8.246887207E0,2.228020579E-1,-4.806248665E0,9.547817321E0
8.535616059E0,-2.477285385E0,7.234181166E-1,-1.370525742E1,1.394612339E1
8.552436310E0,2.694740295E0,-2.570172250E-1,-1.329546738E1,1.356823997E1
8.569228680E0,-2.746801376E-1,4.964680672E0,9.460577965E-1,5.061474953E0
8.644877374E0,-4.445785999E0,-1.512002563E1,1.649646950E1,2.281476921E1
8.661683944E0,-8.059016228E0,-1.914899349E0,-1.418016672E0,8.403889181E0
8.678504095E0,-1.251396561E1,1.637105346E0,1.635236382E0,1.272609316E1
8.695299972E0,-1.807983780E1,2.042874813E0,1.298794460E1,2.235487816E1
8.712108435E0,-1.254551506E1,7.986031771E-1,1.143473244E1,1.699355234E1
8.728914404E0,-1.241188812E1,7.364602089E-1,5.161777496E0,1.346258843E1
8.745729041E0,-1.529852200E1,-8.155015707E-1,2.883182526E0,1.558918085E1
8.762532416E0,-1.781316757E1,-1.881819010E0,9.301389456E-1,1.793642496E1
8.779336189E0,-1.872477722E1,-1.561171532E0,3.037034512E0,1.903360494E1
8.796145088E0,-1.855007935E1,8.586962223E-1,5.518153191E0,1.937247577E1
8.812946836E0,-1.870299149E1,5.101915359E0,8.410464287E0,2.113213999E1
8.829746662E0,-1.613415337E1,5.089892864E0,1.030695343E1,1.981038120E1
8.846570943E0,-1.416047478E1,4.490413666E0,9.297733307E0,1.752514495E1
8.863372496E0,-1.389787769E1,4.301295280E0,7.715189934E0,1.646743153E1
8.880186920E0,-1.861946106E1,8.200782776E0,1.469443512E1,2.509708333E1
8.896994558E0,-1.102446556E1,3.203455925E0,-4.382540584E-1,1.148882228E1
8.913795939E0,-8.953560829E0,-1.608963490E0,-9.369938850E0,1.305950876E1
8.930604777E0,-9.697560310E0,-2.954817295E0,-1.457483292E1,1.775385524E1
8.947423830E0,-1.035341930E1,-3.085093021E0,-1.277127075E1,1.672771493E1
8.964223441E0,-1.076468849E1,-2.652058125E0,-7.042485237E0,1.313425022E1
8.981027976E0,-1.031184196E1,-2.288448572E0,-3.345443726E0,1.107984997E1
8.997835309E0,-9.674056053E0,-2.175671577E0,-1.584980130E0,1.004156708E1
9.012527720E0,-8.900365829E0,-1.800521016E0,-1.387682557E0,9.186079180E0
9.029355131E0,-8.584223747E0,-1.519447923E0,-1.232014656E0,8.804287560E0
9.046159646E0,-8.557670593E0,-1.152873039E0,-9.674762487E-1,8.689007568E0
9.062968866E0,-8.133196831E0,-1.029313922E0,-1.001780748E0,8.259052155E0
9.079775552E0,-6.841629505E0,-8.854630589E-1,-2.363224983E0,7.292240495E0
9.096583343E0,-4.258988380E0,3.146473408E0,-1.405447841E0,5.478554605E0
9.113390239E0,3.696290970E1,5.903761864E0,1.362477303E1,3.983397466E1
9.130199626E0,1.250935287E2,8.279860497E0,3.432796097E1,1.299821370E2
9.147005606E0,1.183351288E2,3.601530838E1,-2.176808929E1,1.255952024E2
9.163812837E0,4.586899567E1,-2.575663090E0,-6.572685719E0,4.640904008E1
9.180623638E0,5.433376312E0,-1.095488453E1,6.125821471E-1,1.224362406E1
9.197417672E0,-1.858501816E1,-7.043431282E0,7.592906475E0,2.127592660E1
9.214237165E0,-1.592618942E1,8.368166685E-1,7.982355118E0,1.783428622E1
9.231043241E0,-1.704880524E1,4.304150105E0,7.973536491E0,1.930711662E1
9.247855183E0,-1.409028530E1,2.032016754E0,9.055245399E0,1.687195013E1
9.264647358E0,-9.536490440E0,-1.170493364E0,1.126682377E1,1.480729626E1
9.281468235E0,-9.170902252E0,-3.304435015E0,1.029687500E1,1.417922331E1
9.298268697E0,-1.094913483E1,-4.095309734E0,6.668681622E0,1.345832195E1
9.315084265E0,-1.482142639E1,-3.326178551E0,3.200291395E0,1.552353082E1
9.331888636E0,-1.741838074E1,-2.282132626E0,1.672352314E0,1.764666765E1
9.348706483E0,-1.744984055E1,-1.577363491E0,1.668155193E0,1.760022024E1
9.365508079E0,-1.507950306E1,-8.956942558E-1,2.167385578E0,1.526077459E1
9.382318071E0,-1.262790585E1,-3.506986201E-1,2.924703360E0,1.296691503E1
9.399123461E0,-1.125627518E1,3.485004902E-1,3.081495762E0,1.167564986E1
9.415926552E0,-1.130318260E1,1.288838148E0,3.518113613E0,1.190798741E1
9.432736428E0,-1.230355263E1,2.215898752E0,4.523345470E0,1.329467069E1
9.449544269E0,-1.328863335E1,2.465023994E0,4.909125328E0,1.437927783E1
9.466352717E0,-1.379611301E1,2.174713850E0,4.564710140E0,1.469349153E1
9.483158228E0,-1.380095482E1,2.275917530E0,2.816281080E0,1.426806201E1
9.499965952E0,-1.225221252E1,1.713356853E0,5.394530296E-2,1.237154855E1
9.516773621E0,-1.036800289E1,7.431718111E-1,-1.087602019E0,1.045134759E1
9.533582540E0,-9.125404358E0,2.662574947E-1,-1.413886309E0,9.238126014E0
9.550389024E0,-8.381059647E0,1.616884768E-1,-1.764452100E0,8.566305807E0
9.567196555E0,-7.329660892E0,1.398611367E-1,-3.755399227E0,8.236899495E0
9.584003883E0,-6.509913445E0,-7.068036497E-2,-5.310407639E0,8.401452140E0
9.600814735E0,-7.963571548E-1,4.429166913E-1,-1.195543408E0,1.503224519E0
9.617622567E0,3.978583527E1,2.915005445E0,3.944595337E1,5.610163261E1
9.634426908E0,1.264833755E2,1.339886069E0,4.823947525E1,1.353768317E2
9.651238279E0,4.381182098E1,1.122036362E1,1.431439114E1,4.743705315E1
9.668042241E0,2.439973068E1,-1.153155327E1,1.729422951E1,3.205329862E1
9.684838317E0,1.485013962E1,-1.063136101E1,-1.977095604E-1,1.826448939E1
9.701647242E0,7.676904678E0,-4.804320812E0,-8.576780319E0,1.247307198E1
9.718490290E0,1.961122513E0,-2.227989197E0,-1.687106133E0,3.414127191E0
9.735273245E0,-6.342074394E0,-2.320069671E-1,5.522413254E0,8.412656120E0
9.752075826E0,-2.087365532E1,1.593714237E0,9.279927254E0,2.289904935E1
9.768889853E0,-1.104100418E1,-1.081309557E0,3.656386137E-1,1.109985114E1
9.785680631E0,-7.973917007E0,-3.025412560E0,-3.437440157E0,9.195241619E0
9.802502098E0,-8.552867889E0,-3.703860521E0,-4.966342926E0,1.056099872E1
9.819314338E0,-1.201707554E1,-8.514440060E-1,-7.066890717E0,1.396696122E1
9.836118584E0,-1.264122772E1,-2.546046495E0,-7.915243149E0,1.513056725E1
9.852928526E0,-1.354440403E1,-5.557238579E0,-8.046096802E0,1.670549176E1
9.869734099E0,-1.402212143E1,-6.960426331E0,-3.893753052E0,1.613160677E1
9.886542424E0,-1.213896942E1,-6.612972260E0,1.684104443E0,1.392559473E1
9.903352646E0,-1.034016323E1,-5.326499939E0,5.625459671E0,1.292038598E1
9.920158294E0,-9.679254532E0,-4.547818184E0,6.181242466E0,1.235226202E1
9.936964233E0,-9.866967201E0,-3.617678642E0,4.816504478E0,1.156042196E1
9.953773809E0,-1.115206814E1,-2.966495514E0,4.642601013E0,1.243874847E1
9.970581564E0,-1.195514107E1,-2.899811268E0,4.598890305E0,1.313332004E1
9.987387540E0,-1.223931599E1,-2.950560093E0,3.389894009E0,1.303832973E1
1.000419545E1,-1.158607483E1,-2.987002373E0,1.406022429E0,1.204724915E1
1.002100413E1,-1.049900055E1,-3.022006750E0,-4.958400726E-1,1.093651657E1
1.003781041E1,-9.431724548E0,-3.039739847E0,-2.419370890E0,1.020052949E1
1.005460566E1,-8.685306549E0,-2.861424208E0,-3.795207977E0,9.900803096E0
1.007142637E1,-8.192485809E0,-2.553533077E0,-4.482690811E0,9.681522185E0
1.008823262E1,-7.783661366E0,-2.317542791E0,-4.836033821E0,9.452174986E0
1.010504309E1,-7.333990097E0,-2.325814724E0,-5.574386597E0,9.501084717E0
1.012184962E1,-5.243870735E0,-3.168519497E0,-2.953142881E0,6.801378461E0
1.013864462E1,2.636794090E1,-5.743224144E0,1.724860001E1,3.202759955E1
1.015546546E1,1.135522308E2,2.573763847E1,3.592873383E1,1.218499449E2
1.017227177E1,6.135971069E1,2.984998512E1,3.390897751E1,7.619615780E1
1.018907938E1,3.150695992E1,-1.115776348E1,2.451536751E1,4.145102475E1
1.020587564E1,1.815858269E1,-1.602015305E1,1.106429100E1,2.662325983E1
1.022269776E1,4.581490993E0,-9.932387352E0,-4.554810524E-1,1.094759523E1
1.023949021E1,-4.230043411E0,-5.433947086E0,-3.262351751E0,7.619972910E0
1.025631155E1,-7.937837124E0,-2.622301340E0,-3.715052843E0,9.148078495E0
1.027311121E1,-1.124735928E1,-2.357900292E-1,-4.378420830E0,1.207183733E1
1.028992681E1,-1.081904030E1,-2.158218861E0,-5.824139595E0,1.247518111E1
1.030672103E1,-1.069316387E1,-5.260714054E0,-3.574213982E0,1.244161853E1
1.032353882E1,-1.149933624E1,-7.136960506E0,-2.819808483E0,1.382469744E1
1.034035274E1,-1.227911377E1,-7.195895672E0,-1.882380247E0,1.435621485E1
1.035715438E1,-1.392724991E1,-6.198347092E0,-1.819676161E-1,1.524535696E1
1.037396604E1,-1.646934128E1,-4.372117043E0,5.925510406E0,1.804068411E1
1.039076843E1,-1.951681900E1,-2.523059607E0,1.438194275E1,2.437441960E1
1.040757997E1,-2.156938553E1,-2.679345131E0,2.044298172E1,2.983844473E1
1.042438961E1,-2.133208466E1,-1.101334691E0,1.630528259E1,2.687253271E1
1.044119381E1,-1.605475807E1,-1.095881462E-1,5.463544846E0,1.695929210E1
1.045800154E1,-1.225486088E1,-5.084650517E-1,2.469300628E-1,1.226789005E1
1.047481096E1,-1.072762680E1,-1.081163406E0,-1.344388008E0,1.086546226E1
1.049162199E1,-1.012799835E1,-1.695894718E0,-2.103253841E0,1.048217946E1
1.057566448E1,-8.826730728E0,-2.012524128E0,-2.640362740E0,9.430426507E0
1.059246505E1,-8.568005562E0,-1.732203126E0,-2.874277592E0,9.201778016E0
1.060927143E1,-6.895005226E0,-1.675331116E0,-1.063415647E0,7.174864755E0
1.062607826E1,1.626105118E1,-8.154052734E0,1.584952164E1,2.412711540E1
1.064288521E1,9.341960907E1,2.870299101E0,4.322416306E0,9.356358938E1
1.072901255E1,3.624057770E0,-5.572018623E0,2.350644350E0,7.050298938E0
1.074583261E1,-2.602799225E1,1.049842072E1,1.627397728E1,3.244249612E1
1.076262794E1,-8.143439293E0,9.270014763E-1,5.485469818E0,9.862317901E0
1.077944695E1,-8.251566887E0,-5.606762767E-1,2.126965761E0,8.539712953E0
1.079626720E1,-6.990657330E0,-3.088187218E0,-1.787835956E0,7.848729043E0
1.081306056E1,-8.144456863E0,-4.698310375E0,-5.859341621E0,1.107872656E1
1.082987257E1,-1.135332108E1,-5.332821846E0,-9.280086517E0,1.560310527E1
1.084667571E1,-1.635505104E1,-4.097284317E0,-1.093548679E1,2.009627589E1
1.086348865E1,-1.580823898E1,-4.153553009E0,-6.264229774E0,1.750408515E1
1.088028990E1,-1.169466305E1,-4.967731476E0,2.982635021E0,1.305142182E1
1.089710315E1,-1.172684479E1,-4.656980991E0,1.140414524E1,1.700767148E1
1.091390178E1,-1.353272629E1,-3.881950378E0,1.253744888E1,1.885183927E1
1.093071880E1,-1.440031624E1,-3.159114838E0,9.144846916E0,1.734869849E1
1.094752758E1,-1.449034023E1,-3.155319452E0,6.007537842E0,1.600051599E1
1.096432917E1,-1.411285019E1,-3.649398327E0,1.244698882E0,1.463010335E1
1.098114025E1,-1.178176785E1,-3.583583832E0,-2.412882328E0,1.254886958E1
1.099794829E1,-1.004302597E1,-3.594923019E0,-2.559827328E0,1.096989326E1
1.101474283E1,-8.486553192E0,-2.909057140E0,-3.539342165E0,9.644228403E0
1.102946528E1,-7.236172199E0,-2.524874926E0,-8.501307487E0,1.144593423E1
1.104626972E1,-6.819654465E0,-2.326525688E0,-1.087344933E1,1.304424429E1
1.106307934E1,-6.061264992E0,-2.664355278E0,-5.685520172E0,8.727133663E0
1.107988604E1,-1.754598141E0,-3.678162098E0,3.039631367E0,5.083979730E0
1.109669348E1,2.107579422E1,-7.062479019E0,2.400341797E1,3.271439723E1
1.111350239E1,8.288497162E1,1.245825386E1,4.435282516E1,9.482773703E1
1.113031364E1,3.270448685E1,3.089979172E1,4.308134079E1,6.229271637E1
1.114711623E1,2.608356667E1,-9.143730164E0,2.622330475E1,3.810015700E1
1.116392414E1,2.215588760E1,-1.191316605E1,1.225862026E1,2.798357825E1
1.118072177E1,8.553276062E0,-7.999185324E-1,5.838762283E0,1.038698927E1
1.119753930E1,2.643648148E0,9.703608155E-1,2.084197998E0,3.503477834E0
1.121433751E1,-9.831275940E-1,-6.059229374E-3,-3.762428284E0,3.888758564E0
1.123115647E1,-3.536020041E0,-4.035780132E-1,-9.456423759E0,1.010397265E1
1.124795662E1,-5.155410290E0,-4.877052009E-1,-1.021961594E1,1.145672997E1
1.126477144E1,-6.151429176E0,-6.844650507E-1,-9.109786987E0,1.101348230E1
1.128157767E1,-7.296862602E0,-8.872979283E-1,-8.091276169E0,1.093161706E1
1.129838535E1,-8.858509064E0,-7.152892351E-1,-6.661424160E0,1.110672739E1
1.131519479E1,-1.137319851E1,-2.098197341E-1,-3.893407106E0,1.202298996E1
1.133199962E1,-1.248930931E1,1.376985073E0,-2.631419182E0,1.283757383E1
1.134881032E1,-1.316896629E1,8.503078818E-1,-1.040991306E0,1.323738492E1
1.136561939E1,-1.321090984E1,-2.994178295E0,3.933478355E0,1.410551291E1
1.138242624E1,-1.530252838E1,-4.573226929E0,1.007826805E1,1.888526585E1
1.139923194E1,-1.671946716E1,-3.960487843E0,1.217330456E1,2.105743076E1
1.141603900E1,-1.575354576E1,-2.780944109E0,7.221868515E0,1.755173037E1
1.143285287E1,-1.231213284E1,-2.542620897E0,2.532888651E0,1.282454915E1
1.144964290E1,-1.061249352E1,-1.757100821E0,6.330873966E-1,1.077558451E1
1.146646267E1,-9.842328072E0,-9.916936755E-1,5.969345570E-3,9.892164265E0
1.148326834E1,-9.225433350E0,-5.075221658E-1,2.443521619E-1,9.242613657E0
1.150007899E1,-8.893550873E0,-7.022698969E-2,-4.519866705E-1,8.905305773E0
1.151688494E1,-8.668970108E0,3.277198076E-1,-1.046256423E0,8.738025836E0
1.153369222E1,-7.648281097E0,9.159017205E-1,-1.664604187E0,7.880735169E0
1.155050223E1,-1.667849541E0,1.893457174E0,3.145315170E0,4.032357832E0
1.156730941E1,7.081252289E1,-1.817602348E1,-2.147209167E1,7.619601006E1
1.158411724E1,6.879362488E1,1.987039089E0,2.637934303E1,7.370468701E1
1.160092231E1,5.971961212E1,1.744392014E1,1.541531181E1,6.409644499E1
1.161773090E1,4.801467514E1,-2.401952934E1,-3.695576191E0,5.381453430E1
1.163453979E1,2.075104141E1,-1.537988853E1,-4.819092751E0,2.627489954E1
1.165134783E1,6.653484344E0,-6.197790623E0,-3.602204323E0,9.780456968E0
1.173748419E1,-7.931343555E0,-2.787899256E0,-3.531739950E0,9.118759780E0
1.175429216E1,-1.006225491E1,-3.663331032E0,-8.207447052E0,1.349189220E1
1.177108769E1,-1.405927658E1,-3.282406807E0,-1.073830223E1,1.799301496E1
1.178790843E1,-1.550604725E1,-1.271785021E0,-8.359249115E0,1.766159631E1
1.180471138E1,-1.278832531E1,-1.595571876E0,-2.814174891E0,1.319115970E1
1.182152471E1,-1.000418568E1,-3.210913181E0,3.673418522E0,1.113048508E1
1.183832642E1,-1.015191650E1,-4.191468716E0,9.743478775E0,1.468213872E1
1.185513180E1,-1.254997063E1,-5.183318615E0,1.343080044E1,1.909855898E1
1.187195391E1,-1.538037300E1,-5.246627808E0,1.136131859E1,1.982832663E1
1.188874055E1,-1.549984169E1,-4.493368149E0,1.946851254E0,1.625502013E1
1.190556790E1,-1.389113426E1,-3.629933834E0,-1.884089708E0,1.448067073E1
1.192236351E1,-1.140091801E1,-3.379832268E0,-2.761972427E0,1.220789455E1
1.193917563E1,-9.957441330E0,-3.090581894E0,-3.848166466E0,1.111353766E1
1.195597880E1,-9.290574074E0,-2.868559599E0,-4.728994370E0,1.081234427E1
1.197279427E1,-8.720328331E0,-2.728083134E0,-5.377898216E0,1.060228056E1
1.198958576E1,-8.218484879E0,-2.301608086E0,-5.464253426E0,1.013404949E1
1.200640923E1,-7.937229633E0,-2.003262281E0,-5.265345097E0,9.733269389E0
1.202321871E1,-7.636576653E0,-1.823624134E0,-4.998065948E0,9.307178476E0
1.203785523E1,-3.404585838E0,-3.729086876E0,8.300433159E-1,5.117251759E0
1.205472856E1,4.164613724E0,-4.948739052E0,7.553602695E0,9.944392357E0
1.207153782E1,6.523421478E1,-5.085359573E0,1.390854836E1,6.689403096E1
1.208834763E1,5.910349274E1,1.622934341E1,4.188478088E1,7.423576841E1
1.210515178E1,3.391975403E1,-5.239475727E0,2.450360107E1,4.217141549E1
1.212195964E1,3.245287704E1,-1.973872948E1,2.103577423E1,4.342016199E1
1.213876848E1,2.167755127E1,-1.150172043E1,6.242356300E-1,2.454782011E1
1.215556516E1,1.213917542E1,-4.600405693E0,-4.063065529E0,1.360263996E1
1.217238238E1,5.107924461E0,-1.275519013E0,-2.965441704E0,6.042490013E0
1.218919154E1,3.213024139E-2,1.635461926E0,-1.686650038E0,2.349586435E0
1.220599775E1,-6.621720791E0,3.363041878E0,2.243804932E-1,7.430180584E0
1.222280281E1,-1.625352859E1,4.403697014E0,3.002898216E0,1.710517866E1
1.223959914E1,-1.617495346E1,3.021201372E0,1.975877523E0,1.657289562E1
1.225641302E1,-9.808129311E0,-2.784602940E-1,-2.937824488E0,1.024244861E1
1.227322762E1,-8.469966888E0,-2.724987984E0,-7.080570221E0,1.137103220E1
1.229003108E1,-1.001248455E1,-3.589496851E0,-9.644115448E0,1.435769122E1
1.230684649E1,-1.220513821E1,-2.617429972E0,-1.102396202E1,1.665365056E1
1.232364322E1,-1.262604523E1,-1.133014202E0,-8.308847427E0,1.515710015E1
1.234046222E1,-1.056982422E1,-1.413985729E0,-2.530375719E0,1.096007942E1
1.235726484E1,-9.011021614E0,-2.085513115E0,2.555905342E0,9.595859920E0
1.237407312E1,-9.165844917E0,-2.438892841E0,5.312136650E0,1.087104904E1
1.239088423E1,-1.113168812E1,-2.700326443E0,7.947762966E0,1.394177820E1
1.240769225E1,-1.328734589E1,-2.810101986E0,8.481886864E0,1.601226526E1
1.242449931E1,-1.392126656E1,-2.677239418E0,4.288702965E0,1.481088271E1
1.244130611E1,-1.307497597E1,-3.069339752E0,4.663398266E-1,1.343850125E1
1.245811333E1,-1.120900345E1,-2.724329948E0,-6.816211939E-1,1.155544631E1
1.247492622E1,-1.000552177E1,-2.288570642E0,-8.959826231E-1,1.030295135E1
1.249171876E1,-9.492910385E0,-1.981058121E0,-1.260638952E0,9.779015770E0
1.250853605E1,-9.155356407E0,-1.795768976E0,-1.732245684E0,9.489257730E0
1.252534450E1,-7.646203041E0,-1.897265673E0,-4.094120979E0,8.878393130E0
1.254215266E1,-2.685883522E0,-1.971240044E0,-3.374510050E0,4.742053952E0
1.255895863E1,2.880964279E1,-1.534572983E1,-2.396141243E1,4.049242185E1
1.257576671E1,8.278059387E1,2.116220284E1,2.148466110E1,8.810253239E1
1.259257506E1,1.006126022E2,4.160782337E0,2.908445549E1,1.048146621E2
1.260937352E1,6.102098083E1,-3.533758926E1,-3.049392891E1,7.682567941E1
1.262618916E1,2.616313171E1,-2.378186989E1,-1.182831955E1,3.728264931E1
1.264299878E1,6.949009895E0,-1.167321587E1,-2.670275688E0,1.384496585E1
1.272913508E1,-9.024019241E0,-7.850973010E-1,4.788874626E0,1.024610273E1
1.274593150E1,-1.439794159E1,2.237855047E-1,8.671336174E-1,1.442576593E1
1.276274126E1,-1.852573204E1,-5.183230639E-1,-2.780447245E0,1.874039203E1
1.277956253E1,-1.310449505E1,-2.128202677E0,7.586592197E0,1.529095871E1
1.279636791E1,-9.833760262E0,-1.395320654E0,1.427878857E1,1.739349199E1
1.281316934E1,-1.175848389E1,-1.278525233E0,1.388958931E1,1.824327989E1
1.282997885E1,-2.211756134E1,-2.170130253E0,2.104866409E1,3.060951233E1
1.284679697E1,-1.913832855E1,-1.826652050E0,2.088715553E0,1.933843350E1
1.286359480E1,-1.163292980E1,-1.036634207E0,-5.604758739E0,1.295426520E1
1.288040722E1,-8.662008286E0,-1.099377632E0,-7.775537491E0,1.169179208E1
1.289721503E1,-7.440747738E0,-7.979347706E-1,-1.192913055E1,1.408210150E1
1.291400903E1,-7.313144207E0,-3.183679879E-1,-1.569641685E1,1.731938043E1
1.293082784E1,-8.742978096E0,9.794011712E-3,-6.650035858E0,1.098465925E1
1.294763617E1,-9.475704193E0,-1.716189086E-1,-4.397981644E0,1.044799816E1
1.296444288E1,-9.549114227E0,-3.556573391E-1,-3.837349653E0,1.029744274E1
1.297916476E1,-9.464735031E0,-5.508489609E-1,-3.511959076E0,1.011031653E1
1.299595783E1,-9.275023460E0,-4.238128066E-1,-2.725296736E0,9.676410480E0
1.301276549E1,-8.952610016E0,-1.124527827E-1,-9.117374420E-1,8.999618708E0
1.302957517E1,-8.436019897E0,-2.300325185E-1,3.979206562E0,9.330242844E0
1.304638131E1,-6.827997208E0,-1.488114595E0,8.558527946E0,1.104918239E1
1.306318997E1,1.480788231E0,-5.609314919E0,8.000632286E0,9.882674973E0
1.307999639E1,2.839164352E1,-6.725896835E0,1.447079086E1,3.256880253E1
1.309680427E1,8.868585205E1,-7.749229431E0,1.516048527E1,9.030543297E1
1.311361364E1,1.080795746E2,-2.584062099E0,-2.190873337E1,1.103080433E2
1.313041716E1,4.495029831E1,-2.487006378E1,-1.917216492E1,5.483266634E1
1.314722676E1,1.412185383E1,-1.313965130E1,-8.483968735E0,2.107261060E1
1.316402938E1,2.603486061E0,-5.031371117E0,-5.555761337E0,7.934690859E0
1.318084699E1,-5.966680050E0,1.715321064E0,8.662915826E-1,6.268497290E0
1.319766498E1,-9.479189873E0,2.870261669E0,-9.230983257E-2,9.904643547E0
1.321445795E1,-9.006864548E0,2.293057680E0,2.351113558E-1,9.297150093E0
1.323125552E1,-9.869656563E0,1.593235731E0,4.353287697E0,1.090411090E1
1.324807345E1,-1.540116882E1,1.757409692E0,6.662205219E0,1.687215067E1
1.326488284E1,-1.548577881E1,8.967550397E-1,1.048082924E1,1.872061154E1
1.328169174E1,-9.462282181E0,8.539856076E-1,8.667823792E0,1.286060826E1
1.329849855E1,-8.662552834E0,7.736486793E-1,3.654650927E0,9.433706974E0
1.331530693E1,-1.071926498E1,8.927523494E-1,-4.399060011E-1,1.076536882E1
1.333211031E1,-1.289009380E1,1.200058222E0,-2.314373732E0,1.315108299E1
1.334892396E1,-1.256323624E1,2.169768333E0,3.944312334E-1,1.275532733E1
1.336572846E1,-1.190134048E1,2.423333406E0,1.912179232E0,1.229515675E1
1.338253606E1,-1.220084381E1,1.753034115E0,2.719222784E0,1.262251524E1
1.339934213E1,-1.380169582E1,9.981360435E-1,3.748487949E0,1.433646557E1
1.341615040E1,-1.380596542E1,4.328304827E-1,-1.627751827E0,1.390832842E1
1.343295851E1,-1.307781887E1,1.898891330E-1,-5.924681664E0,1.435852559E1
1.344976535E1,-1.232873726E1,7.073730230E-2,-6.049417496E0,1.373310665E1
1.346657304E1,-1.151361561E1,6.689882278E-2,-3.518600941E0,1.203945067E1
1.348338020E1,-1.074153900E1,1.317512393E-1,-1.336281657E0,1.082514052E1
1.350019164E1,-1.000854492E1,2.168386579E-1,6.324198246E-1,1.003084968E1
1.351699591E1,-9.456247330E0,3.606103063E-1,2.590109348E0,9.811183404E0
1.353380518E1,-8.854794502E0,3.282125294E-1,4.022872925E0,9.731321375E0
1.355061418E1,-7.494726181E0,-2.532933354E-1,4.515077114E0,8.753342184E0
1.356741968E1,-3.303206444E0,-2.654824018E0,5.938114643E0,7.295236041E0
1.358422608E1,1.231286716E1,-3.528952122E0,1.046668243E1,1.654121042E1
1.360103587E1,1.003409042E2,-8.780185699E0,-4.397833824E0,1.008202840E2
1.361783394E1,1.147630615E2,-5.248779774E0,-4.348015308E0,1.149652783E2
1.363464328E1,4.618784332E1,-1.599079418E1,-3.310143280E1,5.903157818E1
1.365145158E1,1.406358528E1,-1.865925789E1,-1.121037292E1,2.591572490E1
1.366826380E1,-8.413445473E0,-5.433441162E0,1.364960074E0,1.010799009E1
1.368506465E1,-1.471603012E1,4.806133270E0,-2.351426125E0,1.565853328E1
1.370188046E1,-7.334647179E0,4.867151976E-1,-4.450888634E0,8.593273564E0
1.371868558E1,-8.468690872E0,-3.249983788E-1,-1.019778490E0,8.536058646E0
1.373549737E1,-9.503229141E0,-2.089424133E-1,5.325522423E0,1.089569686E1
1.375230451E1,-9.526073456E0,-8.250364065E-1,8.249296188E0,1.262844599E1
1.376911133E1,-9.702553749E0,-2.002305269E0,4.949835300E0,1.107473003E1
1.378591864E1,-1.191733360E1,-2.794155121E0,1.061361790E0,1.228644098E1
1.380272958E1,-1.332833862E1,-3.140345573E0,-1.512508392E-1,1.369413223E1
1.381953418E1,-1.169194984E1,-1.887991667E0,4.562196255E0,1.269172322E1
1.383634172E1,-1.053149414E1,-6.985568404E-1,9.349904060E0,1.410039207E1
1.385315148E1,-1.328945923E1,5.072587729E-2,1.353723526E1,1.897021450E1
1.386995682E1,-2.098194885E1,7.881163359E-1,1.379619408E1,2.512365969E1
1.388676475E1,-1.932541084E1,3.038953781E0,-6.352548003E-1,1.957320344E1
1.390357234E1,-1.595805931E1,3.264905214E0,-4.357089043E0,1.686130149E1
1.392038198E1,-1.270135689E1,2.628688335E0,-5.032132626E0,1.391247023E1
1.393718774E1,-1.116841125E1,2.406744242E0,-5.329314232E0,1.260664182E1
1.395399684E1,-1.040576553E1,2.208348036E0,-5.183445454E0,1.183321022E1
1.397080324E1,-9.819105148E0,1.725759745E0,-4.547700882E0,1.095785818E1
1.398761201E1,-9.265905380E0,1.199443340E0,-3.473638535E0,9.968040505E0
1.400442078E1,-8.802556038E0,9.318157434E-1,-2.726873636E0,9.262241263E0
1.402122605E1,-8.411363602E0,6.824253798E-1,-2.296646595E0,8.745932061E0
1.403802195E1,-4.723831177E0,-6.325303316E-1,1.119452715E0,4.895697089E0
1.405484733E1,1.007655144E1,-1.681004286E0,3.840528488E0,1.091385923E1
1.407163787E1,9.163774109E1,-6.522681713E0,1.375770569E0,9.187988743E1
1.408849587E1,1.213230743E2,-3.829240799E-1,2.848820496E1,1.246234842E2
1.410526320E1,5.057440567E1,-1.623297119E1,-2.468568039E1,5.857185910E1
1.412207382E1,1.535519791E1,-1.326674366E1,-2.232503319E1,3.016944973E1
1.413886081E1,2.201540947E0,-7.783934116E0,-5.952616692E0,1.004340870E1
1.415568744E1,-7.677616119E0,3.764792681E-1,6.890172005E0,1.032288701E1
1.417248302E1,-9.413300514E0,2.914965630E0,1.148604488E1,1.513395118E1
1.418930334E1,-9.545969963E0,1.589689016E0,1.234188747E1,1.568358505E1
1.420611306E1,-1.267773724E1,1.641294956E0,7.524868011E0,1.483382989E1
1.422291712E1,-1.656074142E1,7.513137460E-1,6.481611252E0,1.779982902E1
1.423972825E1,-1.302702904E1,-1.823403239E0,8.616226196E0,1.572474606E1
1.425653408E1,-9.455026627E0,-3.520134449E0,5.252296448E0,1.137433484E1
1.427334309E1,-1.124644852E1,-5.021879196E0,-1.052647829E-1,1.231718132E1
1.429014778E1,-1.404988956E1,-3.899240017E0,-1.862990975E0,1.469946274E1
1.430695836E1,-1.389449501E1,-1.218399763E0,-1.225695968E0,1.400156492E1
1.432376597E1,-1.273493481E1,1.293073893E-1,-2.738845348E-2,1.273562072E1
1.434057370E1,-1.206191635E1,3.167525828E-1,1.064669609E0,1.211295503E1
1.435737966E1,-1.268037033E1,7.425273657E-1,3.209407806E0,1.310127616E1
1.437418926E1,-1.464307022E1,1.573839664E0,4.183301449E0,1.531001266E1
1.439099684E1,-1.444956684E1,2.230900049E0,-1.476190805E0,1.469510246E1
1.440780268E1,-1.309068966E1,2.110314608E0,-4.307219028E0,1.394172583E1
1.442461117E1,-1.187886906E1,1.830119610E0,-3.311224461E0,1.246679892E1
1.444142014E1,-1.091325188E1,1.820677280E0,-9.663373232E-1,1.110620278E1
1.445822575E1,-1.027853680E1,1.721601248E0,1.331728578E0,1.050646137E1
1.454436739E1,4.744844437E0,2.647327423E0,-6.273128510E0,8.299038047E0
1.456117357E1,6.864472198E1,-3.494030237E-1,4.302535629E1,8.101482101E1
1.457798127E1,1.479827118E2,-1.324335861E1,-2.517624092E1,1.506921121E2
1.459477721E1,5.795191956E1,2.593714237E0,-2.973101044E1,6.518500836E1
1.461159449E1,1.811848831E1,-1.490704632E1,-1.509143353E1,2.789715065E1
1.462841185E1,-1.303571224E1,-1.075351524E1,8.321751595E0,1.883665133E1
1.464521820E1,-1.252781773E1,2.316447973E0,9.377789497E-1,1.277464589E1
1.466201960E1,-6.436931610E0,2.996999025E0,9.346405268E-1,7.161678897E0
1.467882229E1,-8.938242912E0,1.599070430E0,6.753045082E0,1.131604306E1
1.469563788E1,-1.507789421E1,3.871938705E0,5.200465202E0,1.641278896E1
1.471244315E1,-1.014954090E1,-8.127254248E-1,4.995245457E0,1.134134826E1
1.472924860E1,-1.063724136E1,-2.746393681E0,-7.169232368E-1,1.100943055E1
1.474605764E1,-1.402728558E1,-2.350609303E0,-3.642306566E0,1.468184259E1
1.476286612E1,-1.558318996E1,-5.627458692E-1,-4.429743290E0,1.621033985E1
1.477966736E1,-1.375288963E1,1.100845814E0,5.316734314E-2,1.379698016E1
1.479648253E1,-1.202649879E1,1.676587343E0,3.198151588E0,1.255690216E1
1.481329049E1,-1.141476440E1,1.434261918E0,4.431608200E0,1.232854837E1
1.483009122E1,-1.534929848E1,2.072380781E0,1.295275116E1,2.019082684E1
1.484690493E1,-1.713163757E1,5.592230797E0,4.934439182E0,1.868461242E1
1.486370987E1,-1.442839241E1,6.952116489E0,-4.135059834E0,1.654113512E1
1.488052026E1,-1.260313416E1,5.379762650E0,-6.124434471E0,1.500964804E1
1.489732560E1,-1.114500237E1,3.659607887E0,-7.039594173E0,1.368063207E1
1.491413473E1,-1.028260517E1,2.349902868E0,-6.950732708E0,1.263197125E1
1.493094240E1,-9.880606651E0,2.160436869E0,-5.261908531E0,1.140094543E1
1.494774357E1,-9.539026260E0,2.073086262E0,-4.308055401E0,1.067005389E1
1.496455383E1,-9.271375656E0,2.011391878E0,-3.536208153E0,1.012466651E1
1.498555611E1,-9.126576424E0,1.885612488E0,-2.588610888E0,9.672168216E0
1.500236470E1,-9.193353653E0,1.929013252E0,-2.094361305E0,9.624198293E0
1.502758899E1,-7.934950352E0,2.196855783E0,5.226993561E-2,8.233610664E0
1.504439246E1,9.452654839E0,1.215356469E0,1.379823399E1,1.676964627E1
1.506120500E1,1.027505341E2,-1.228582478E1,3.934222794E1,1.107087379E2
1.507800646E1,1.189265442E2,-3.975510597E0,-1.049222469E0,1.189975986E2
1.509482216E1,4.227212906E1,-5.693453789E0,-2.235160065E1,4.815539806E1
1.511162571E1,1.061488914E1,-1.493636608E1,-7.612808228E0,1.984252384E1
1.512843285E1,-5.986938477E0,-9.264728546E0,-7.190362215E-1,1.105421370E1
1.514522888E1,-1.229973888E1,4.025820494E-1,-1.811124563E0,1.243888343E1
1.516204920E1,-7.731999397E0,1.205314159E0,-1.511416316E0,7.970004779E0
1.517885512E1,-8.601881027E0,7.086827755E-1,3.456093073E0,9.297266685E0
1.519566303E1,-1.298903942E1,1.900698662E0,5.615540981E0,1.427802861E1
1.521247752E1,-1.168329239E1,-4.166553020E-1,5.301587105E0,1.283665644E1
1.522927855E1,-1.089920902E1,-3.189208269E0,2.152221203E0,1.155836765E1
1.524608582E1,-1.396075439E1,-2.237713575E0,-4.933352470E-1,1.414755827E1
1.526287432E1,-1.556121635E1,7.289805412E-1,-2.335890293E0,1.575243634E1
1.527970150E1,-1.371122646E1,2.290490627E0,4.589695930E-1,1.390880051E1
1.529651095E1,-1.134630489E1,2.007554293E0,3.621351719E0,1.207820753E1
1.531331698E1,-1.308084106E1,1.240178585E0,1.016089916E1,1.660994635E1
1.533012445E1,-1.604347610E1,1.757924080E0,1.003737545E1,1.900611293E1
1.534693393E1,-1.419135475E1,3.878214836E0,-1.338800430E0,1.477252472E1
1.536374423E1,-1.360636902E1,4.006153107E0,-7.617825508E0,1.610011820E1
1.538057489E1,-1.209668350E1,2.886485577E0,-1.348397064E1,1.834336433E1
1.539735943E1,-1.056357479E1,2.177494526E0,-1.430193996E1,1.791301431E1
1.541415533E1,-9.970999718E0,2.029381752E0,-7.486431122E0,1.263273037E1
1.543097066E1,-9.869428635E0,2.043201208E0,-3.915783644E0,1.081266176E1
1.544776717E1,-9.771544456E0,2.045309782E0,-2.964579821E0,1.041417816E1
1.546458801E1,-9.541115761E0,1.973210931E0,-2.322800636E0,1.001607978E1
1.548138181E1,-9.299987793E0,1.990446329E0,-1.049813986E0,9.568372847E0
1.549820131E1,-9.107708931E0,1.960044861E0,1.064651132E0,9.376866207E0
1.551499764E1,-8.866396904E0,1.904497743E0,2.799574614E0,9.490928497E0
1.553181740E1,-7.646131516E0,2.086540699E0,6.478228569E0,1.023642636E1
1.554862616E1,6.239615440E0,1.749628544E0,1.151218987E1,1.321077274E1
1.556543223E1,7.909558868E1,-7.722899914E0,3.452711868E1,8.664800781E1
1.558224149E1,1.346544952E2,-2.402316093E1,-5.319175720E1,1.467593554E2
1.559904448E1,5.431864929E1,-7.063194275E0,-1.432768154E1,5.661878516E1
1.561585945E1,3.089431763E0,-2.055833054E1,-1.917937088E1,2.828493964E1
1.563266126E1,-1.253915215E1,-5.602795601E0,-1.160635090E1,1.798135246E1
1.564947722E1,-5.142387867E0,6.020236015E0,-1.498541260E1,1.694845083E1
1.566627979E1,-6.704225540E-1,4.563929558E0,-2.483422756E0,5.238922408E0
1.568308767E1,-2.170742989E0,7.897281647E-2,6.075886726E0,6.452500394E0
1.569988173E1,-5.752088070E0,-5.561375618E-2,1.056037617E1,1.202543782E1
1.571670333E1,-7.389116287E0,-1.395654678E-1,7.604166031E0,1.060386057E1
1.573351114E1,-8.645641327E0,-1.527211189E0,3.705390692E0,9.529397051E0
1.575031635E1,-1.195861053E1,-2.491492987E0,-1.596361160E0,1.231926427E1
1.576712418E1,-1.471979713E1,-2.099946499E0,-5.461875916E0,1.584027435E1
1.578393462E1,-1.200142097E1,-9.217364788E-1,1.570827484E0,1.213883036E1
1.580074476E1,-9.996210098E0,1.256599724E-1,1.057236958E1,1.455042973E1
1.581753433E1,-1.139348984E1,1.464016676E0,1.241133785E1,1.691142403E1
1.583435715E1,-1.496514893E1,1.619851828E0,1.359392262E1,2.028236511E1
1.585116501E1,-2.242509079E1,-3.826866150E-1,1.337457466E1,2.611341405E1
1.586796161E1,-1.626624298E1,1.362676501E0,-8.493983150E-1,1.634530592E1
1.588477964E1,-1.232075500E1,1.604007125E0,-8.152370453E0,1.486051771E1
1.590158661E1,-1.030949497E1,1.418037772E0,-1.117969513E1,1.527357525E1
1.591839355E1,-9.320631027E0,1.607835054E0,-1.252790165E1,1.569737609E1
1.593518761E1,-9.172713280E0,1.944079995E0,-8.987293243E0,1.298805435E1
1.595200893E1,-9.304680824E0,2.136995554E0,-6.067850113E0,1.131205729E1
1.596880724E1,-9.347366333E0,1.964838862E0,-4.566890240E0,1.058727234E1
1.598562645E1,-9.141674995E0,1.557036519E0,-3.576826096E0,9.939228811E0
1.600241863E1,-8.873427391E0,1.287727714E0,-3.027321577E0,9.463647936E0
1.601923965E1,-8.744835854E0,1.278154850E0,-2.847522020E0,9.285161042E0
1.603604614E1,-8.618263245E0,1.224402189E0,-3.147753000E0,9.256455641E0
1.605285597E1,-9.448871613E-1,8.522129059E-2,-3.657824278E0,3.778856026E0
1.606966722E1,2.687166977E1,-6.407608032E0,1.800651169E1,3.297542327E1
1.608646898E1,1.227208405E2,-1.809572339E0,-9.365743637E0,1.230910086E2
1.610328199E1,8.183931732E1,-4.720864296E0,4.703463078E0,8.211018807E1
1.612008554E1,2.889986038E1,-1.577346802E1,-1.677462006E1,3.695121245E1
1.613689464E1,9.132305145E0,-1.576865959E1,-1.316755009E1,2.248185931E1
1.615369691E1,1.363573074E0,-1.164724731E1,-1.025370884E1,1.557742747E1
1.617051663E1,-4.439328194E0,-5.582558632E0,-3.035728455E0,7.751660657E0
1.618730502E1,-6.857496262E0,-8.088581562E-1,2.167023182E0,7.237091679E0
1.620412406E1,-8.290032387E0,1.044049740E0,9.253819466E0,1.246787278E1
1.622093260E1,-1.065976524E1,1.702659488E0,9.611627579E0,1.445382403E1
1.623774245E1,-1.520899773E1,2.673566341E0,8.423996925E0,1.759048871E1
1.625454683E1,-1.024149895E1,1.087383628E-1,6.841058731E0,1.231666389E1
1.627135661E1,-9.547993660E0,-1.548956275E0,1.660323381E0,9.814281543E0
1.628816336E1,-1.290445137E1,-1.387316704E0,-1.716216803E0,1.309178800E1
1.630497026E1,-1.499824715E1,1.574421972E-1,-4.150246620E0,1.556267177E1
1.632178129E1,-1.299100113E1,1.811983824E0,-1.285371542E0,1.317958936E1
1.633858598E1,-1.134809971E1,2.584419727E0,1.610979319E0,1.174963177E1
1.635538631E1,-1.184385490E1,2.828070164E0,3.596634865E0,1.269687608E1
1.637220366E1,-1.500717545E1,1.773339033E0,9.152423859E0,1.766711376E1
1.638901184E1,-1.424778461E1,1.603815556E0,8.325778842E-1,1.436192107E1
1.640581637E1,-1.175872231E1,1.985608339E0,-5.199608803E0,1.300946280E1
1.642261034E1,-1.098771477E1,1.834220648E0,-7.029309273E0,1.317214599E1
1.643943332E1,-1.081476879E1,1.467918515E0,-6.733486176E0,1.282395590E1
1.645622517E1,-1.068881416E1,1.265196085E0,-5.307752609E0,1.200098776E1
1.647305382E1,-1.025695229E1,1.150917411E0,-3.609750748E0,1.093434870E1
1.648985230E1,-9.803124428E0,1.168066263E0,-2.132616043E0,1.010018210E1
1.650666447E1,-9.492419243E0,1.375019670E0,-6.564862728E-1,9.613931371E0
1.652347052E1,-9.230010986E0,1.379679084E0,-2.766851187E-1,9.336657423E0
1.654229561E1,-8.433519363E0,1.482890606E0,1.078553677E0,8.630555685E0
1.655918855E1,-5.985334396E0,1.589688540E0,4.827681065E0,7.852250757E0
1.657598302E1,3.395321655E1,-4.889586926E0,2.134765244E1,4.040360428E1
1.659280219E1,1.313354187E2,-5.901316643E0,-6.917978764E0,1.316498241E2
1.660961285E1,8.627086639E1,-1.119618607E1,-2.481388283E1,9.046405779E1
1.662641744E1,2.574193573E1,-2.270524597E1,-2.753336334E1,4.400297202E1
1.664321391E1,-2.439689636E-1,-1.328575611E1,-1.785714626E-1,1.328919576E1
1.666003216E1,-8.698219299E0,-9.777812958E-1,8.120653033E-2,8.753380475E0
1.667684346E1,-8.055664062E0,5.738142490E0,5.626954079E0,1.137904280E1
1.669364312E1,-9.151771545E0,5.436720371E0,1.132970333E1,1.554590069E1
1.671045855E1,-1.285045052E1,5.126523018E0,7.021060467E0,1.551485117E1
1.672726244E1,-1.199139595E1,1.922404408E0,5.080191135E0,1.316425302E1
1.674407308E1,-9.976237297E0,-1.930324793E0,1.843923330E0,1.032722217E1
1.676087929E1,-1.117452049E1,-4.566234112E0,-2.052078485E0,1.224464897E1
1.677768704E1,-1.674776459E1,-1.909216642E0,-2.598589182E0,1.705536258E1
1.679449489E1,-1.621681213E1,5.437922478E-1,1.451577187E0,1.629072688E1
1.681130472E1,-1.219304180E1,1.707528234E-1,4.777268887E0,1.309663021E1
1.682811075E1,-1.267461491E1,7.999621034E-1,8.345810890E0,1.519665627E1
1.684491714E1,-1.828747177E1,3.831501603E-1,1.364384460E1,2.281957325E1
1.686172706E1,-1.641808701E1,1.252504706E0,1.078454494E0,1.650107309E1
1.687853511E1,-1.278868294E1,1.579569697E0,-4.994612694E0,1.381997133E1
1.689534202E1,-1.070368671E1,1.289701819E0,-5.515137672E0,1.210987133E1
1.691213691E1,-9.768251419E0,1.387739182E0,-5.815914154E0,1.145292160E1
1.692896417E1,-9.330506325E0,1.687085867E0,-5.902351379E0,1.116881188E1
1.694576413E1,-9.034908295E0,1.932455897E0,-5.636628151E0,1.082291692E1
1.696257067E1,-8.836974144E0,2.042428732E0,-5.273313999E0,1.049149502E1
1.697937940E1,-8.587678909E0,2.090212345E0,-4.638240814E0,9.981507629E0
1.699618080E1,-8.397335052E0,2.128421783E0,-3.743244886E0,9.437017408E0
1.701298302E1,-7.724882603E0,2.198422909E0,-2.168885469E0,8.319311191E0
1.702981728E1,-1.967859268E0,4.059393406E-1,3.364397049E0,3.918727389E0
1.704660867E1,2.851182365E1,-7.705595016E0,1.286468220E1,3.221490852E1
1.706342135E1,9.381758118E1,-9.023841858E0,3.671533585E1,1.011493161E2
1.708022691E1,6.992100525E1,-5.800453186E0,3.050619316E1,7.650633996E1
1.709703294E1,3.259802246E1,-1.995811844E1,7.328191757E0,3.891863248E1
1.711384256E1,1.874323273E1,-1.387585163E1,1.671633720E-1,2.332114867E1
1.713064420E1,1.159424019E1,-7.399968624E0,-2.410904884E0,1.396418288E1
1.714745759E1,5.995906353E0,-3.310895205E0,-4.649873734E0,8.278541284E0
1.716425221E1,-1.545124054E-1,-1.136813879E0,-4.123718739E0,4.280335981E0
1.718107312E1,-5.124513626E0,4.718160629E-1,-4.172641754E0,6.625269014E0
1.719788002E1,-7.656131744E0,7.633144855E-1,-2.044332981E0,7.961048903E0
1.721469010E1,-9.170454025E0,3.246438503E-1,8.310884237E-1,9.213757574E0
1.723149458E1,-1.195994377E1,-1.019819498E0,5.714101315E0,1.329403026E1
1.724830382E1,-1.545448303E1,-1.503918886E0,8.701635361E0,1.779947403E1
1.726511217E1,-1.736599541E1,9.898798466E-1,9.274444580E0,1.971225459E1
1.728192554E1,-1.777599335E1,1.089659929E0,1.696546173E1,2.459675161E1
1.729872580E1,-2.453229523E1,-2.014998913E0,2.523825645E1,3.525426667E1
1.731553575E1,-2.064639282E1,-2.877242565E0,1.060585499E1,2.338880547E1
1.733234244E1,-1.328244019E1,-1.066481233E0,4.095343590E0,1.394031702E1
1.734915047E1,-1.062663174E1,-1.730402410E-1,2.771063745E-1,1.063165241E1
1.736595631E1,-9.972008705E0,-5.469676852E-2,-1.885670781E0,1.014887696E1
1.738276570E1,-9.742312431E0,-9.399414062E-2,-2.774102211E0,1.013001133E1
1.739957350E1,-9.454983711E0,3.030502796E-2,-2.888653755E0,9.886453150E0
1.741636805E1,-9.219588280E0,1.969964355E-1,-3.010496855E0,9.700654976E0
1.743318708E1,-8.977104187E0,2.701407075E-1,-3.173031330E0,9.525203589E0
1.745000227E1,-8.599170685E0,1.832526922E-1,-3.463002920E0,9.272092927E0
1.746680262E1,-8.216663361E0,6.339329481E-2,-3.666770935E0,8.997932239E0
1.748362513E1,-7.180998802E0,-3.888291121E-1,-3.207091093E0,7.874221559E0
1.750042208E1,-6.235224724E0,-3.148661852E-1,-2.484277248E0,6.719285789E0
1.751721172E1,-3.976721287E0,3.248202801E-2,-2.936263084E-1,3.987678985E0
1.753403318E1,4.663173676E0,-1.067779779E0,1.061692429E1,1.164493124E1
1.755084420E1,3.668966675E1,-1.148107910E1,3.486504364E1,5.189911455E1
1.756764382E1,7.370283508E1,-6.033668995E0,5.692864609E1,9.332407946E1
1.758445575E1,1.633560181E1,1.148497963E1,3.435452271E1,3.973650556E1
1.760126519E1,3.020522308E1,-4.347981453E0,3.925272369E1,4.971958127E1
1.761807388E1,1.966053009E1,-4.712420464E0,6.763683319E0,2.131878895E1
1.763487826E1,1.635945129E1,-4.060665607E0,1.429951668E0,1.691642437E1
1.765169102E1,9.799481392E0,-8.928201199E-1,2.113525391E0,1.006448970E1
1.766851119E1,2.405879021E0,3.812115192E-1,-9.291920662E-1,2.607100685E0
1.768530175E1,-4.058157921E0,6.495237350E-3,-6.795513630E0,7.915029589E0
1.770211217E1,-7.063899040E0,-1.934394836E-1,-8.908166885E0,1.137064315E1
1.771892594E1,-8.541412354E0,-1.122739315E-1,-7.897642612E0,1.163361892E1
1.773572553E1,-1.111216354E1,-7.013189793E-1,-7.485703468E0,1.341669793E1
1.775253358E1,-1.203307629E1,-2.244178772E0,-5.035701752E0,1.323591914E1
1.776934278E1,-1.126899529E1,-3.049020529E0,-1.164616585E0,1.173214016E1
1.778615137E1,-1.173403168E1,-7.660136223E-1,1.266444874E1,1.728185575E1
1.780295610E1,-1.683210373E1,-1.945360303E-1,2.184548950E1,2.757866878E1
1.781976903E1,-2.486917114E1,9.839676023E-1,1.878157425E1,3.117998391E1
1.783657182E1,-2.015910912E1,2.982087135E0,1.934143424E0,2.047006191E1
1.785338119E1,-1.462464523E1,3.445406914E0,-2.110036373E0,1.517245302E1
1.787018737E1,-1.167213154E1,3.007630348E0,-3.095743179E0,1.244460207E1
1.788699533E1,-1.010067558E1,2.318197727E0,-3.607764244E0,1.097331540E1
1.790380119E1,-9.188110352E0,1.738364458E0,-4.155612469E0,1.023290759E1
1.792059912E1,-8.607208252E0,1.402189016E0,-4.938763142E0,1.002205315E1
1.793740718E1,-8.227501869E0,1.068895340E0,-5.802077293E0,1.012415059E1
1.795422722E1,-7.877042294E0,6.846911311E-1,-6.191398144E0,1.004241048E1
1.797102962E1,-7.466253281E0,2.346251011E-1,-6.466866493E0,9.880301070E0
1.798784298E1,-6.886637211E0,-2.777770162E-1,-6.254167080E0,9.306854356E0
1.807398018E1,2.419640732E1,1.409455585E1,3.531576538E1,4.507023315E1
1.809079292E1,4.267699051E1,-1.558361340E1,4.419122696E1,6.338011570E1
1.810759603E1,2.057674599E1,-4.983962059E0,5.940350533E0,2.198931826E1
1.812439817E1,1.295712280E1,-3.264554501E0,3.123646736E0,1.372229997E1
1.814121397E1,6.719699860E0,-2.799314260E0,1.710459709E0,7.477713484E0
1.815801757E1,1.339912891E0,-1.570241809E0,7.402801514E-2,2.065552237E0
1.817481334E1,-3.901642799E0,-5.923043489E-1,-4.315378189E0,5.847745710E0
1.819163379E1,-7.102335930E0,1.413371563E-1,-6.140483856E0,9.389818627E0
1.820844288E1,-8.696171761E0,4.494322538E-1,-7.880184174E0,1.174404935E1
1.822525104E1,-1.027255440E1,3.939567804E-1,-8.613576889E0,1.341172184E1
1.824205734E1,-1.253569984E1,1.465997338E0,-9.244235992E0,1.564445007E1
1.825886241E1,-1.023911858E1,1.057722688E0,1.686369658E0,1.043082783E1
1.827567502E1,-9.658695221E0,1.666972041E-1,1.131627750E1,1.487872030E1
1.829248214E1,-1.176852798E1,3.973876238E-1,1.948222733E1,2.276429989E1
1.830928754E1,-1.574706841E1,1.993932486E0,1.781783295E1,2.386254599E1
1.832609458E1,-2.008743668E1,3.783407211E0,1.104056072E1,2.323172967E1
1.834290436E1,-2.059684753E1,3.557634830E0,3.647796631E0,2.121775941E1
1.835971214E1,-1.479946518E1,2.143534660E0,-2.462460041E0,1.515528356E1
1.837651988E1,-1.157740974E1,1.573711157E0,-2.696706295E0,1.199104699E1
1.839331653E1,-9.936419487E0,1.055722952E0,-4.002789497E0,1.076426063E1
1.841013341E1,-9.376379967E0,7.546532154E-1,-4.918795586E0,1.061510964E1
1.842693365E1,-9.241175652E0,3.607514501E-1,-5.822741508E0,1.092857666E1
1.844374066E1,-9.299653053E0,-1.115234494E-1,-6.499087334E0,1.134610596E1
1.846057283E1,-9.365859985E0,-2.535981536E-1,-6.722703457E0,1.153162552E1
1.847736895E1,-9.250226974E0,-1.255351901E-1,-6.173392773E0,1.112174611E1
1.849416760E1,-8.795915604E0,5.938434601E-2,-4.589797974E0,9.921587738E0
1.850889258E1,-6.932305813E0,-3.841727972E-1,1.701993942E0,7.148512852E0
1.852568670E1,-2.110316277E0,-1.315487981E0,1.259837723E1,1.284145834E1
1.854249636E1,3.133934784E1,-5.560623169E0,4.704792404E1,5.680301409E1
1.855930205E1,9.532457733E1,9.660359383E0,6.574809265E1,1.162020192E2
1.857610959E1,2.565367126E1,7.279120445E0,2.110557556E1,3.400796618E1
1.859292751E1,2.720384216E1,-1.464844894E1,1.956999969E1,3.657336426E1
1.860972955E1,1.316270256E1,-3.528562784E0,8.646278381E0,1.613894742E1
1.862653242E1,1.108643341E1,-2.470075369E0,9.082128525E0,1.454287924E1
1.864334122E1,7.454048157E0,-1.968104243E0,3.671997070E0,8.539310904E0
1.866015121E1,3.708731890E0,-1.680281281E0,-4.237767696E0,5.876794404E0
1.867695499E1,6.630671024E-1,-1.497423291E0,-9.059895515E0,9.206717181E0
1.869376753E1,-2.989297390E0,-9.546380043E-1,-9.441917419E0,9.949725482E0
1.871057220E1,-5.542624474E0,-4.971969128E-1,-9.228336334E0,1.077636684E1
1.872738027E1,-6.815948009E0,1.413472891E-1,-7.751720428E0,1.032309527E1
1.874418913E1,-7.836796761E0,2.284383774E-1,-7.115061760E0,1.058733543E1
1.876099554E1,-9.126348495E0,2.717109919E-1,-8.335708618E0,1.236317523E1
1.877780342E1,-1.010074043E1,1.933493495E0,-2.534760475E0,1.059190092E1
1.879461435E1,-1.119295120E1,2.766509533E0,5.933673859E0,1.296704350E1
1.881141938E1,-1.201092052E1,2.341637850E0,1.138845825E1,1.671653257E1
1.882822581E1,-1.303672981E1,1.998600483E0,1.418099403E1,1.936624176E1
1.884503402E1,-1.566772842E1,2.386075735E0,1.411920738E1,2.122552917E1
1.886183818E1,-1.904383850E1,3.193294048E0,1.000157166E1,2.174618006E1
1.887863788E1,-1.487912655E1,2.720396519E0,-3.928557038E-1,1.513087240E1
1.889545778E1,-1.297915554E1,2.240552187E0,-2.880636692E0,1.348245602E1
1.891226378E1,-1.217705059E1,2.013527393E0,-2.988336563E0,1.269901607E1
1.892907398E1,-1.125620461E1,1.402911305E0,-2.872712851E0,1.170140083E1
1.894587134E1,-1.050136757E1,8.562397957E-1,-2.866818428E0,1.091927265E1
1.896268785E1,-9.025397301E0,-2.275005579E-1,-2.817725182E0,9.457754921E0
1.897949817E1,-8.389670372E0,-7.502501011E-1,-2.534966707E0,8.796334485E0
1.899630179E1,-8.008779526E0,-7.765452266E-1,-2.320580482E0,8.374285985E0
1.901311422E1,-7.026872635E0,-5.700148344E-1,-2.376719713E0,7.439801915E0
1.902991870E1,-4.006447315E0,-1.260582805E0,-9.575371742E-1,4.307849410E0
1.904672653E1,1.961578751E1,-7.535072803E0,-2.303042173E0,2.113907389E1
1.906353451E1,9.352678680E1,1.116314793E1,1.646396446E1,9.561871076E1
1.914967217E1,6.742755890E0,-2.411976576E0,-5.169924736E0,8.832355845E0
1.916648045E1,-5.523389816E0,4.803595543E0,4.198240757E0,8.438459021E0
1.918329215E1,-1.090936565E1,4.757079124E0,4.261629581E0,1.264142189E1
1.920009278E1,-9.932368279E0,2.261133909E0,6.338305473E0,1.199744900E1
1.921690292E1,-1.034667110E1,7.143275142E-1,4.145087242E0,1.116895765E1
1.923371372E1,-1.251845169E1,2.515699863E-1,3.686209917E0,1.305232024E1
1.925051737E1,-9.706257820E0,-7.369824648E-1,4.758060932E0,1.083483862E1
1.926733094E1,-9.538146973E0,-1.732388616E0,2.092522144E0,9.917462726E0
1.928413416E1,-1.190289211E1,-3.164518595E0,-2.094116211E-1,1.231815213E1
1.930094504E1,-1.395583725E1,-3.009239912E0,-2.965047121E0,1.458123529E1
1.931774273E1,-1.194214058E1,-7.403352857E-1,2.906367064E0,1.231299263E1
1.933454159E1,-1.084046936E1,-5.886838436E-1,6.696514606E0,1.275561180E1
1.935136753E1,-1.172070312E1,-6.207839847E-1,7.033720493E0,1.368332849E1
1.936817341E1,-1.394958973E1,-8.154397607E-1,7.718333244E0,1.596335377E1
1.938497970E1,-1.630960846E1,-1.651819706E0,4.379954815E0,1.696808300E1
1.940177166E1,-1.502874756E1,-9.607532024E-1,-3.477831841E0,1.545579549E1
1.941859543E1,-1.321971321E1,-8.855082095E-2,-5.659552097E0,1.438051420E1
1.943539204E1,-1.155733013E1,2.675405741E-1,-5.628315926E0,1.285773689E1
1.945221399E1,-1.036169815E1,7.091850042E-2,-5.302392960E0,1.163981053E1
1.946901721E1,-9.719905853E0,-9.217572212E-2,-4.908790588E0,1.088950372E1
1.948582472E1,-9.308455467E0,-1.354274154E-2,-4.507670403E0,1.034246678E1
1.950263847E1,-8.926632881E0,1.202226952E-1,-4.167578697E0,9.852306344E0
1.952364485E1,-8.636656761E0,1.779617667E-1,-3.038858175E0,9.157410628E0
1.954045260E1,-5.895172596E0,-1.013082266E0,-1.795452356E0,6.245241771E0
1.955724947E1,2.673451614E1,-2.916141033E0,1.727628136E1,3.196416946E1
1.957406987E1,1.271039429E2,1.249259472E1,-2.962888241E0,1.277507570E2
1.959087696E1,8.515364838E1,6.548944473E0,2.564286804E1,8.917168377E1
1.960768116E1,3.906749344E1,-1.812623978E1,-1.058788681E1,4.435011792E1
1.962449662E1,1.803776169E1,-1.576274872E1,-2.167615128E1,3.230604631E1
1.964129666E1,8.144750595E0,-9.843795776E0,-1.097368717E1,1.684218180E1
1.965811127E1,-3.441000462E0,-2.616730928E0,7.866070747E0,8.975680138E0
1.967491419E1,-2.001165199E1,8.143928528E0,1.409378052E1,2.579582208E1
1.969171337E1,-1.268607521E1,3.176727772E0,1.127398205E1,1.726646388E1
1.970853237E1,-1.187703896E1,1.182279110E0,1.304469109E1,1.768122744E1
1.972533519E1,-8.578021049E0,-1.032443643E0,1.519446278E1,1.747913282E1
1.974214528E1,-8.433170319E0,-3.198827267E0,1.055522537E1,1.388393461E1
1.975895627E1,-1.462906837E1,-3.465126991E0,4.816628933E0,1.578659751E1
1.977574993E1,-1.663654709E1,-1.262675762E0,5.090116024E0,1.744357562E1
1.979256797E1,-1.214652061E1,1.376991749E0,8.325620651E0,1.479020042E1
1.980937569E1,-1.043842793E1,3.263570309E0,8.566345215E0,1.389222585E1
1.982618475E1,-1.723019600E1,4.865488052E0,1.976164436E1,2.666599363E1
1.984299466E1,-1.605946732E1,7.084059715E0,4.826046467E0,1.820387643E1
1.985979861E1,-1.152563667E1,6.747516632E0,-5.492008209E0,1.444061756E1
1.987661158E1,-1.019065285E1,4.806674480E0,-1.039108849E1,1.532736915E1
1.989342059E1,-9.318980217E0,3.652001381E0,-1.315706158E1,1.653144808E1
1.991022372E1,-9.133203506E0,3.346306086E0,-9.943421364E0,1.390988135E1
1.992702880E1,-9.343556404E0,3.453990936E0,-6.588788033E0,1.194337588E1
1.994382639E1,-9.196102142E0,3.188219309E0,-5.224448204E0,1.104662374E1
1.996064690E1,-9.068819046E0,2.942698002E0,-4.559230328E0,1.056832681E1
1.997744667E1,-9.174036980E0,2.928888798E0,-4.100514889E0,1.046687950E1
1.999426093E1,-9.138370514E0,3.009166241E0,-3.388147116E0,1.020021755E1
2.001105977E1,-8.726204872E0,2.697584391E0,-2.278893948E0,9.413658728E0
2.002787599E1,-8.004260063E0,2.911664248E0,8.675401211E-1,8.561459789E0
2.004468468E1,4.784898758E-1,1.907376647E0,1.244744587E1,1.260182316E1
2.006149173E1,2.725865936E1,-3.017489195E0,2.787743950E1,3.910615533E1
2.007828773E1,1.042004852E2,-2.881118298E0,1.893930054E1,1.059468691E2
2.009510884E1,1.067812576E2,-9.131140709E-1,-1.110861588E1,1.073614088E2
2.011191445E1,4.154762650E1,-1.238958931E1,-1.161450481E1,4.488433928E1
2.012873033E1,1.234361458E1,-1.211223030E1,-4.356735229E0,1.783401485E1
2.014552822E1,-1.881531715E0,-3.501639843E0,2.571751833E0,4.734506381E0
2.016232193E1,-4.841506004E0,3.833209753E0,9.872637987E-1,6.253668300E0
2.017914919E1,-4.058586121E0,3.955277443E0,-2.712947130E-2,5.667193040E0
2.019596715E1,-6.241303444E0,2.300071716E0,5.177734852E0,8.429302271E0
2.021274930E1,-8.094635010E0,1.882773042E0,5.028824806E0,9.713754640E0
2.022956998E1,-8.768418312E0,1.473726749E0,1.807963371E0,9.073354494E0
2.024637509E1,-9.784667969E0,5.031123161E-1,1.158623219E0,9.865863217E0
2.026318532E1,-1.225934505E1,1.043535471E-1,-3.073999643E0,1.263930001E1
2.027998065E1,-1.563313007E1,5.428779125E-2,-7.478339195E0,1.732983728E1
2.029680696E1,-1.561682606E1,8.025331497E-1,-6.946832657E0,1.711104320E1
2.031360803E1,-1.164027119E1,1.626241684E0,1.623198748E0,1.186487882E1
2.033041916E1,-1.002681351E1,1.142520666E0,8.968297958E0,1.350084112E1
2.034722421E1,-1.703079224E1,-1.281941533E0,1.937433624E1,2.582743044E1
2.036402921E1,-1.900807381E1,-1.271702647E-1,6.344285965E0,2.003928658E1
2.038083913E1,-1.612734222E1,2.846844673E0,-2.187880754E0,1.652218248E1
2.039764087E1,-1.361270428E1,2.754618645E0,-3.182315350E0,1.424853581E1
2.041445627E1,-1.179474831E1,2.000545979E0,-2.292157173E0,1.218081509E1
2.043126090E1,-1.088054371E1,1.519680619E0,-1.541773796E0,1.109381481E1
2.044805893E1,-1.058930874E1,1.403766870E0,-1.235509753E0,1.075316257E1
2.046487733E1,-1.069604969E1,1.453230858E0,-1.038373709E0,1.084414952E1
2.048168578E1,-1.067554855E1,1.252069473E0,-3.355464339E-1,1.075395770E1
2.049850327E1,-1.009863091E1,2.363722324E-1,1.962709188E0,1.029030832E1
2.051530142E1,-9.556476593E0,-5.812358856E-1,5.163630486E0,1.087782882E1
2.053210952E1,-8.954107285E0,-4.592548013E-1,4.776352882E0,1.015876464E1
2.054891471E1,-8.170933723E0,1.114167571E-1,5.277830601E0,9.727901493E0
2.056572596E1,-3.718842506E0,-1.004092216E0,7.405965805E0,8.347833268E0
2.058253468E1,2.224294472E1,-8.457880020E0,2.920827866E0,2.397531146E1
2.059933610E1,8.237799072E1,3.393205643E0,1.503669071E1,8.380781150E1
2.061614240E1,9.909975433E1,-4.464543819E0,-2.176438904E1,1.015597464E2
2.063295828E1,5.376728058E1,-2.541689682E1,-4.279828644E1,7.327095214E1
2.064975095E1,2.260557938E1,-1.897566223E1,-2.100329208E1,3.622466362E1
2.066655804E1,7.597043991E0,-7.955110550E0,-6.648512840E0,1.285307684E1
2.068337447E1,-2.710895538E0,-4.362618923E-1,1.891844273E0,3.334419561E0
2.070018444E1,-5.499164104E0,3.381249428E0,5.307464123E0,8.357202221E0
2.071699485E1,-5.531208515E0,2.928700447E0,8.360351562E0,1.044351628E1
2.073380145E1,-7.161375999E0,1.892360806E0,9.809037209E0,1.229160472E1
2.075060713E1,-8.764923096E0,7.240571976E-1,5.201583862E0,1.021785743E1
2.076742162E1,-9.168896675E0,3.001599908E-1,2.006585598E0,9.390694757E0
2.078422476E1,-9.611137390E0,2.369712144E-1,5.362368822E-1,9.629001365E0
2.080103178E1,-1.150743103E1,3.600337505E-1,-1.084542274E0,1.156403153E1
2.081783755E1,-1.443478775E1,2.737632990E-1,-4.088899612E0,1.500523721E1
2.083464425E1,-1.499489784E1,-2.349646986E-1,-5.589433670E0,1.600449744E1
2.085146043E1,-1.351961613E1,1.060090184E0,3.768981695E-1,1.356635042E1
2.086826153E1,-1.629706955E1,5.048694134E0,8.196597099E0,1.892796852E1
2.088506798E1,-2.196389961E1,3.177956581E0,1.118523312E1,2.485199658E1
2.090187839E1,-1.798114395E1,-1.685955763E0,1.733561635E0,1.814302126E1
2.091867362E1,-1.369453812E1,-2.809776783E0,-2.670096874E0,1.423252041E1
2.093549286E1,-1.149827385E1,-2.768777847E0,-2.178970337E0,1.202598620E1
2.095229875E1,-1.082757854E1,-2.507736921E0,-7.111763954E-1,1.113691939E1
2.096910933E1,-1.041611767E1,-2.203834057E0,3.817287683E-1,1.065354911E1
2.098590371E1,-1.007169628E1,-2.109083652E0,1.427939177E0,1.038875883E1
2.100272984E1,-9.710548401E0,-2.064678907E0,2.183370352E0,1.016487852E1
2.101952893E1,-9.260642052E0,-1.635480642E0,1.922086000E0,9.598369796E0
2.109936895E1,1.213276443E2,3.854494095E0,-1.270093346E1,1.220514978E2
2.111617520E1,5.750971222E1,-4.692650795E0,-5.351663589E1,7.869827373E1
2.113298206E1,2.106097031E1,-1.896719742E1,-2.147588348E1,3.556026743E1
2.114978968E1,-5.748549461E0,-3.387627363E0,1.407719851E-1,6.673953612E0
2.116659923E1,-9.509552002E0,2.412346601E0,7.722057700E-1,9.841102436E0
2.118340563E1,-4.005363464E0,7.539949417E-1,7.667591572E0,8.683513423E0
2.120021203E1,-6.120617867E0,-2.566443682E-1,1.148997593E1,1.302103591E1
2.121702833E1,-7.576646805E0,-1.316963196E0,4.920228004E0,9.129546127E0
2.123382841E1,-8.604724884E0,-2.870594978E0,3.237923861E0,9.631498159E0
2.125063582E1,-1.223495579E1,-3.345402241E0,-3.177234173E0,1.307595795E1
2.126744396E1,-1.524487305E1,-2.702624321E0,-6.081870079E0,1.663428616E1
2.128425302E1,-1.327913094E1,-2.074465990E0,1.951799393E-1,1.344160789E1
2.130105931E1,-1.017204380E1,-7.976887226E-1,8.757172585E0,1.344599770E1
2.131786026E1,-1.034191990E1,5.433229804E-1,1.253599930E1,1.626043620E1
2.133467278E1,-2.131311798E1,3.125889778E0,2.035110664E1,2.963423234E1
2.135147043E1,-2.556656075E1,2.966331244E0,3.662077427E0,2.599728756E1
2.136829150E1,-1.808973694E1,3.840018749E0,-1.389632225E0,1.854495630E1
2.138510206E1,-1.277455425E1,2.936952591E0,4.217434525E-1,1.311460234E1
2.140190399E1,-1.136432934E1,2.507174969E0,1.464413524E0,1.172938253E1
2.141871378E1,-1.087860107E1,2.308446884E0,2.178736687E0,1.133224523E1
2.143552077E1,-1.029886818E1,1.690078020E0,2.036271572E0,1.063341203E1
2.145232803E1,-9.760163307E0,1.198978305E0,1.599483371E0,9.962764868E0
2.146913202E1,-9.205096245E0,7.628908157E-1,1.819709301E0,9.414198915E0
2.148594990E1,-8.526010513E0,6.855431795E-1,1.955991268E0,8.774322000E0
2.150274491E1,-7.622031212E0,7.087814808E-1,6.536656022E-1,7.682773568E0
2.151955892E1,-5.224393368E0,6.999700069E-1,1.303526640E0,5.429864250E0
2.153636907E1,8.285397530E0,-6.716692448E-1,1.030545521E1,1.324014195E1
2.155317251E1,6.273693085E1,2.005893946E0,3.374460983E1,7.126461110E1
2.156998185E1,1.271612167E2,-1.045235729E1,-5.506253433E1,1.389644181E2
2.158678935E1,6.463736725E1,-4.759317875E0,-2.321204567E1,6.884358660E1
2.160359784E1,2.306106186E1,-1.948144150E1,-1.214803123E1,3.254095573E1
2.162040628E1,7.246995926E0,-1.006466389E1,-8.097822189E0,1.481185786E1
2.163721047E1,-2.513256073E0,8.911490440E-1,-1.329609632E0,2.979675231E0
2.165402348E1,6.009302139E-1,4.255992889E0,-5.042664528E0,6.625938284E0
2.167082885E1,-2.357997894E-1,1.225340128E0,-4.435822010E0,4.607990546E0
2.168763760E1,-4.081538200E0,5.806934237E-1,5.782833099E0,7.101923513E0
2.170444442E1,-7.828968048E0,5.231817961E-1,6.833111286E0,1.040470421E1
2.172125135E1,-9.567712784E0,9.794440269E-1,4.649046898E0,1.068241899E1
2.173803792E1,-1.090106964E1,1.094236851E0,1.717763543E0,1.108969725E1
2.175486766E1,-1.241512489E1,2.155407190E0,3.722124100E-1,1.260633366E1
2.177166201E1,-1.648747444E1,1.206162214E0,-4.107107162E0,1.703408260E1
2.178847921E1,-1.550162315E1,1.018709540E-1,-3.951865435E-1,1.550699424E1
2.180528984E1,-1.150114536E1,1.104334950E0,1.281530380E1,1.725479388E1
2.182209904E1,-2.169418716E1,2.150420547E-1,2.578511429E1,3.369801357E1
2.183889274E1,-2.592236328E1,-2.663911581E-1,8.655149460E0,2.733041336E1
2.185571040E1,-1.606529236E1,-3.917596936E-1,-1.064364433E0,1.610527758E1
2.187252621E1,-1.284446812E1,1.016952515E0,9.051477313E-1,1.291641769E1
2.188932326E1,-1.163153076E1,7.653875947E-1,-1.333051443E0,1.173266177E1
2.190613817E1,-1.108531284E1,6.569536924E-1,-1.612681746E0,1.122125178E1
2.192294901E1,-1.053227806E1,3.661155403E-1,-4.796528816E-1,1.054954921E1
2.193759870E1,-9.838385582E0,-5.772712827E-2,9.050409794E-1,9.880094253E0
2.202379204E1,-2.903237343E0,-2.115086913E-1,1.649957061E0,3.346024701E0
2.204059812E1,1.125758171E1,1.253561974E0,1.049973965E1,1.544503468E1
2.205740847E1,6.605871582E1,3.324120045E0,3.263352203E1,7.375466406E1
2.207421455E1,1.162123184E2,-1.258830428E0,-4.869120026E1,1.260068275E2
2.209102001E1,6.246775436E1,-1.465994835E0,-2.986728477E1,6.925622121E1
2.210782933E1,2.316613388E1,-1.244796562E1,-1.050116348E1,2.831776901E1
2.212463689E1,7.045023918E0,-6.119515419E0,-7.170234680E0,1.176830898E1
2.214144559E1,-1.989291191E0,-1.070973158E0,-5.274588585E0,5.738078745E0
2.215825067E1,-1.846135139E0,1.241009951E0,-7.859052181E0,8.167803979E0
2.217505980E1,-1.132622719E0,2.521046877E0,-2.193785906E0,3.528626954E0
2.219185413E1,-3.304396629E0,1.717404962E0,4.375429630E0,5.745685454E0
2.220867792E1,-6.803672314E0,1.395150304E0,8.149025917E0,1.070714830E1
2.222548166E1,-8.527993202E0,1.025364757E0,5.413363934E0,1.015295770E1
2.224229252E1,-9.017752647E0,1.286737442E0,2.555992842E0,9.460901408E0
2.225908533E1,-9.877361298E0,1.763865948E0,7.760534286E-1,1.006358526E1
2.227590669E1,-1.231492805E1,1.498588800E0,-2.602292538E0,1.267577011E1
2.229270836E1,-1.487745571E1,2.161654472E0,-5.689744949E0,1.607434714E1
2.230950756E1,-1.452519321E1,3.122669935E0,-1.643381357E0,1.494767566E1
2.232633291E1,-1.159883022E1,2.110219955E0,6.979388237E0,1.370028288E1
2.234312734E1,-1.020251751E1,1.930792034E-1,1.192073822E1,1.569180177E1
2.235994823E1,-1.419930553E1,-1.158707142E0,1.527494240E1,2.088747819E1
2.237673934E1,-2.295718956E1,-3.774604321E0,1.004926491E1,2.534300526E1
2.239356776E1,-1.703785324E1,-2.553854942E0,-7.081851959E-1,1.724274179E1
2.241036018E1,-1.291858482E1,-1.072630167E0,-7.425567508E-1,1.298428896E1
2.242717914E1,-1.107123566E1,-5.599930882E-1,-1.126423955E0,1.114247199E1
2.244398304E1,-1.048343754E1,-1.615666300E-1,-1.918801069E0,1.065881625E1
2.246079346E1,-1.025545216E1,1.178058684E-1,-1.874222279E0,1.042597172E1
2.247759582E1,-1.007105446E1,2.423724085E-1,-1.347234726E0,1.016365700E1
2.249020502E1,-9.795996666E0,3.572666943E-1,-1.268479347E0,9.884241500E0
2.250701530E1,-9.439616203E0,4.527112246E-1,-6.907405853E-1,9.475675389E0
2.252382078E1,-8.578917503E0,2.764799297E-1,1.641755342E0,8.738971752E0
2.254062734E1,-1.629256248E0,-1.608656645E0,3.422806501E0,4.117991801E0
2.255741661E1,2.732338333E1,-3.210965991E-1,2.654504776E1,3.809606200E1
2.257424406E1,9.352100372E1,2.106633186E-1,1.939881516E1,9.551197069E1
2.259104897E1,8.553083038E1,1.289133072E1,-3.045331192E1,9.170121897E1
2.260786091E1,3.990097809E1,-8.576183319E0,-1.221473694E1,4.260092453E1
2.262464676E1,1.278086472E1,-1.304033279E1,-5.284574986E0,1.900861686E1
2.264147882E1,1.216960335E1,-3.303218126E0,-2.406404114E1,2.716778555E1
2.265826967E1,1.230794525E1,-1.900230885E0,-1.154481888E1,1.698173244E1
2.267508553E1,7.358002663E0,-1.459941387E0,-5.163715839E0,9.106898117E0
2.269190151E1,3.501958847E-1,-6.303204894E-1,7.877714634E-1,1.067953630E0
2.270870430E1,-5.939761639E0,3.057651520E-1,9.558775902E0,1.125808409E1
2.272551349E1,-8.738031387E0,6.533452868E-1,1.100497627E1,1.406732225E1
2.274232191E1,-9.856947899E0,1.501100779E0,9.850161552E0,1.401564868E1
2.275912536E1,-1.092029476E1,3.254708767E0,7.721378803E0,1.376465246E1
2.277593403E1,-1.650860596E1,4.631327629E0,2.171625137E0,1.728291706E1
2.279274719E1,-2.056981468E1,5.769730091E0,2.331184149E0,2.149049746E1
2.280954773E1,-1.537588882E1,4.470868111E0,1.010595226E1,1.893507037E1
2.282636721E1,-1.204696751E1,9.882661700E-1,1.357822990E1,1.817895551E1
2.284315977E1,-2.399909592E1,-3.281493187E0,2.255702972E1,3.309900893E1
2.285997723E1,-1.740108681E1,-2.152373075E0,1.588440299E0,1.760550126E1
2.287677247E1,-1.208722687E1,-1.588672400E-2,-3.966385841E0,1.272138052E1
2.289359018E1,-1.048192215E1,7.814435959E-1,-6.661581993E0,1.244419627E1
2.291039777E1,-1.012167740E1,1.180293679E0,-7.447416306E0,1.262162653E1
2.292720428E1,-9.642582893E0,1.249088168E0,-7.153838634E0,1.207133105E1
2.294401588E1,-9.088781357E0,1.057959795E0,-5.991394043E0,1.093718556E1
2.296082307E1,-8.775295258E0,8.792421818E-1,-5.069611549E0,1.017250387E1
2.297762931E1,-8.605274200E0,8.374528885E-1,-4.455067635E0,9.726237661E0
2.299443625E1,-8.401181221E0,9.414978027E-1,-3.938521385E0,9.326211167E0
2.301124497E1,-7.796727657E0,9.446806908E-1,-3.457134485E0,8.580976787E0
2.302805064E1,-6.044081688E0,1.411287546E0,-4.096354485E0,7.436583628E0
2.304485463E1,-4.915390491E0,2.682065010E0,-3.425004482E0,6.563931147E0
2.306166617E1,7.465230942E0,6.349655390E-1,7.534338474E0,1.062539931E1
2.307847099E1,5.738987350E1,6.012876511E0,3.664398193E1,6.835593373E1
2.309528355E1,1.081443024E2,-1.296537280E0,-2.046694565E1,1.100716449E2
2.311209113E1,6.181441116E1,3.689544678E0,-1.546807575E1,6.382707525E1
2.312889755E1,3.033012390E1,-1.195913792E1,-1.454628372E1,3.570058495E1
2.314570622E1,1.558078861E1,-9.910488129E0,-8.620931625E0,2.037889130E1
2.316251115E1,6.893931389E0,-3.490605116E0,-8.386015892E-2,7.727719366E0
2.317932307E1,1.511427879E0,-6.167900562E-2,3.947233677E0,4.227158884E0
2.319612773E1,-1.673241615E0,1.217824101E0,3.903634071E0,4.418279304E0
2.321293772E1,-5.333541393E0,9.089534879E-1,5.498262882E0,7.713867704E0
2.322974477E1,-9.000930786E0,5.183076859E-1,6.386636734E0,1.104873416E1
2.324654714E1,-1.474267101E1,1.856684387E-1,6.797063828E0,1.623517472E1
2.326336127E1,-1.270346642E1,-1.921122074E-1,6.469400883E0,1.425721270E1
2.328016645E1,-9.619721413E0,-2.820907235E-1,3.869348049E0,1.037258259E1
2.329697389E1,-1.223538971E1,4.040483832E-1,-7.851314545E-2,1.224231109E1
2.331377733E1,-1.548200607E1,1.432171822E0,-3.455465078E0,1.592745639E1
2.333059141E1,-1.505652046E1,2.649846077E0,1.276022196E-1,1.528845234E1
2.334739841E1,-1.207083702E1,1.961825371E0,3.490531683E0,1.271761285E1
2.336420708E1,-1.166462326E1,1.320297003E0,6.827405453E0,1.358013568E1
2.338101198E1,-1.600972939E1,1.756038427E0,1.162152672E1,1.986089095E1
2.339782126E1,-1.559240723E1,2.118492603E0,2.321045399E-1,1.573737737E1
2.341462805E1,-1.452189827E1,1.579161882E0,-4.509938240E0,1.528786527E1
2.343143607E1,-1.288106823E1,9.754554033E-1,-3.097007990E0,1.328400883E1
2.344824445E1,-1.167588902E1,7.376571894E-1,-6.511069536E-1,1.171727198E1
2.346504586E1,-1.098897552E1,4.541513920E-1,4.812464714E-1,1.100887981E1
2.348186329E1,-1.050411224E1,8.320717812E-1,1.524330854E0,1.064670381E1
2.349865458E1,-9.904320717E0,1.245971799E0,2.792126417E0,1.036551902E1
2.351547399E1,-9.402545929E0,1.009650588E0,1.615848184E0,9.593655696E0
2.353228364E1,-9.055642128E0,1.121468782E0,6.898277402E-1,9.150858369E0
2.354908942E1,-6.012985229E0,1.353809357E0,-1.490878701E0,6.341254643E0
2.356589870E1,1.049919128E0,-1.793810964E0,2.611842871E0,3.337935160E0
2.358270517E1,5.088297272E1,-1.535901308E0,1.982976151E1,5.463199929E1
2.359950412E1,1.220777740E2,-1.424408627E1,-5.633207321E1,1.352005155E2
2.361631864E1,5.883527374E1,-1.205610466E1,-3.524002075E1,6.963331213E1
2.363313045E1,1.947378922E1,-1.270448494E1,-1.995510674E1,3.064047468E1
2.364993395E1,7.588444710E0,-6.248044968E0,-8.191593170E0,1.279549756E1
2.366674788E1,1.731477737E0,1.544686794E0,2.265038013E0,3.242602296E0
2.368354648E1,2.347650528E-1,3.383204222E0,4.382237434E0,5.541226432E0
2.370036359E1,-1.211853027E-1,1.746738434E0,-2.258572876E-1,1.765444009E0
2.371716377E1,-3.269066334E0,1.123789787E0,-2.688062191E0,4.378969802E0
2.373398962E1,-6.774294853E0,1.007174134E0,-4.791318178E-1,6.865496180E0
2.375078513E1,-9.596123695E0,9.920223355E-1,2.401457071E0,9.941664567E0
2.376758938E1,-1.032592201E1,1.201192260E0,2.195233107E0,1.062480949E1
2.378437952E1,-1.098111153E1,1.249651194E0,1.325631380E0,1.113120555E1
2.380120711E1,-1.234141159E1,1.664447308E0,-1.429104805E-2,1.245315338E1
2.381801193E1,-1.470210266E1,9.826740026E-1,-2.414673328E0,1.493144729E1
2.383482134E1,-1.577725887E1,1.738750339E0,4.097493887E-1,1.587806805E1
2.385162869E1,-1.539337730E1,2.484029531E0,8.402034760E0,1.771216124E1
2.386843631E1,-1.665149689E1,8.370323777E-1,1.457670593E1,2.214618088E1
2.388524303E1,-1.804470062E1,6.640753746E-1,6.269489765E0,1.911435896E1
2.390205143E1,-1.376034451E1,2.022945404E0,-2.036419392E0,1.405654271E1
2.391885882E1,-1.083162498E1,2.587656498E0,-4.417366982E0,1.198053409E1
2.393566762E1,-9.628520966E0,2.716108322E0,-5.917715549E0,1.162346840E1
2.395246008E1,-8.880312920E0,2.688593864E0,-6.164505959E0,1.113955243E1
2.396928511E1,-8.362380981E0,2.678984642E0,-6.292083740E0,1.080262432E1
2.398607811E1,-8.043361664E0,2.616631508E0,-6.282192707E0,1.053605109E1
2.404070303E1,-5.640614510E0,2.881005287E0,-5.025387764E0,8.085248647E0
2.405753042E1,-4.054733276E0,1.967385054E0,-2.503039360E0,5.155256728E0
2.407432974E1,1.845998764E0,1.925352573E0,1.805881500E0,3.221164690E0
2.409113805E1,1.951025772E1,1.767883539E0,2.679656029E0,1.977261047E1
2.410795439E1,7.828110504E1,-8.007737160E0,2.276555824E1,8.191657893E1
2.412474447E1,9.594377899E1,1.558684540E1,1.334547806E1,9.811350703E1
2.414154145E1,4.502545166E1,1.838264823E0,5.203795433E0,4.536242941E1
2.415836665E1,2.336497116E1,-6.507162094E0,-1.616115570E-1,2.425471406E1
2.417516480E1,1.131363201E1,-3.321396351E0,3.436670303E0,1.228171998E1
2.419198489E1,4.298983574E0,1.274295807E0,3.977517128E0,5.993807811E0
2.420877983E1,-5.146446228E-1,3.284833431E0,-6.408395767E-1,3.386098806E0
2.422560134E1,-4.435217381E0,3.107699156E0,-1.772753477E0,5.698385925E0
2.424241017E1,-8.399168015E0,1.298232794E0,-1.017141342E0,8.559556544E0
2.425921163E1,-1.034027576E1,-3.125239611E-1,-1.224500418E0,1.041721534E1
2.427602555E1,-1.197063637E1,-1.120237350E0,-2.165597677E0,1.221641846E1
2.429282793E1,-1.360217667E1,-1.450278878E0,-2.892005920E0,1.398163857E1
2.430964200E1,-1.461640739E1,2.088491321E-1,-9.276367426E-1,1.464730327E1
2.432644523E1,-1.342336082E1,3.141454220E0,1.055366898E1,1.736189158E1
2.434325627E1,-2.876762772E1,1.076066732E0,2.626931190E1,3.897192672E1
2.436005824E1,-2.601038551E1,1.449114561E0,9.031525612E0,2.757187956E1
2.437687238E1,-1.700297165E1,2.506656885E0,4.163111687E0,1.768377427E1
2.439366484E1,-1.289528656E1,2.375162363E0,2.429949343E-1,1.311445227E1
2.441048531E1,-1.138224506E1,2.332736492E0,5.290275812E-1,1.163086551E1
2.442729334E1,-1.045509911E1,2.319555759E0,2.516462088E0,1.100100076E1
2.444410041E1,-9.784108162E0,2.113260269E0,4.879673004E0,1.113579140E1
2.446090714E1,-9.193029404E0,2.105480194E0,6.235047817E0,1.130577984E1
2.447771587E1,-8.633067131E0,2.161495686E0,4.306063652E0,9.886561377E0
2.449452495E1,-8.009072304E0,1.614766598E0,2.629440546E0,8.582928866E0
2.451133059E1,-6.437433243E0,1.725226045E0,-4.182379246E0,7.868242994E0
2.452813765E1,-6.387952805E0,1.292406797E0,-6.171918869E0,8.976014644E0
2.454494765E1,-4.702229500E0,-1.535774469E-1,-6.482761383E0,8.010040165E0
2.456174440E1,4.374946594E0,-1.835357428E0,-5.500256538E0,7.263712314E0
2.457856404E1,3.247040939E1,1.403923035E0,6.690425873E-1,3.250763147E1
2.459535337E1,7.749918365E1,-1.449026823E0,-3.255867386E1,8.407312525E1
2.461217851E1,5.399076080E1,-2.910554647E0,-2.406142235E1,5.918129456E1
2.462898465E1,2.481141663E1,-3.804111958E0,-1.040250206E1,2.717148711E1
2.464579558E1,1.730691910E1,8.342205882E-1,-8.915975571E0,1.948640534E1
2.466259932E1,2.150138855E1,5.687707901E0,-9.433526993E0,2.415887336E1
2.467940980E1,1.961929131E1,5.870781898E0,-8.694101334E0,2.224792281E1
2.469620380E1,1.093033791E1,4.703897953E0,-5.281419754E0,1.301892228E1
2.471302369E1,4.554860115E0,2.340974331E0,-3.994579315E0,6.494888405E0
2.472983329E1,-1.932676315E0,8.872892857E-1,-2.758421659E0,3.483017380E0
2.474664004E1,-6.968600750E0,8.765981793E-1,9.815731049E-1,7.091777389E0
2.476344569E1,-1.014258671E1,1.667539835E0,4.319270134E0,1.114938782E1
2.478024879E1,-1.378457832E1,2.179666758E0,6.116227150E0,1.523724979E1
2.479706539E1,-2.220006752E1,4.061179161E0,8.287360191E0,2.404197398E1
2.481386002E1,-1.987463379E1,1.557810545E0,7.086300850E0,2.115758733E1
2.483068053E1,-1.577236938E1,-9.976763725E-1,7.289147377E0,1.740386921E1
2.484748437E1,-1.349164581E1,-1.921697974E0,9.558976173E0,1.664606426E1
2.486429351E1,-1.300971889E1,-7.638769150E-1,8.279031754E0,1.543951620E1
2.488110188E1,-1.266108131E1,1.692880511E0,5.905867577E0,1.407295620E1
2.489790720E1,-1.178041267E1,2.873498440E0,3.008934021E0,1.249355034E1
2.491471483E1,-1.047331142E1,3.251778603E0,-5.945982933E-1,1.098261642E1
2.493152641E1,-9.338604927E0,3.033668995E0,-3.305858135E0,1.036056888E1
2.494833012E1,-8.631719589E0,2.841639519E0,-4.529569626E0,1.015374311E1
2.503235163E1,-6.604662895E0,2.185054302E0,-3.707862854E0,7.883164416E0
2.504917562E1,-6.772708893E0,1.864295721E0,-2.554621458E0,7.474709030E0
2.506598400E1,-6.416817665E0,1.477697134E0,-1.593005538E0,6.774718032E0
2.508278114E1,-4.903671265E0,-6.382942200E-2,-7.444405556E-1,4.960267917E0
2.509959785E1,4.745454788E-1,-7.133783102E-1,1.812937975E0,2.005204759E0
2.511638824E1,2.864080048E1,4.352345467E-1,2.086679077E1,3.543879002E1
2.513322043E1,1.196587296E2,-1.000088596E1,-5.606193542E1,1.325185643E2
2.515000120E1,6.293995667E1,5.269588828E-1,-1.281128407E0,6.295519931E1
2.516682895E1,2.187758636E1,-1.487137127E1,-1.434775829E1,3.009393023E1
2.518362568E1,1.457699776E1,-8.870136261E0,-1.625030518E1,2.356354386E1
2.520044390E1,1.339591885E1,-3.751963615E0,-4.140426636E0,1.451451017E1
2.521725827E1,9.123186111E0,1.933592558E-1,3.624761105E-2,9.125306927E0
2.523405914E1,2.963336945E0,1.869711876E0,-3.964138925E-1,3.526234865E0
2.525087003E1,-3.348053932E0,2.569747448E0,-1.302815914E0,4.417057435E0
2.526766342E1,-7.816246986E0,2.357643843E0,3.451595306E-1,8.171372990E0
2.528448627E1,-1.189389706E1,1.299018979E0,4.850130081E0,1.291030593E1
2.530128794E1,-1.248842430E1,1.455080628E0,7.208231449E0,1.449263957E1
2.531810213E1,-1.460485744E1,2.796593904E0,5.850839615E0,1.597983488E1
2.533490762E1,-1.571420479E1,2.969473362E0,7.278519154E0,1.757073832E1
2.535171680E1,-1.535734367E1,1.903327107E0,6.935362339E0,1.695788635E1
2.536851952E1,-1.407407761E1,2.564142466E0,8.029587746E0,1.640514451E1
2.538533309E1,-1.365449047E1,2.226579189E0,9.420057297E0,1.673739061E1
2.540213925E1,-1.301087284E1,1.259507179E0,9.897005081E0,1.639572749E1
2.541894771E1,-1.169321632E1,9.765733480E-1,6.362502575E0,1.334790030E1
2.543574220E1,-1.048164463E1,1.695549488E0,2.686954498E0,1.095260182E1
2.545256473E1,-9.758062363E0,2.095748901E0,-1.207388639E-1,9.981308652E0
2.546936330E1,-9.382904053E0,2.300282240E0,-1.924128652E0,9.850505465E0
2.548197491E1,-8.881872177E0,2.570994616E0,-2.915598869E0,9.695276347E0
2.549877416E1,-8.427296638E0,2.782828331E0,-3.996396065E0,9.733172333E0
2.551558023E1,-7.620772362E0,3.684580803E0,-6.839084625E0,1.088234284E1
2.553240004E1,-7.346671104E0,4.067512989E0,-7.441229820E0,1.122007752E1
2.554920593E1,-6.808705330E0,3.803041458E0,-7.709707260E0,1.096636579E1
2.556601468E1,-6.150817871E0,3.231328249E0,-7.218474865E0,1.001900305E1
2.558282535E1,-4.848732471E0,2.648732662E0,-6.469008446E0,8.507294609E0
2.559962491E1,-2.892293453E0,2.459885359E0,-3.722110748E0,5.317001582E0
2.561644049E1,7.144627571E0,2.194149971E0,3.118589401E0,8.098493507E0
2.563324519E1,2.976123810E1,-1.123544931E0,1.192411613E1,3.208080722E1
2.565005290E1,7.198967743E1,-7.865646362E0,-4.782650757E1,8.678569511E1
2.566686119E1,6.037377930E1,-3.505164146E0,-5.218293190E0,6.070016463E1
2.568366426E1,3.117354965E1,-7.830746651E0,-5.443866253E0,3.259979250E1
2.570047846E1,1.836838341E1,-6.637517929E0,-1.481520557E1,2.451416875E1
2.571728403E1,1.862879181E1,-3.106297731E0,-1.482927895E1,2.401225695E1
2.573409206E1,1.399425316E1,-7.067403793E-1,-7.502925873E0,1.589441726E1
2.575089241E1,5.488689423E0,2.690864801E0,-5.057475090E0,7.933758204E0
2.576770950E1,-7.814664841E-1,3.487663031E0,-5.998714447E0,6.982768670E0
2.578451483E1,-5.714770794E0,2.981905460E0,-1.137467027E0,6.545547849E0
2.580132257E1,-9.250082016E0,1.982892156E0,6.956470966E0,1.174258774E1
2.581812932E1,-1.117996979E1,8.584513664E-1,8.767166138E0,1.423347692E1
2.583493847E1,-1.500675392E1,-2.175253630E-1,6.979656219E0,1.655190568E1
2.585174552E1,-1.570301342E1,-2.059481144E-1,9.072600365E0,1.813667893E1
2.586853596E1,-1.283500099E1,7.020978928E-1,7.871354103E0,1.507277039E1
2.588536252E1,-1.232788372E1,1.886578679E0,3.773591757E0,1.302980778E1
2.590217072E1,-1.342524529E1,2.392583847E0,4.259431362E0,1.428651196E1
2.591897513E1,-1.303967094E1,1.931742907E0,6.532824993E0,1.471198326E1
2.593578276E1,-1.215028572E1,1.778632045E0,5.999602318E0,1.366704807E1
2.595259261E1,-1.352501392E1,1.989149332E0,7.549486637E0,1.561657662E1
2.596939838E1,-1.373837280E1,2.370562553E0,2.317616224E0,1.413272087E1
2.598620742E1,-1.261997223E1,2.040181160E0,-3.292950153E0,1.320111961E1
2.600302477E1,-1.180641651E1,1.406351447E0,-4.423581123E0,1.268610914E1
2.601981899E1,-1.118131733E1,1.090913892E0,-3.998788834E0,1.192485901E1
2.603662023E1,-1.069722271E1,1.017587423E0,-3.234044790E0,1.122163551E1
2.605343240E1,-1.030052662E1,7.546575069E-1,-2.405495167E0,1.060456334E1
2.607024927E1,-9.979512215E0,3.734895587E-1,-1.603514194E0,1.011441626E1
2.608704976E1,-9.696604729E0,2.518036366E-1,-8.445043564E-1,9.736566949E0
2.610386536E1,-9.319585800E0,5.233876109E-1,2.222902775E-1,9.336917427E0
2.612066621E1,-8.785725594E0,1.084540963E0,-1.458976269E-1,8.853614484E0
2.613746668E1,-6.042483807E0,5.085884929E-1,-2.505970001E0,6.561261956E0
2.615428444E1,4.291356087E0,-2.443334579E0,8.817020416E0,1.010571472E1
2.617109250E1,7.468112183E1,-1.381859541E0,9.915034294E0,7.534910350E1
2.618789798E1,1.170445023E2,1.372766876E1,-2.253182411E1,1.199814465E2
2.620470653E1,4.607846451E1,-1.754677200E1,-3.217668152E1,5.887659070E1
2.622151648E1,1.676353073E1,-1.216550446E1,-1.724507523E1,2.695195876E1
2.623832047E1,3.229504585E0,-4.372180939E0,-4.135309696E0,6.829820811E0
2.625512878E1,-2.441112518E0,4.300641060E0,2.366189241E0,5.482097717E0
2.627193944E1,1.968067169E0,3.378321171E0,-1.747663617E0,4.282600896E0
2.628874116E1,1.733875275E-2,1.804509878E0,-3.067552567E0,3.558993577E0
2.630555945E1,-4.300908089E0,1.378959417E0,6.711198688E-1,4.566151699E0
2.632235698E1,-7.954483032E0,1.543457508E0,5.495602131E0,9.790694775E0
2.633916925E1,-9.321869850E0,2.053584814E0,3.852992058E0,1.029368816E1
2.635597491E1,-1.053392982E1,3.251737118E0,5.215265751E-1,1.103673239E1
2.637278612E1,-1.355792713E1,4.922046185E0,-1.330285072E0,1.448494339E1
2.638957502E1,-1.717236328E1,5.723031044E0,-3.058198929E0,1.835744333E1
2.640640112E1,-1.713128662E1,4.401198864E0,5.739858150E-1,1.769692042E1
2.642320786E1,-1.369895744E1,1.457378387E0,9.272068977E0,1.660592213E1
2.644001490E1,-1.600544167E1,-1.474669695E0,1.952305222E1,2.528830523E1
2.645682162E1,-1.814937210E1,-3.608393192E0,1.028480911E1,2.117067565E1
2.647363055E1,-1.417779350E1,-4.414306641E0,-4.902575612E-1,1.485719638E1
2.649042567E1,-1.136534023E1,-3.351875544E0,-2.367209435E0,1.208344772E1
2.650724120E1,-1.004837322E1,-2.125448465E0,-3.582069397E0,1.087743337E1
2.652404446E1,-9.280372620E0,-1.364460945E0,-4.472785950E0,1.039196246E1
2.654086130E1,-8.749976158E0,-9.822173119E-1,-5.083943367E0,1.016726678E1
2.655767133E1,-8.332444191E0,-8.353208303E-1,-5.916163445E0,1.025321301E1
2.657447238E1,-8.015763283E0,-9.449157119E-1,-6.546083927E0,1.039213845E1
2.659128768E1,-7.638842583E0,-1.024089575E0,-6.120918274E0,9.842068684E0
2.660808760E1,-6.211882591E0,-1.726890445E0,-6.229058743E0,8.964976785E0
2.662490268E1,-4.018504143E0,-1.173043251E0,-6.076756001E0,7.379117122E0
2.664170675E1,-1.120258331E0,-2.046720982E-1,-4.253312111E0,4.403127674E0
2.665851499E1,9.196544647E0,-1.986891866E0,6.521620750E0,1.144795658E1
2.667531809E1,5.967917633E1,-1.406627178E0,-6.132371426E0,6.000990474E1
2.669213110E1,7.111612701E1,1.264789009E1,1.393649673E1,7.356424802E1
2.670893694E1,4.334777832E1,-3.431529522E0,1.794133377E1,4.703931056E1
2.672574492E1,2.175193787E1,-1.126236153E1,6.127433777E0,2.524941648E1
2.674255034E1,1.941160393E1,-4.157900333E0,1.523113823E1,2.502171205E1
2.675936260E1,1.916879272E1,-1.573575735E0,1.006955528E1,2.170978348E1
2.677616774E1,1.376544952E1,2.688760161E-1,-1.290345192E-1,1.376867985E1
2.679297574E1,6.191060543E0,6.604753137E-1,-1.577657700E0,6.422963654E0
2.680978374E1,-6.679100990E-1,7.429122329E-1,-3.236175537E0,3.386865010E0
2.682659392E1,-4.843705177E0,8.888936043E-1,-4.819973946E0,6.890846140E0
2.684339933E1,-7.802845955E0,-2.424839884E-1,-4.946190834E0,9.241645267E0
2.686020642E1,-9.478239059E0,-1.681387424E0,-4.989266872E0,1.084236428E1
2.687700213E1,-1.048962975E1,-1.813767433E0,-4.048104286E0,1.138899613E1
2.689382124E1,-1.172412872E1,-2.896735966E-1,-2.836873531E0,1.206594201E1
2.691063916E1,-1.348790359E1,1.790459871E0,4.920043945E-1,1.361511507E1
2.692743767E1,-1.515234566E1,5.020425797E0,4.958552361E0,1.671482861E1
2.694422943E1,-1.702489471E1,8.896449089E0,9.259989738E0,2.132466310E1
2.696105040E1,-1.804729652E1,1.027758217E1,9.517983437E0,2.284569140E1
2.697786056E1,-1.838435173E1,9.452828407E0,9.751764297E0,2.285688650E1
2.704928893E1,-6.809632778E0,7.696399689E-1,-1.517720985E1,1.665266175E1
2.706609218E1,-7.021319389E0,1.079866171E0,-1.037774944E1,1.257627609E1
2.708290605E1,-7.566379070E0,1.126959443E0,-7.689011574E0,1.084624492E1
2.709972559E1,-7.653800011E0,8.036898375E-1,-6.333092213E0,9.966675922E0
2.711439796E1,-6.865206718E0,7.587925196E-1,-5.263794422E0,8.684144235E0
2.713122133E1,-5.640256882E0,1.063059092E0,-4.240576744E0,7.136181293E0
2.714803749E1,-4.500279903E0,1.441269398E0,-5.418628216E0,7.189666781E0
2.716484591E1,-3.109136820E0,1.286688805E0,-6.024107933E0,6.900157696E0
2.718165006E1,3.477853298E0,4.638855934E0,3.381076336E0,6.711641016E0
2.719848476E1,3.583524323E1,2.465771437E0,3.632814789E1,5.108795371E1
2.721526702E1,1.130091019E2,-5.677681446E0,3.557329559E1,1.186117723E2
2.723207817E1,3.250566864E1,-4.469844818E0,2.648041916E1,4.216409142E1
2.724888777E1,1.574148178E1,-8.232919693E0,2.284799957E1,2.894142878E1
2.726568339E1,1.109084702E1,-5.977010727E0,7.947993279E0,1.489638016E1
2.728249946E1,1.059410667E1,-2.954499483E0,-2.948018551E0,1.138661393E1
2.729931161E1,9.531299591E0,-1.109980464E0,-7.941083431E0,1.245546204E1
2.731611580E1,4.977451801E0,3.029084206E-2,-6.407605171E0,8.113775200E0
2.733292427E1,-6.592688560E-1,7.519558072E-1,-4.561272621E0,4.669612498E0
2.734973053E1,-5.279641151E0,1.002195239E0,-4.030813217E0,6.717623179E0
2.736653846E1,-7.016567707E0,6.106338501E-1,-5.569516659E0,8.979120887E0
2.738334885E1,-7.928942204E0,2.653414011E-2,-6.707755089E0,1.038570204E1
2.740015513E1,-9.417554855E0,-4.639483690E-1,-6.479978085E0,1.144096602E1
2.741696123E1,-1.070292854E1,8.072556257E-1,-3.354240894E0,1.124523335E1
2.743377050E1,-1.200209045E1,2.081975460E0,-1.281588554E0,1.224856181E1
2.745057818E1,-1.319836712E1,3.422404766E0,2.240087509E0,1.381766048E1
2.746738413E1,-1.411875534E1,4.858418465E0,7.496069908E0,1.670732014E1
2.748418075E1,-1.587416840E1,6.614622116E0,9.136493683E0,1.947351958E1
2.750100129E1,-1.742662048E1,7.249336720E0,9.352947235E0,2.106460553E1
2.751779967E1,-1.792435074E1,6.732244492E0,4.516434669E0,1.967240828E1
2.753461535E1,-1.320557022E1,4.109893799E0,-3.594016314E0,1.428969087E1
2.755143520E1,-1.027533340E1,2.528877258E0,-6.170104027E0,1.224940327E1
2.756823054E1,-8.811597824E0,1.957416892E0,-7.508128166E0,1.174085711E1
2.758503983E1,-7.470904350E0,1.720304251E0,-8.531602859E0,1.147005257E1
2.760184625E1,-6.564322948E0,1.556515932E0,-9.873896599E0,1.195854973E1
2.761864520E1,-6.175377369E0,1.404928684E0,-1.050081062E1,1.226279471E1
2.763545969E1,-6.003027439E0,1.431895018E0,-9.921871185E0,1.168461337E1
2.765227170E1,-5.755128860E0,1.654244184E0,-8.882265091E0,1.071226704E1
2.766907531E1,-5.749415398E0,1.640019655E0,-8.108830452E0,1.007465003E1
2.768588602E1,-5.404953003E0,1.802482605E0,-7.511673450E0,9.428027287E0
2.770269533E1,-4.088995934E0,2.163053036E0,-6.659950256E0,8.108860808E0
2.771950101E1,4.228507996E0,3.469839811E0,5.723284245E0,7.916820746E0
2.773630930E1,2.522082329E1,3.689714193E0,3.265652466E1,4.142647126E1
2.775311736E1,1.235004196E2,-1.485199356E1,2.669939804E1,1.272233988E2
2.776993087E1,5.201799393E1,-1.266958475E0,1.810417175E1,5.509299330E1
2.778673020E1,2.347875214E1,-1.115276909E1,2.217777061E1,3.416854650E1
2.780353834E1,1.433249950E1,-6.184494972E0,1.515400982E1,2.175574714E1
2.782034942E1,9.513078690E0,-4.320001125E0,2.598697662E0,1.076635061E1
2.783715404E1,5.531734943E0,-2.506097555E0,-2.837160110E0,6.702991417E0
2.785396086E1,1.505785942E0,-1.185814142E-1,-3.559764862E0,3.866959882E0
2.787077082E1,-3.314436913E0,1.222829103E0,-5.911789894E0,6.886948730E0
2.788757690E1,-6.328223228E0,1.225937724E0,-7.283154488E0,9.725927813E0
2.790438611E1,-7.415630817E0,8.594316244E-1,-7.170291901E0,1.035100425E1
2.792119228E1,-8.730397224E0,3.795295954E-1,-7.164849281E0,1.130039573E1
2.793799979E1,-1.061777782E1,-2.227503955E-1,-6.234212399E0,1.231471591E1
2.795480904E1,-1.189578533E1,-1.358719110E0,-5.900354862E0,1.334803408E1
2.797160358E1,-1.340948963E1,-2.113248587E0,-5.071537495E0,1.449140174E1
2.798842484E1,-1.242758369E1,-4.753918648E-1,7.507176399E-1,1.245931021E1
2.800522235E1,-1.177768040E1,1.535427451E0,9.456430435E0,1.518207395E1
2.802202956E1,-2.139140701E1,4.987341881E0,2.045586586E1,3.001513487E1
2.803884323E1,-2.002624130E1,6.515933037E0,4.565477848E0,2.154881231E1
2.805564609E1,-1.428423882E1,4.960665226E0,-1.383980513E0,1.518430374E1
2.807246517E1,-1.150414085E1,3.391103983E0,-1.946916938E0,1.215052791E1
2.808926746E1,-1.064105988E1,2.596734047E0,-1.897755146E0,1.111650384E1
2.810607838E1,-1.042267036E1,2.271885157E0,-1.667863607E0,1.079700369E1
2.812287157E1,-1.019167709E1,2.213167667E0,-1.813307762E0,1.058567325E1
2.813969686E1,-9.922345161E0,1.855538487E0,-1.599053741E0,1.022022159E1
2.815650050E1,-9.698886871E0,1.596117139E0,-1.210048676E0,9.903545540E0
2.817330790E1,-9.342535019E0,1.759986043E0,-9.063467979E-1,9.549972564E0
2.819011765E1,-8.637823105E0,1.866461039E0,-1.049515009E0,8.899277867E0
2.820692268E1,-7.999151230E0,2.506875038E0,-2.501419544E0,8.748025068E0
2.822373207E1,-6.263873100E0,3.265594482E0,-2.226214886E0,7.406500271E0
2.824053845E1,4.186635017E0,9.482514262E-1,8.554053307E-1,4.377078000E0
2.825734947E1,5.497100067E1,1.594114304E0,1.513463402E1,5.703866462E1
2.827415556E1,1.251112976E2,-8.077575564E-1,-7.084239960E1,1.437780750E2
2.829096266E1,7.005303955E1,-1.035071278E1,-2.347457504E1,7.460309162E1
2.830776909E1,2.415379333E1,-1.158160782E1,-1.759626579E1,3.204946087E1
2.832457843E1,7.594672203E0,-6.328410625E0,-1.547390747E1,1.836217959E1
2.834138640E1,1.912980080E0,-1.163211465E0,-4.675537109E0,5.183936820E0
2.835819131E1,-5.983343124E-1,2.317286968E0,9.959340096E-1,2.592239841E0
2.837500052E1,-1.634860039E0,2.664320469E0,1.142138481E0,3.328040147E0
2.839180906E1,-4.066834927E0,1.945694804E0,6.295717239E0,7.743444334E0
2.840862035E1,-7.349279404E0,1.209969401E0,8.768551826E0,1.150493089E1
2.842541232E1,-8.600666046E0,3.354503512E-1,3.909059048E0,9.453291808E0
2.844223046E1,-9.527864456E0,7.315977216E-1,1.984069347E0,9.759711445E0
2.845903117E1,-1.221626568E1,4.998874366E-1,-2.102955580E0,1.240602502E1
2.847584542E1,-1.607681656E1,6.681237221E-1,-5.863600731E0,1.712577687E1
2.849264519E1,-1.586128998E1,1.317454338E0,-3.088985920E0,1.621289733E1
2.850945910E1,-1.269488907E1,8.984556794E-1,9.691846848E0,1.599685364E1
2.852627228E1,-2.702677155E1,4.706749320E-1,2.734911728E1,3.845311601E1
2.854307823E1,-2.542379379E1,4.896088243E-1,4.616258621E0,2.584412605E1
2.855988531E1,-1.677806854E1,-8.181391954E-1,-2.327263355E0,1.695845189E1
2.857669438E1,-1.229848671E1,-4.909493923E-1,-4.043368340E0,1.295540946E1
2.859350296E1,-1.079326439E1,-3.311743736E-1,-5.191192627E0,1.198134857E1
2.861031184E1,-1.009854603E1,-3.053849936E-2,-4.881396770E0,1.121648782E1
2.869644925E1,-7.780280113E0,1.504550815E0,-2.151198387E0,8.211217102E0
2.871325602E1,-2.994207859E0,1.185598731E0,-6.057637215E0,6.860458708E0
2.873006127E1,4.443522453E0,5.784225464E-1,2.539892197E0,5.150778272E0
2.874686992E1,3.422122192E1,4.115162849E0,9.027762413E0,3.563042365E1
2.876367717E1,9.826647949E1,-7.911635399E0,-4.889042282E1,1.100416667E2
2.878048589E1,6.724419403E1,-5.662889481E0,-3.062938690E0,6.755169533E1
2.879729365E1,3.204143524E1,-1.099625015E1,-3.673910379E0,3.407445828E1
2.881408787E1,1.954210854E1,-3.845403194E0,-1.766724014E1,2.662353294E1
2.883090833E1,1.889160919E1,-3.367106915E0,-1.889886665E1,2.693320381E1
2.884771342E1,1.062811089E1,3.455849886E-1,-7.708158970E0,1.313361659E1
2.886452678E1,4.159060478E0,2.544956684E0,-3.553481102E0,6.033391793E0
2.888132008E1,-8.424510956E-1,3.106090546E0,7.531206608E-1,3.305255369E0
2.889813902E1,-6.692532539E0,2.284189224E0,1.056897068E1,1.271655038E1
2.891493488E1,-1.257513428E1,1.951830268E0,9.459626198E0,1.585648673E1
2.893174455E1,-1.049402046E1,2.173195362E0,4.951862812E0,1.180543048E1
2.894856502E1,-9.928323746E0,3.308837414E0,1.651821613E0,1.059474077E1
2.896536830E1,-1.481879234E1,4.655820847E0,-4.790592194E0,1.625493918E1
2.898217893E1,-1.637468147E1,5.757031441E0,-3.503809929E0,1.770735125E1
2.899898205E1,-1.258866119E1,5.497261524E0,9.339776039E0,1.661101115E1
