"Time (s)","Linear Acceleration x (m/s^2)","Linear Acceleration y (m/s^2)","Linear Acceleration z (m/s^2)","Absolute acceleration (m/s^2)"
2.430856700E-2,1.334690005E-1,-3.824984074E0,-9.699083328E0,1.042691395E1
2.923105700E-2,1.334690005E-1,-3.824984074E0,-9.699083328E0,1.042691395E1
3.415328800E-2,1.334690005E-1,-3.824984074E0,-9.699083328E0,1.042691395E1
3.907567100E-2,1.334690005E-1,-3.824984074E0,-9.699083328E0,1.042691395E1
4.399814600E-2,1.334690005E-1,-3.824984074E0,-9.699083328E0,1.042691395E1
4.892030200E-2,1.334690005E-1,-3.824984074E0,-9.699083328E0,1.042691395E1
5.384253300E-2,1.334690005E-1,-3.824984074E0,-9.699083328E0,1.042691395E1
5.876498700E-2,1.334690005E-1,-3.824984074E0,-9.699083328E0,1.042691395E1
6.368737200E-2,1.334690005E-1,-3.824984074E0,-9.699083328E0,1.042691395E1
6.860960500E-2,1.334690005E-1,-3.824984074E0,-9.699083328E0,1.042691395E1
7.353194300E-2,1.334690005E-1,-3.824984074E0,-9.699083328E0,1.042691395E1
7.845440500E-2,1.334690005E-1,-3.824984074E0,-9.699083328E0,1.042691395E1
8.337663800E-2,1.334690005E-1,-3.824984074E0,-9.699083328E0,1.042691395E1
8.829901500E-2,1.334690005E-1,-3.824984074E0,-9.699083328E0,1.042691395E1
9.322147700E-2,1.334690005E-1,-3.824984074E0,-9.699083328E0,1.042691395E1
9.814371000E-2,1.334690005E-1,-3.824984074E0,-9.699083328E0,1.042691395E1
1.030660670E-1,-5.501999985E-3,2.852300107E-1,7.979570031E-1,8.474206806E-1
1.079883000E-1,-1.188189983E-1,3.149650097E-1,7.272059917E-1,8.013422902E-1
1.129106590E-1,-1.292569935E-1,4.284900129E-1,6.668869853E-1,8.031496204E-1
1.178328920E-1,-8.370099962E-2,5.278609991E-1,6.602330208E-1,8.494414244E-1
1.227553220E-1,-1.636400074E-2,4.765030146E-1,6.634520292E-1,8.170015291E-1
1.276777090E-1,4.676099867E-2,3.379450142E-1,6.927970052E-1,7.722442062E-1
1.325999400E-1,1.041309983E-1,2.501839995E-1,7.652119994E-1,8.117787275E-1
1.375222780E-1,1.633860022E-1,2.050819993E-1,8.163179755E-1,8.573964365E-1
1.424447400E-1,1.142389998E-1,1.332120001E-1,8.194370270E-1,8.380173192E-1
1.473669720E-1,1.190939993E-1,1.453900039E-1,7.943959832E-1,8.163250652E-1
1.522893990E-1,1.159109995E-1,3.084650040E-1,7.756109834E-1,8.427089747E-1
1.572117860E-1,1.210839972E-1,4.058249891E-1,7.651039958E-1,8.744937853E-1
1.621340160E-1,1.057929993E-1,4.123480022E-1,7.002149820E-1,8.194657129E-1
1.670563600E-1,3.979799896E-2,3.864040077E-1,6.619009972E-1,7.674665256E-1
1.719788220E-1,-5.695100129E-2,4.186210036E-1,6.669459939E-1,7.894959911E-1
1.769009570E-1,-1.392560005E-1,4.280470014E-1,6.410179734E-1,7.832755015E-1
1.818231880E-1,-1.532399952E-1,4.627769887E-1,6.440929770E-1,8.077752166E-1
1.867456340E-1,-1.521130055E-1,4.964860082E-1,5.924659967E-1,7.878151306E-1
1.916680180E-1,-1.175839975E-1,4.943009913E-1,5.409399867E-1,7.421425306E-1
1.965902510E-1,-9.740299731E-2,5.041779876E-1,4.894709885E-1,7.094114713E-1
2.015126150E-1,-1.268659979E-1,5.048019886E-1,4.235140085E-1,6.710321487E-1
2.064350760E-1,-1.602690071E-1,5.223919749E-1,3.478730023E-1,6.477616505E-1
2.113573090E-1,-1.905969977E-1,5.422719717E-1,2.291730046E-1,6.187942896E-1
2.162797060E-1,-1.808049977E-1,5.715780258E-1,1.155010015E-1,6.105181145E-1
2.212021670E-1,-1.695249975E-1,6.101580262E-1,6.965999957E-3,6.333088243E-1
2.261244000E-1,-1.615210027E-1,6.368100047E-1,-7.023999840E-2,6.607190581E-1
2.310468700E-1,-2.036859989E-1,6.283720136E-1,-1.117850021E-1,6.699516850E-1
2.359692560E-1,-2.527120113E-1,6.113680005E-1,-1.369380057E-1,6.755636240E-1
2.408914620E-1,-2.612349987E-1,5.601919889E-1,-1.555130035E-1,6.373720132E-1
2.458138450E-1,-1.944479942E-1,5.062800050E-1,-1.651079953E-1,5.669127940E-1
2.507363060E-1,-6.080399826E-2,4.704029858E-1,-2.251099944E-1,5.250243850E-1
2.556584770E-1,8.426000178E-2,3.909319937E-1,-2.998209894E-1,4.998201649E-1
2.605807080E-1,1.767729968E-1,3.433659971E-1,-4.176129997E-1,5.688141329E-1
2.655031670E-1,1.915339977E-1,2.769629955E-1,-5.999990106E-1,6.880353086E-1
2.704256390E-1,1.699769944E-1,2.843720019E-1,-6.887410283E-1,7.642799344E-1
2.753480260E-1,1.055790037E-1,3.119130135E-1,-7.960289717E-1,8.614515527E-1
2.802702560E-1,7.179699838E-2,3.353070021E-1,-9.144229889E-1,9.766038077E-1
2.851927540E-1,5.383000150E-2,3.519679904E-1,-1.029399991E0,1.089239862E0
2.901151410E-1,9.415999800E-2,3.264989853E-1,-1.136294961E0,1.186015991E0
2.950373710E-1,1.426260024E-1,3.164120018E-1,-1.180060983E0,1.230041729E0
2.999597400E-1,1.689909995E-1,2.766160071E-1,-1.218443990E0,1.260825178E0
3.048819730E-1,1.923789978E-1,2.787399888E-1,-1.213032961E0,1.259426308E0
3.098043890E-1,1.986860037E-1,2.495349944E-1,-1.202594995E0,1.244177867E0
3.147266220E-1,2.047030032E-1,2.228430063E-1,-1.194460988E0,1.232192914E0
3.196491010E-1,2.478139997E-1,2.177159935E-1,-1.193245053E0,1.238000723E0
3.245714870E-1,3.061439991E-1,1.826229990E-1,-1.177873969E0,1.230634956E0
3.294937180E-1,3.791359961E-1,1.534699947E-1,-1.203336954E0,1.270951206E0
3.344161060E-1,4.238879979E-1,1.188109964E-1,-1.233997941E0,1.310170984E0
3.393383390E-1,4.473749995E-1,9.697800130E-2,-1.341276050E0,1.417240475E0
3.442610290E-1,4.800300002E-1,7.353600115E-2,-1.479539037E0,1.557200085E0
3.491832810E-1,5.778840184E-1,2.525000088E-2,-1.605793953E0,1.706798676E0
3.541056630E-1,6.995360255E-1,-4.541200027E-2,-1.777413011E0,1.910656932E0
3.590278960E-1,6.753460169E-1,-6.356599927E-2,-1.996350050E0,2.108446442E0
3.639503510E-1,6.386290193E-1,-6.635899842E-2,-2.285803080E0,2.374267521E0
3.688725060E-1,6.083379984E-1,-1.216109991E-1,-2.719126940E0,2.788999044E0
3.737949180E-1,5.502449870E-1,-1.858420074E-1,-3.056863070E0,3.111546018E0
3.787171510E-1,4.667479992E-1,-3.888700008E-1,-3.265088081E0,3.321125374E0
3.836398410E-1,5.093719959E-1,-6.488350034E-1,-3.264864922E0,3.367460415E0
3.885618920E-1,6.440950036E-1,-9.917349815E-1,-3.248867035E0,3.457388271E0
3.934841230E-1,8.286349773E-1,-1.362105012E0,-3.326956987E0,3.689255858E0
3.984065090E-1,1.020246029E0,-1.721799970E0,-3.531923056E0,4.059553863E0
4.033289710E-1,1.228716969E0,-2.138978958E0,-3.777381897E0,4.511495359E0
4.082514330E-1,1.381582975E0,-2.546331882E0,-4.079597950E0,5.003568427E0
4.131736510E-1,1.556601048E0,-2.936467886E0,-4.338147163E0,5.464921891E0
4.180960340E-1,1.628808975E0,-3.239299059E0,-4.566594124E0,5.830939801E0
4.230184960E-1,1.571457028E0,-3.524300098E0,-4.793231964E0,6.153473900E0
4.279407380E-1,1.499176025E0,-3.815279961E0,-5.048789978E0,6.503396818E0
4.328628920E-1,1.492745042E0,-4.186072826E0,-5.361585140E0,6.964056913E0
4.377852650E-1,1.453364968E0,-4.607818127E0,-5.709430218E0,7.479428523E0
4.427074980E-1,1.435969949E0,-5.020293236E0,-6.208821774E0,8.112633462E0
4.476299760E-1,1.350927949E0,-5.410103798E0,-6.758192062E0,8.761700142E0
4.525523610E-1,1.214776993E0,-5.825829983E0,-7.325242043E0,9.437963187E0
4.574745940E-1,1.108914971E0,-6.218079090E0,-7.930243969E0,1.013819360E1
4.623970530E-1,9.929509759E-1,-6.635677814E0,-8.583909035E0,1.089502942E1
4.673194400E-1,8.048170209E-1,-6.993449211E0,-9.251317978E0,1.162509985E1
4.722418990E-1,6.186029911E-1,-7.304218769E0,-9.926106453E0,1.233944370E1
4.771641470E-1,4.363059998E-1,-7.485032082E0,-1.058727455E1,1.297329760E1
4.820866070E-1,2.410829961E-1,-7.569880009E0,-1.110618782E1,1.344279035E1
4.870089930E-1,-2.335000085E-3,-7.590157986E0,-1.143827534E1,1.372751421E1
4.919311320E-1,-1.250649989E-1,-7.634545803E0,-1.150815582E1,1.381085013E1
4.968533630E-1,-9.952399880E-2,-7.798098087E0,-1.136760902E1,1.378560023E1
5.017758220E-1,-1.065600011E-2,-7.973960876E0,-1.095615482E1,1.355070087E1
5.066982070E-1,1.551299989E-1,-8.212946892E0,-1.035973740E1,1.322122237E1
5.116204450E-1,3.829450011E-1,-8.467473984E0,-9.626304626E0,1.282616479E1
5.165428270E-1,5.839530230E-1,-8.716311455E0,-8.842451096E0,1.242996492E1
5.214652890E-1,7.077869773E-1,-8.995762825E0,-8.047190666E0,1.209057438E1
5.263875220E-1,8.071159720E-1,-9.215419769E0,-7.248698235E0,1.175240502E1
5.313099040E-1,9.008520246E-1,-9.424132347E0,-6.498097897E0,1.148264260E1
5.362323660E-1,1.012617946E0,-9.596709251E0,-5.734117985E0,1.122507606E1
5.411545990E-1,1.185032964E0,-9.701007843E0,-4.974482059E0,1.096628141E1
5.460770580E-1,1.453158975E0,-9.620944023E0,-4.207958221E0,1.060099747E1
5.509994450E-1,1.325273037E0,-9.697956085E0,-3.543003082E0,1.040959037E1
5.559216660E-1,9.350289702E-1,-9.786016464E0,-2.918500900E0,1.025465967E1
5.608441250E-1,6.797400117E-1,-9.804608345E0,-2.305058002E0,1.009483450E1
5.657665120E-1,6.117169857E-1,-9.718512535E0,-1.697747946E0,9.884636142E0
5.706887480E-1,7.542189956E-1,-9.609553337E0,-9.628750086E-1,9.687078503E0
5.756109020E-1,8.883690238E-1,-9.504375458E0,-1.060890034E-1,9.546392368E0
5.805333610E-1,8.907729983E-1,-9.319778442E0,8.592540026E-1,9.401599023E0
5.854558080E-1,7.764160037E-1,-9.063692093E0,1.816678047E0,9.276510944E0
5.903779630E-1,5.022540092E-1,-8.799283981E0,2.621352911E0,9.195169860E0
5.953004230E-1,3.456580043E-1,-8.446617126E0,3.265255928E0,9.062379192E0
6.002229290E-1,7.342720032E-1,-7.855882168E0,3.758522987E0,8.739595818E0
6.051453900E-1,1.109030962E0,-7.154038906E0,4.155754089E0,8.347485513E0
6.100676230E-1,1.224671006E0,-6.628658772E0,4.535839081E0,8.124824450E0
6.149899910E-1,1.015653968E0,-6.223124981E0,4.915616035E0,7.995130926E0
6.199122230E-1,7.229359746E-1,-5.829161167E0,5.270683765E0,7.891885940E0
6.248346060E-1,5.011749864E-1,-5.403059959E0,5.530920029E0,7.748245586E0
6.297568390E-1,4.283570051E-1,-5.118725777E0,5.780111790E0,7.732692649E0
6.346792070E-1,6.877989769E-1,-4.747594833E0,5.999126911E0,7.681292068E0
6.396016690E-1,1.180418968E0,-4.368721962E0,6.278516769E0,7.739437534E0
6.445239260E-1,1.661219954E0,-4.034624100E0,6.534275055E0,7.857136492E0
6.494463080E-1,2.840579987E0,-3.414321899E0,6.734092236E0,8.066875909E0
6.543685410E-1,3.667476892E0,-3.181401968E0,7.029990196E0,8.543562922E0
6.592912020E-1,3.447443008E0,-3.161545038E0,7.246034145E0,8.624687888E0
6.642134350E-1,3.065269947E0,-3.072710991E0,7.286409855E0,8.481108492E0
6.691358180E-1,3.048417091E0,-2.762557983E0,7.045290947E0,8.158473993E0
6.740580510E-1,3.208355904E0,-2.250333071E0,6.675556183E0,7.740839546E0
6.789805100E-1,3.802254915E0,-1.664598942E0,6.424650192E0,7.648801355E0
6.839026370E-1,4.644966125E0,-1.149899960E0,6.220625877E0,7.848195113E0
6.888250200E-1,5.365036964E0,-7.279360294E-1,5.998892784E0,8.080855594E0
6.937472520E-1,5.906763077E0,-4.876570106E-1,5.655537128E0,8.192237766E0
6.986697120E-1,6.312370777E0,-3.646839857E-1,5.293982983E0,8.246531092E0
7.035921180E-1,6.633421898E0,-2.133290023E-1,4.969322205E0,8.291077042E0
7.085143480E-1,7.218511105E0,3.351199999E-2,4.676507950E0,8.601032044E0
7.134368080E-1,7.808791161E0,6.497699767E-2,4.524341106E0,9.025026529E0
7.183591900E-1,8.451783180E0,-1.262599975E-1,4.368505955E0,9.514852852E0
7.232814200E-1,9.178281784E0,-4.851390123E-1,4.160162926E0,1.008876464E1
7.282038800E-1,9.817420006E0,-1.050109029E0,3.892365932E0,1.061296269E1
7.331262620E-1,1.033947945E1,-1.680456996E0,3.499144077E0,1.104412877E1
7.380487210E-1,1.063756847E1,-2.455933094E0,2.961678982E0,1.131198536E1
7.429709540E-1,1.090605927E1,-3.410972118E0,2.414242029E0,1.167927327E1
7.478930980E-1,1.143052673E1,-4.579682827E0,1.847573042E0,1.245166504E1
7.528155570E-1,1.213578796E1,-6.062727928E0,1.370558023E0,1.363497153E1
7.577379520E-1,1.296642113E1,-7.864595890E0,8.194360137E-1,1.518721241E1
7.626601850E-1,1.391296959E1,-9.888937950E0,2.364359945E-1,1.707096127E1
7.675826580E-1,1.491653728E1,-1.183764839E1,-2.957069874E-1,1.904522110E1
7.725050450E-1,1.593564415E1,-1.348162556E1,-1.005846977E0,2.089762451E1
7.774272760E-1,1.688634491E1,-1.495301056E1,-1.615314960E0,2.261305843E1
7.823496780E-1,1.776364708E1,-1.636739922E1,-2.118618965E0,2.424721553E1
7.872719110E-1,1.865812492E1,-1.763461494E1,-2.534821033E0,2.579787952E1
7.921943710E-1,1.936764908E1,-1.874863243E1,-2.799896002E0,2.710085730E1
7.971168270E-1,2.001249695E1,-1.951203728E1,-2.877672911E0,2.809805392E1
8.020392140E-1,2.051834679E1,-1.967728424E1,-2.637147903E0,2.855087773E1
8.069614450E-1,2.049314308E1,-1.890174484E1,-2.001091003E0,2.795083606E1
8.118836070E-1,1.970100403E1,-1.724749374E1,-1.151721954E0,2.620938885E1
8.168060670E-1,1.841640091E1,-1.506511497E1,-3.143019974E-1,2.379538395E1
8.217284610E-1,1.702329063E1,-1.286861420E1,2.534779906E-1,2.134145980E1
8.266506930E-1,1.548369598E1,-1.102622700E1,6.966069937E-1,1.902124561E1
8.315731530E-1,1.418543053E1,-9.571019173E0,1.013754964E0,1.714230283E1
8.364955400E-1,1.335214233E1,-8.640950203E0,1.297376037E0,1.595709591E1
8.414177700E-1,1.291738892E1,-8.131635666E0,1.387601972E0,1.532670461E1
8.463401490E-1,1.270702553E1,-7.770431042E0,1.382223010E0,1.495856399E1
8.512626110E-1,1.256538486E1,-7.432534218E0,1.362779021E0,1.466249052E1
8.561850720E-1,1.222063446E1,-6.982986927E0,1.422742963E0,1.414673851E1
8.611072860E-1,1.179630089E1,-6.382410049E0,1.463950038E0,1.349188728E1
8.660296690E-1,1.136317062E1,-5.603186131E0,1.569694042E0,1.276641221E1
8.709518860E-1,1.080022240E1,-4.790016174E0,1.638530016E0,1.192785980E1
8.758743460E-1,9.822277069E0,-4.054489136E0,1.699862957E0,1.076129839E1
8.807967320E-1,9.033563614E0,-2.802272081E0,1.688457012E0,9.607751426E0
8.857189730E-1,8.368591309E0,-1.310158014E0,1.790649056E0,8.657728256E0
8.906413560E-1,7.410067081E0,4.442059994E-1,2.062377930E0,7.704532163E0
8.955635890E-1,6.199685097E0,2.303158998E0,2.322968006E0,7.009765833E0
9.004859900E-1,4.972290993E0,4.137323856E0,2.451833010E0,6.917558205E0
9.054085290E-1,3.593483925E0,5.800321102E0,2.689694881E0,7.334255938E0
9.103309150E-1,2.380820990E0,7.308331966E0,2.745301962E0,8.161905879E0
9.152531460E-1,1.319000959E0,8.732625961E0,2.748372078E0,9.249436134E0
9.201755290E-1,3.258669972E-1,1.003204060E1,2.692147017E0,1.039209716E1
9.250977620E-1,-4.483630061E-1,1.105531406E1,2.479034901E0,1.133872182E1
9.300201190E-1,-1.013509035E0,1.180709934E1,2.162038088E0,1.204612818E1
9.349425810E-1,-1.597383976E0,1.224411011E1,1.791337967E0,1.247712946E1
9.398647370E-1,-2.155401945E0,1.279431725E1,1.462447047E0,1.305676310E1
9.447869670E-1,-2.364537001E0,1.314156342E1,1.088534951E0,1.339688891E1
9.497093410E-1,-2.303041935E0,1.320261574E1,6.905879974E-1,1.341976066E1
9.546318030E-1,-2.372056007E0,1.309088612E1,5.624139905E-1,1.331594002E1
9.595540390E-1,-2.765028954E0,1.251942444E1,6.295940280E-1,1.283657906E1
9.644764220E-1,-3.217063904E0,1.184660053E1,6.673920155E-1,1.229377308E1
9.693986550E-1,-3.444269896E0,1.126546288E1,7.087889910E-1,1.180152663E1
9.743211140E-1,-3.617172956E0,1.079229164E1,9.033399820E-1,1.141812253E1
9.792435010E-1,-3.956231117E0,1.039569569E1,1.161263943E0,1.118350515E1
9.841659410E-1,-4.516502857E0,1.011620903E1,1.450641036E0,1.117321989E1
9.890881740E-1,-5.254903793E0,9.860180855E0,1.692018986E0,1.130044727E1
9.940106340E-1,-5.898543835E0,9.438162804E0,1.803158998E0,1.127488886E1
9.989330060E-1,-6.392434120E0,8.945311546E0,1.701406002E0,1.112549302E1
1.003855237E0,-6.824998856E0,8.405765533E0,1.522891045E0,1.093419868E1
1.008777634E0,-7.217247963E0,7.874803066E0,1.242584944E0,1.075384623E1
1.013699867E0,-7.585115910E0,7.422378063E0,8.761529922E-1,1.064863013E1
1.018622134E0,-7.968359947E0,7.013234138E0,4.277339876E-1,1.062370791E1
1.023544367E0,-8.315792084E0,6.662411213E0,-6.237699836E-2,1.065570326E1
1.028466827E0,-8.650404930E0,6.351518154E0,-5.438500047E-1,1.074556007E1
1.033389222E0,-9.004816055E0,5.868256092E0,-9.777299762E-1,1.079254825E1
1.038311453E0,-9.261205673E0,5.471589088E0,-1.408552051E0,1.084860528E1
1.043233913E0,-9.375847816E0,5.212461948E0,-1.754099965E0,1.086982744E1
1.048156379E0,-9.402910233E0,4.854991913E0,-1.932098985E0,1.075726145E1
1.053078766E0,-9.432158470E0,4.645189762E0,-2.005966902E0,1.070361175E1
1.058000997E0,-9.589583397E0,4.637351990E0,-1.985874057E0,1.083553593E1
1.062923413E0,-9.963697433E0,4.607076168E0,-1.855317950E0,1.113295208E1
1.067845646E0,-1.041863346E1,4.599556923E0,-1.658010006E0,1.150881594E1
1.072768038E0,-1.090735054E1,4.592591763E0,-1.523275018E0,1.193241642E1
1.077690270E0,-1.128814697E1,4.602015972E0,-1.422623038E0,1.227292424E1
1.082612668E0,-1.146254539E1,4.536480904E0,-1.257496953E0,1.239156586E1
1.087535129E0,-1.163670540E1,4.321797848E0,-9.768170118E-1,1.245170754E1
1.092457362E0,-1.175563240E1,3.893503904E0,-7.321199775E-1,1.240525153E1
1.097379754E0,-1.183394623E1,3.490726948E0,-5.590130091E-1,1.235070660E1
1.102302215E0,-1.178071880E1,3.235513926E0,-5.105730295E-1,1.222761509E1
1.107224448E0,-1.154308224E1,3.049268961E0,-4.264940023E-1,1.194666003E1
1.112146817E0,-1.117572117E1,2.863449097E0,-2.748050094E-1,1.154000009E1
1.117069278E0,-1.097047806E1,2.712342024E0,-7.534900308E-2,1.130105595E1
1.121991740E0,-1.096782017E1,2.503365040E0,7.583999634E-2,1.125014077E1
1.126913998E0,-1.104786205E1,2.289916992E0,1.470620036E-1,1.128364316E1
1.131836152E0,-1.109551716E1,2.113456011E0,1.803849936E-1,1.129644794E1
1.136758524E0,-1.113222885E1,1.974634051E0,1.100680009E-1,1.130653854E1
1.141680757E0,-1.116273308E1,1.711248994E0,-1.153419986E-1,1.129372776E1
1.146603207E0,-1.117206097E1,1.290956974E0,-3.737869859E-1,1.125261005E1
1.151525593E0,-1.081182098E1,1.346858978E0,-7.021880150E-1,1.091799295E1
1.156447824E0,-1.037160110E1,1.459923983E0,-9.044110179E-1,1.051282297E1
1.161370207E0,-9.937988281E0,1.580960989E0,-1.122133970E0,1.012532633E1
1.166292439E0,-9.483113289E0,1.705121040E0,-1.374994040E0,9.732804530E0
1.171214890E0,-8.995539665E0,1.809633017E0,-1.584965944E0,9.311639091E0
1.176137351E0,-8.621874809E0,1.889129996E0,-1.774315953E0,9.002984753E0
1.181059738E0,-8.303628922E0,1.891409039E0,-1.791339993E0,8.702676622E0
1.185981974E0,-7.852066994E0,1.473170042E0,-1.823503971E0,8.194531883E0
1.190904433E0,-7.087984085E0,9.177209735E-1,-1.800281048E0,7.370396328E0
1.195826820E0,-6.105582237E0,2.764320076E-1,-1.680675983E0,6.338708139E0
1.200749270E0,-4.776597977E0,-4.072070122E-1,-1.564862013E0,5.042866140E0
1.205671502E0,-2.957444906E0,-1.477421999E0,-1.622051954E0,3.682432440E0
1.210593646E0,-3.951739967E-1,-3.302845001E0,-1.832306027E0,3.797669413E0
1.215516029E0,2.744962931E0,-5.854289055E0,-2.154752970E0,6.815459059E0
1.220438490E0,6.633166790E0,-8.994935989E0,-2.328144073E0,1.141613025E1
1.225360857E0,1.121412086E1,-1.246213341E1,-2.102899075E0,1.689625581E1
1.230283317E0,1.534863281E1,-1.581055069E1,-1.300474048E0,2.207363303E1
1.235205497E0,1.814964294E1,-1.840189362E1,1.116909981E-1,2.584669616E1
1.240127956E0,1.889552307E1,-2.010442543E1,1.890048027E0,2.765503563E1
1.245050418E0,1.779778671E1,-2.106321526E1,3.858784914E0,2.784439746E1
1.249972789E0,1.554370689E1,-2.151186180E1,5.308880806E0,2.706568376E1
1.254895020E0,1.472690296E1,-2.202184105E1,6.057991982E0,2.717613698E1
1.259817403E0,1.724651527E1,-2.330639267E1,6.522478104E0,2.971822587E1
1.264739641E0,2.217732620E1,-2.583971786E1,7.686800003E0,3.490861944E1
1.269662023E0,2.715242958E1,-2.769458008E1,8.222848892E0,3.964668261E1
1.274584247E0,2.921897507E1,-2.649917030E1,7.761985779E0,4.020202674E1
1.279506630E0,2.778839111E1,-2.251782227E1,6.492440224E0,3.635104923E1
1.284429091E0,2.474083710E1,-1.802540779E1,5.671154022E0,3.113175765E1
1.289351314E0,2.184490967E1,-1.515830708E1,5.506627083E0,2.715321884E1
1.294273697E0,1.969446564E1,-1.442555046E1,5.220001221E0,2.496431244E1
1.299196158E0,1.825446892E1,-1.494199085E1,4.217020035E0,2.396397263E1
1.304118606E0,1.729922676E1,-1.572995567E1,2.959824085E0,2.356809943E1
1.309040838E0,1.665135765E1,-1.606336975E1,1.864797950E0,2.321157105E1
1.313963221E0,1.597303581E1,-1.586764145E1,8.000149727E-1,2.252909102E1
1.318885683E0,1.527115536E1,-1.527757072E1,-3.333880007E-1,2.160378441E1
1.323807838E0,1.450888920E1,-1.423755836E1,-1.290289998E0,2.036862249E1
1.328730044E0,1.397653484E1,-1.285208511E1,-1.838773966E0,1.907618169E1
1.333652427E0,1.346581268E1,-1.125897217E1,-1.941586018E0,1.765962405E1
1.338574903E0,1.267414665E1,-9.555633545E0,-1.637493968E0,1.595698945E1
1.343497136E0,1.153967667E1,-7.612737179E0,-1.167387009E0,1.387374129E1
1.348419519E0,1.001640511E1,-5.337531090E0,-6.791099906E-1,1.137008354E1
1.353341994E0,8.178005219E0,-2.933907986E0,-1.243610010E-1,8.689249167E0
1.358264227E0,6.013617039E0,-4.986799955E-1,3.966920078E-1,6.047283372E0
1.363186610E0,3.786932945E0,1.961583018E0,8.343279958E-1,4.345661316E0
1.368109038E0,1.718456030E0,4.397099018E0,1.072018981E0,4.841156432E0
1.373031271E0,-1.623480022E-1,6.464141846E0,1.219735026E0,6.580215818E0
1.377953731E0,-2.008109093E0,8.173240662E0,1.484866977E0,8.546297150E0
1.382876136E0,-3.797375917E0,9.616018295E0,1.910253048E0,1.051365486E1
1.387798290E0,-5.305267811E0,1.080873966E1,2.472460985E0,1.229177705E1
1.392720506E0,-6.353058815E0,1.175539398E1,3.046515942E0,1.370517798E1
1.397642965E0,-7.110900879E0,1.233121014E1,3.376112938E0,1.462948370E1
1.402565365E0,-7.547521114E0,1.260561562E1,3.417601109E0,1.508464840E1
1.407487598E0,-7.657389164E0,1.276111984E1,3.222608089E0,1.522717936E1
1.412410057E0,-7.699903965E0,1.255244255E1,2.955142975E0,1.501949417E1
1.417332444E0,-7.872461796E0,1.190884686E1,2.548051119E0,1.450133968E1
1.422254675E0,-7.913414955E0,1.113491535E1,1.926630020E0,1.379566524E1
1.427177114E0,-7.829481125E0,1.041293144E1,1.329861045E0,1.309574153E1
1.432099501E0,-7.737086773E0,9.748453140E0,7.887259722E-1,1.247064309E1
1.437021961E0,-7.776356220E0,9.161702156E0,3.823690116E-1,1.202309064E1
1.441944164E0,-7.917483807E0,8.644173622E0,7.320199907E-2,1.172235667E1
1.446866547E0,-8.090155602E0,8.175265312E0,-2.046409994E-1,1.150336727E1
1.451788766E0,-8.305556297E0,7.684078217E0,-4.592100084E-1,1.132423054E1
1.456711148E0,-8.431620598E0,7.159207821E0,-6.865900159E-1,1.108232324E1
1.461633367E0,-8.422506332E0,6.608415127E0,-9.789059758E-1,1.075025676E1
1.466555750E0,-8.337973595E0,6.106256008E0,-1.280334949E0,1.041380928E1
1.471477959E0,-8.211215019E0,5.684453011E0,-1.504148006E0,1.009948114E1
1.476400418E0,-8.077724457E0,5.372458935E0,-1.603961945E0,9.832885707E0
1.481322805E0,-7.951511860E0,5.192461014E0,-1.639013052E0,9.637144599E0
1.486245050E0,-7.870526791E0,5.101986885E0,-1.572844028E0,9.510483714E0
1.491167432E0,-7.849038124E0,5.089325905E0,-1.429147005E0,9.463144234E0
1.496089971E0,-7.865777016E0,5.223434925E0,-1.169304013E0,9.514304617E0
1.501012357E0,-7.896228790E0,5.403649807E0,-8.499289751E-1,9.605844034E0
1.505934588E0,-7.933635235E0,5.645708084E0,-5.259609818E-1,9.751575399E0
1.510856971E0,-8.042859077E0,5.955628872E0,-2.424390018E-1,1.001078788E1
1.515779198E0,-8.287905693E0,6.186225891E0,-6.389999762E-4,1.034208741E1
1.520701658E0,-8.473195076E0,6.375265121E0,2.585459948E-1,1.060687919E1
1.525623839E0,-8.568715096E0,6.471539021E0,4.782980084E-1,1.074860292E1
1.530546298E0,-8.491340637E0,6.537117958E0,7.423089743E-1,1.074187133E1
1.535468683E0,-8.259322166E0,6.521759987E0,1.027752995E0,1.057383716E1
1.540391145E0,-7.967959881E0,6.498840809E0,1.279876947E0,1.036153471E1
1.545313377E0,-7.754011154E0,6.503220081E0,1.534762979E0,1.023582228E1
1.550235837E0,-7.595139980E0,6.538939953E0,1.807505965E0,1.018385805E1
1.555157993E0,-7.509558201E0,6.632609844E0,2.020837069E0,1.022099605E1
1.560080452E0,-7.502773762E0,6.735696793E0,2.182470083E0,1.031622029E1
1.565002871E0,-7.494010925E0,6.876174927E0,2.309869051E0,1.042964412E1
1.569925104E0,-7.435883999E0,7.007991791E0,2.431593895E0,1.050318850E1
1.574847519E0,-7.434875965E0,7.080072880E0,2.578695059E0,1.058557891E1
1.579769675E0,-7.407317162E0,7.140153885E0,2.705496073E0,1.063813207E1
1.584692058E0,-7.403539181E0,7.207215786E0,2.695426941E0,1.067809338E1
1.589614514E0,-7.354461193E0,7.321080208E0,2.542889118E0,1.068422201E1
1.594536976E0,-7.362786770E0,7.465022087E0,2.367068052E0,1.074896251E1
1.599459132E0,-7.381021023E0,7.650284767E0,2.201047897E0,1.085591729E1
1.604381377E0,-7.323066235E0,7.769029140E0,2.062431097E0,1.087376360E1
1.609303837E0,-7.288705826E0,7.876997948E0,1.908593059E0,1.090023196E1
1.614226222E0,-7.222540855E0,7.914621830E0,1.750450969E0,1.085681416E1
1.619148439E0,-7.133381844E0,7.916262150E0,1.631999969E0,1.078034169E1
1.624070899E0,-6.964197159E0,7.871595860E0,1.510241985E0,1.061804569E1
1.628993361E0,-6.823701859E0,7.825209141E0,1.390243053E0,1.047518882E1
1.633915738E0,-6.891660213E0,7.853822231E0,1.249014974E0,1.052319070E1
1.638837969E0,-7.076714039E0,7.770789146E0,9.895870090E-1,1.055671957E1
1.643760352E0,-7.291738033E0,7.568601131E0,6.470280290E-1,1.052956846E1
1.648682793E0,-7.390944958E0,7.323373795E0,2.691299915E-1,1.040818438E1
1.653604949E0,-7.484429836E0,7.029895782E0,2.962199971E-2,1.026825215E1
1.658527185E0,-7.404489994E0,6.760060787E0,-2.516610026E-1,1.002936823E1
1.663449644E0,-7.234014988E0,6.380354881E0,-5.096629858E-1,9.659174790E0
1.668372106E0,-6.938230038E0,5.799294949E0,-7.445009947E-1,9.073320213E0
1.673294257E0,-6.569291115E0,5.112771034E0,-1.011654973E0,8.385669871E0
1.678216639E0,-6.140921116E0,4.278776169E0,-1.243864059E0,7.587228443E0
1.683138872E0,-5.366771221E0,3.166496038E0,-1.447247028E0,6.397144243E0
1.688061601E0,-3.960695028E0,1.679811001E0,-1.662142992E0,4.612113337E0
1.692983834E0,-2.231153011E0,-1.744749993E-1,-1.924376011E0,2.951560319E0
1.697906217E0,-3.999200091E-2,-2.551840067E0,-2.405553102E0,3.507160221E0
1.702828411E0,2.896070004E0,-5.740238190E0,-2.907182932E0,7.056151114E0
1.707750870E0,6.435848236E0,-9.587448120E0,-3.060581923E0,1.194598115E1
1.712673007E0,9.983562469E0,-1.367044067E1,-2.408884048E0,1.709839730E1
1.717595390E0,1.272225571E1,-1.740285492E1,-6.645429730E-1,2.156749329E1
1.722517865E0,1.431677246E1,-2.060868454E1,2.104703903E0,2.518169237E1
1.727440098E0,1.501582623E1,-2.297504997E1,5.690413952E0,2.803049713E1
1.732362481E0,1.441863537E1,-2.403854752E1,8.748773575E0,2.936477229E1
1.737284718E0,1.354253960E1,-2.351692390E1,9.606262207E0,2.878760779E1
1.742207101E0,1.383180618E1,-2.286180878E1,8.585388184E0,2.806581645E1
1.747129563E0,1.628977203E1,-2.421667671E1,6.685807228E0,2.994167868E1
1.752052034E0,2.035323715E1,-2.759418488E1,4.688794136E0,3.460748607E1
1.756974267E0,2.462254333E1,-3.060290527E1,1.955942035E0,3.932725722E1
1.761896726E0,2.690728951E1,-3.076499367E1,-4.419599846E-2,4.087161628E1
1.766819113E0,2.658483505E1,-2.775305176E1,-2.107872963E0,3.848932924E1
1.771741267E0,2.437088776E1,-2.365351677E1,-3.395740032E0,3.413151148E1
1.776663727E0,2.158268356E1,-2.041495705E1,-3.563801050E0,2.992128638E1
1.781585959E0,1.903359222E1,-1.881265068E1,-3.175335884E0,2.694951236E1
1.786508361E0,1.718411827E1,-1.860492134E1,-3.117763996E0,2.551778735E1
1.791430822E0,1.602786255E1,-1.892876053E1,-3.453826904E0,2.504234960E1
1.796352978E0,1.533221245E1,-1.896697998E1,-3.816859007E0,2.468585589E1
1.801275534E0,1.463720703E1,-1.835245132E1,-3.973809004E0,2.380864249E1
1.806197690E0,1.388973141E1,-1.751622581E1,-4.193614960E0,2.274487221E1
1.811120058E0,1.286090088E1,-1.641949463E1,-4.278528214E0,2.129103988E1
1.816042520E0,1.175325966E1,-1.501870346E1,-3.906829119E0,1.946699463E1
1.820964753E0,1.080771446E1,-1.332790947E1,-3.201457024E0,1.745534846E1
1.825887221E0,1.001359177E1,-1.145460129E1,-2.585788965E0,1.543263475E1
1.830809608E0,8.993198395E0,-9.528119087E0,-1.836910009E0,1.323015151E1
1.835731839E0,7.721313953E0,-7.310431957E0,-8.248149753E-1,1.066496246E1
1.840653987E0,6.233572006E0,-4.760790825E0,1.144409999E-1,7.844465946E0
1.845576447E0,4.569744110E0,-1.996912956E0,1.286072969E0,5.150165655E0
1.850498851E0,3.017478943E0,7.571970224E-1,2.409588099E0,3.935052897E0
1.855421312E0,1.656015992E0,3.294078112E0,3.325841904E0,4.965336236E0
1.860343545E0,2.363329977E-1,5.520984173E0,3.955705881E0,6.795934707E0
1.865266020E0,-1.236974001E0,7.430078983E0,4.358375072E0,8.702391146E0
1.870188175E0,-2.465286970E0,9.035202026E0,4.559556007E0,1.041643252E1
1.875110558E0,-3.325841904E0,1.038077736E1,4.602611065E0,1.183240430E1
1.880033034E0,-4.056941986E0,1.155225086E1,4.540682793E0,1.305875486E1
1.884955495E0,-4.796856880E0,1.255721760E1,4.301366806E0,1.411365672E1
1.889877728E0,-5.407185078E0,1.336212158E1,3.961380959E0,1.494912983E1
1.894800101E0,-5.871259212E0,1.385207558E1,3.563190937E0,1.546117758E1
1.899722334E0,-6.089731216E0,1.396560478E1,3.125565052E0,1.555288077E1
1.904644745E0,-6.089947224E0,1.372513962E1,2.685302019E0,1.525377860E1
1.909566978E0,-5.991388798E0,1.323124599E1,2.223989964E0,1.469383346E1
1.914489370E0,-5.862609863E0,1.260634613E1,1.833531022E0,1.402326614E1
1.919411832E0,-5.608911991E0,1.192136765E1,1.419792056E0,1.325121541E1
1.924334070E0,-5.453064919E0,1.127850342E1,1.080808997E0,1.257412838E1
1.929256452E0,-5.386219025E0,1.065963173E1,7.692750096E-1,1.196791076E1
1.934178914E0,-5.433156967E0,1.016146660E1,3.809950054E-1,1.152908302E1
1.939101131E0,-5.595080853E0,9.732080460E0,9.178200364E-2,1.122616336E1
1.944023590E0,-5.818584919E0,9.383884430E0,-3.528999910E-2,1.104148825E1
1.948945977E0,-6.000329971E0,9.109867096E0,-1.019069999E-1,1.090889652E1
1.953868194E0,-6.211896896E0,8.905314445E0,-1.231160015E-1,1.085851951E1
1.958790653E0,-6.496182919E0,8.691308975E0,-1.353289932E-1,1.085161546E1
1.963712794E0,-6.769351006E0,8.491806030E0,-1.726209968E-1,1.086115467E1
1.968635177E0,-6.955193043E0,8.318478584E0,-2.505860031E-1,1.084594807E1
1.973557405E0,-7.065981865E0,8.156780243E0,-3.063049912E-1,1.079606347E1
1.978479865E0,-7.192953110E0,8.102360725E0,-3.347330093E-1,1.083968957E1
1.983402266E0,-7.369781017E0,8.109701157E0,-2.644239962E-1,1.096133410E1
1.988324725E0,-7.733032227E0,8.212308884E0,-2.559889853E-1,1.128305521E1
1.993246958E0,-8.168216705E0,8.302110672E0,-2.669169903E-1,1.164972319E1
1.998169346E0,-8.508494377E0,8.390372276E0,-2.781539857E-1,1.195283201E1
2.003091578E0,-8.740015984E0,8.385606766E0,-3.137690127E-1,1.211630023E1
2.008014052E0,-8.812745094E0,8.313874245E0,-3.546249866E-1,1.212067407E1
2.012936513E0,-8.875103951E0,8.220622063E0,-4.220440090E-1,1.210471885E1
2.017858900E0,-8.852650642E0,8.067701340E0,-5.495240092E-1,1.198996267E1
2.022781107E0,-8.766723633E0,7.888768196E0,-6.918179989E-1,1.181383592E1
2.027703489E0,-8.672021866E0,7.705686092E0,-9.426800013E-1,1.163916694E1
2.032625636E0,-8.493824005E0,7.523716927E0,-1.257069945E0,1.141628606E1
2.037548096E0,-8.315350533E0,7.350621223E0,-1.484719038E0,1.119736922E1
2.042470314E0,-8.157449722E0,7.168000221E0,-1.666396976E0,1.098640487E1
2.047392696E0,-8.036228180E0,6.990946770E0,-1.778108001E0,1.079888736E1
2.052315158E0,-7.960662842E0,6.793848038E0,-1.769390941E0,1.061410704E1
2.057237377E0,-7.846548080E0,6.608344078E0,-1.611261010E0,1.038434833E1
2.062159759E0,-7.715034008E0,6.425401211E0,-1.416264057E0,1.013969104E1
2.067082221E0,-7.474902153E0,6.242990971E0,-1.071920037E0,9.797862574E0
2.072004682E0,-7.317498207E0,6.138060093E0,-7.175329924E-1,9.577912889E0
2.076926915E0,-7.278872013E0,6.160848141E0,-3.465630114E-1,9.542438552E0
2.081849298E0,-7.390478134E0,6.222477913E0,4.038399830E-2,9.661264374E0
2.086771520E0,-7.536276817E0,6.398301125E0,3.843080103E-1,9.893503838E0
2.091693903E0,-7.642105103E0,6.550168037E0,6.140969992E-1,1.008382799E1
2.096616136E0,-7.666811943E0,6.617930889E0,7.844309807E-1,1.015836338E1
2.101538519E0,-7.735112190E0,6.617903233E0,8.712530136E-1,1.021702920E1
2.106460741E0,-7.768287182E0,6.592026234E0,9.014739990E-1,1.022808638E1
2.111383201E0,-7.738354206E0,6.490340233E0,8.399339914E-1,1.013469937E1
2.116305587E0,-7.658287048E0,6.285668850E0,6.355699897E-1,9.927887117E0
2.121227833E0,-7.562154770E0,6.061745167E0,4.102169871E-1,9.700475102E0
2.126150293E0,-7.501696110E0,5.854598045E0,2.898679972E-1,9.520282887E0
2.131072679E0,-7.420218945E0,5.642282963E0,2.060479969E-1,9.324026061E0
2.135995134E0,-7.338971138E0,5.419600964E0,2.006279975E-1,9.125394433E0
2.140917367E0,-7.289999962E0,5.163525105E0,2.253949940E-1,8.936268452E0
2.145839749E0,-7.280763149E0,4.968635082E0,2.639279962E-1,8.818531885E0
2.150762211E0,-7.233222961E0,4.701889038E0,3.712280095E-1,8.635107710E0
2.155684444E0,-6.908617973E0,4.279044151E0,3.564330041E-1,8.134264911E0
2.160606626E0,-6.495999813E0,3.722733021E0,3.326340020E-1,7.494491317E0
2.165529008E0,-5.837817192E0,2.980492115E0,2.928180099E-1,6.561187789E0
2.170451246E0,-5.058129787E0,1.959514022E0,2.683129907E-1,5.431055515E0
2.175373936E0,-4.214187145E0,6.813979745E-1,2.457090020E-1,4.275985197E0
2.180296169E0,-3.239068985E0,-8.928980231E-1,8.367300034E-2,3.360927839E0
2.185218328E0,-1.989290953E0,-2.976777077E0,-4.657100141E-2,3.580593403E0
2.190140788E0,-1.568319947E-1,-5.657715797E0,-2.178010046E-1,5.664078177E0
2.195063249E0,2.332304001E0,-9.048427582E0,-3.576390147E-1,9.351020764E0
2.199985631E0,5.260656834E0,-1.290392685E1,-3.623709977E-1,1.393976869E1
2.204907861E0,8.611799240E0,-1.702488708E1,-1.282719970E-1,1.907947379E1
2.209830321E0,1.229954910E1,-2.061863708E1,8.695780039E-1,2.402422255E1
2.214752694E0,1.436825848E1,-2.471622086E1,2.568633080E0,2.870429064E1
2.219674848E0,1.505751991E1,-2.827922821E1,4.551255226E0,3.235981425E1
2.224597331E0,1.499958038E1,-3.084468651E1,5.292689800E0,3.470438968E1
2.229519564E0,1.555609894E1,-3.249593353E1,4.944220066E0,3.636513746E1
2.234441970E0,1.821904945E1,-3.331441116E1,4.431212902E0,3.822851556E1
2.239364203E0,2.184814453E1,-3.384132385E1,3.987972021E0,4.047814892E1
2.244286586E0,2.440244293E1,-3.364619827E1,3.454921961E0,4.170710209E1
2.249209066E0,2.542448807E1,-3.203643799E1,2.105604887E0,4.095328466E1
2.254131299E0,2.467823982E1,-2.888246155E1,6.419230103E-1,3.799505456E1
2.259053682E0,2.280132294E1,-2.500877571E1,-4.741999879E-2,3.384289348E1
2.263976157E0,2.004878044E1,-2.151596260E1,1.630849987E-1,2.940946855E1
2.268898619E0,1.685386467E1,-1.910200882E1,7.947149873E-1,2.548668411E1
2.273820852E0,1.403822899E1,-1.765039062E1,1.033722997E0,2.257602147E1
2.278743220E0,1.211497116E1,-1.683479118E1,7.509779930E-1,2.075443780E1
2.283665453E0,1.093806839E1,-1.599100113E1,2.164130062E-1,1.937524946E1
2.288587841E0,1.019676208E1,-1.503217983E1,-2.280340046E-1,1.816569258E1
2.293510074E0,1.000618267E1,-1.419965458E1,-4.114100039E-1,1.737593566E1
2.298432451E0,9.660589218E0,-1.331945801E1,-5.960379839E-1,1.646481725E1
2.303354913E0,9.151720047E0,-1.229088306E1,-5.478640199E-1,1.533362127E1
2.308277145E0,8.703455925E0,-1.113791275E1,-4.463250041E-1,1.414222230E1
2.313199547E0,8.328680038E0,-9.774388313E0,-3.781419992E-1,1.284712300E1
2.318121780E0,7.803518772E0,-8.237901688E0,-2.832149863E-1,1.135068897E1
2.323044239E0,7.101962090E0,-6.609623909E0,-8.133000135E-2,9.702144521E0
2.327966687E0,6.237866879E0,-4.813173771E0,1.022320017E-1,7.879598741E0
2.332889074E0,5.126327038E0,-2.880354881E0,3.157989979E-1,5.888582355E0
2.337811304E0,3.787343979E0,-8.362410069E-1,4.663850069E-1,3.906505908E0
2.342733427E0,2.336173058E0,1.082792997E0,5.762580037E-1,2.638601621E0
2.347655583E0,8.492689729E-1,2.900701046E0,7.209569812E-1,3.107266212E0
2.352577965E0,-5.756019950E-1,4.648237228E0,8.212530017E-1,4.755195420E0
2.357500417E0,-1.900789976E0,6.245648861E0,8.247630000E-1,6.580377363E0
2.362422650E0,-3.332926989E0,7.626984119E0,7.317550182E-1,8.355522394E0
2.367345037E0,-5.141733170E0,8.644610405E0,5.458250046E-1,1.007296550E1
2.372267270E0,-6.564747810E0,9.701520920E0,4.076800048E-1,1.172099078E1
2.377189730E0,-7.337256908E0,1.088491154E1,2.769300044E-1,1.312986399E1
2.382112102E0,-7.761254787E0,1.185890675E1,1.669750065E-1,1.417387123E1
2.387034333E0,-8.056784630E0,1.252286339E1,-4.898300022E-2,1.489081211E1
2.391956793E0,-8.438998222E0,1.288398647E1,-2.462819964E-1,1.540371557E1
2.396879263E0,-8.761737823E0,1.287494183E1,-4.969710112E-1,1.558137211E1
2.401801650E0,-8.904979706E0,1.248850060E1,-8.226609826E-1,1.536027610E1
2.406723881E0,-9.042978287E0,1.162671280E1,-1.170850039E0,1.477588565E1
2.411646021E0,-9.159479141E0,1.059583569E1,-1.554731965E0,1.409201843E1
2.416568480E0,-9.107387543E0,9.575391769E0,-1.940593958E0,1.335659164E1
2.421490875E0,-8.907374382E0,8.558883667E0,-2.158711910E0,1.254016926E1
2.426413107E0,-8.696920395E0,8.098596573E0,-2.326356888E0,1.210931985E1
2.431335567E0,-8.376283646E0,7.672301769E0,-2.512646914E0,1.163356079E1
2.436257727E0,-7.941477776E0,7.007183075E0,-2.819801092E0,1.095987966E1
2.441180186E0,-7.606522083E0,6.213650227E0,-3.048417091E0,1.028403978E1
2.446102648E0,-7.446978092E0,5.351561069E0,-3.036864042E0,9.660187979E0
2.451024795E0,-7.488732815E0,4.465872765E0,-2.730146885E0,9.136675584E0
2.455947254E0,-7.597933769E0,3.811387062E0,-2.331470966E0,8.814251288E0
2.460869716E0,-7.753097057E0,3.440669060E0,-1.893030047E0,8.690930924E0
2.465792093E0,-7.907238960E0,3.341270924E0,-1.615944028E0,8.734975355E0
2.470714552E0,-8.090147972E0,3.477032900E0,-1.524199963E0,8.936634575E0
2.475636708E0,-8.381772041E0,3.806850910E0,-1.549494982E0,9.335263848E0
2.480558910E0,-8.915029526E0,4.216808796E0,-1.662508011E0,1.000115797E1
2.485481292E0,-9.549588203E0,4.560704231E0,-1.847715020E0,1.074284454E1
2.490403831E0,-1.002018070E1,4.761644840E0,-2.049166918E0,1.128168285E1
2.495325997E0,-1.023415947E1,4.813528061E0,-2.140276909E0,1.151038043E1
2.500248379E0,-1.028771687E1,4.670340061E0,-2.214047909E0,1.151308832E1
2.505170612E0,-1.039880466E1,4.255505085E0,-2.392419100E0,1.148773829E1
2.510092995E0,-1.034762859E1,3.804783106E0,-2.606703043E0,1.132893167E1
2.515015456E0,-1.011995411E1,3.341188908E0,-2.815326929E0,1.102284356E1
2.519937918E0,-9.806644440E0,2.974370956E0,-2.917047977E0,1.065487338E1
2.524860160E0,-9.606159210E0,2.699614048E0,-2.953639030E0,1.040625746E1
2.529782542E0,-9.556522369E0,2.474140882E0,-2.896902084E0,1.028788290E1
2.534704775E0,-9.621574402E0,2.319849014E0,-2.771038055E0,1.027789109E1
2.539627139E0,-9.695815086E0,2.002142906E0,-2.574137926E0,1.022954508E1
2.544549600E0,-9.869555473E0,1.650606036E0,-2.127485991E0,1.023028945E1
2.549471833E0,-1.009716225E1,1.999930978E0,-2.754757881E0,1.065556664E1
2.554394288E0,-1.025704765E1,1.882197976E0,-2.638505936E0,1.075692379E1
2.559316443E0,-1.051545620E1,1.832291007E0,-2.639594078E0,1.099543388E1
2.564239183E0,-1.066202641E1,1.817587972E0,-2.826646090E0,1.117910378E1
2.569161416E0,-1.097420120E1,1.830672026E0,-2.792563915E0,1.147095747E1
2.574083875E0,-1.120753860E1,1.792624950E0,-2.578990936E0,1.163931356E1
2.579006276E0,-1.136669159E1,1.756512046E0,-2.242610931E0,1.171820447E1
2.583928736E0,-1.145866776E1,1.809012055E0,-1.854079962E0,1.174781698E1
2.588850968E0,-1.140914440E1,2.000479937E0,-1.566337943E0,1.168862312E1
2.593773419E0,-1.137116814E1,2.244628906E0,-1.466876030E0,1.168304537E1
2.598695805E0,-1.177781200E1,2.191910028E0,-1.479519963E0,1.207105234E1
2.603617959E0,-1.236319733E1,1.837481022E0,-1.620797038E0,1.260364898E1
2.608540414E0,-1.263654327E1,1.480626941E0,-1.641563058E0,1.282845319E1
2.613462647E0,-1.251401520E1,1.207931995E0,-1.403458953E0,1.265027166E1
2.618384986E0,-1.204543209E1,9.678679705E-1,-9.796230197E-1,1.212389640E1
2.623307219E0,-1.142879105E1,6.758610010E-1,-7.655940056E-1,1.147432730E1
2.628229621E0,-1.099599648E1,3.458679914E-1,-7.271400094E-1,1.102543857E1
2.633152082E0,-1.037757301E1,-3.469200060E-2,-9.299799800E-1,1.041921724E1
2.638074315E0,-9.948966980E0,-3.378160000E-1,-1.345914960E0,1.004527504E1
2.642996702E0,-9.915768623E0,-9.004809856E-1,-1.017320991E0,1.000841023E1
2.647919240E0,-9.200290680E0,-1.834781051E0,-6.808549762E-1,9.406132765E0
2.652841627E0,-7.792415142E0,-3.048682928E0,-3.277750015E-1,8.373985777E0
2.657763854E0,-5.925811768E0,-4.442070007E0,7.665099949E-2,7.406288303E0
2.662686236E0,-3.505773067E0,-6.129711151E0,4.447489977E-1,7.075422621E0
2.667608464E0,-1.112419963E0,-8.123089790E0,6.733180285E-1,8.226507344E0
2.672530847E0,1.023749948E0,-1.054925156E1,9.888499975E-1,1.064483897E1
2.677453055E0,2.903052092E0,-1.344303703E1,1.630401969E0,1.384922982E1
2.682375438E0,4.402637005E0,-1.663814354E1,2.569618940E0,1.740155092E1
2.687297924E0,5.850481987E0,-1.978747940E1,3.629158020E0,2.095097297E1
2.692220156E0,7.770702839E0,-2.275255585E1,3.966327906E0,2.436789645E1
2.697142539E0,9.215620995E0,-2.517351151E1,4.374957085E0,2.716198817E1
2.702064776E0,1.128895855E1,-2.750959778E1,7.175072193E0,3.058921732E1
2.706987235E0,1.254464436E1,-2.822418976E1,1.261733723E1,3.336420519E1
2.711909697E0,9.375167847E0,-2.764501762E1,6.421104908E0,2.988931849E1
2.716832083E0,1.157067490E1,-2.815816307E1,3.310261965E0,3.062222231E1
2.721754543E0,1.326647186E1,-2.998542404E1,1.956756949E0,3.284743260E1
2.726676776E0,1.298990440E1,-3.211679840E1,2.299902916E0,3.472054017E1
2.731598930E0,1.266682529E1,-3.324641800E1,2.294179916E0,3.565159231E1
2.736521312E0,1.344341660E1,-3.179082680E1,1.720427036E0,3.455925328E1
2.741443784E0,1.544737053E1,-2.906390762E1,5.200009942E-1,3.291811634E1
2.746366017E0,1.621914673E1,-2.627429390E1,7.038360238E-1,3.088518457E1
2.751288399E0,1.551207447E1,-2.380768967E1,1.476771951E0,2.845367106E1
2.756210866E0,1.453158855E1,-2.215866280E1,1.643041968E0,2.654944425E1
2.761133099E0,1.401721478E1,-2.151858139E1,1.393679976E0,2.571913682E1
2.766055481E0,1.410026264E1,-2.124266243E1,1.139749050E0,2.552189534E1
2.770977714E0,1.457818031E1,-2.057203293E1,1.093649030E0,2.523743149E1
2.775900174E0,1.494365883E1,-1.909844208E1,1.073261023E0,2.427375781E1
2.780822649E0,1.488649940E1,-1.699277115E1,9.892050028E-1,2.261284286E1
2.785745036E0,1.428335953E1,-1.440228081E1,8.888760209E-1,2.030345174E1
2.790667266E0,1.331671047E1,-1.165200424E1,7.475500107E-1,1.771052827E1
2.795589640E0,1.224750137E1,-8.957214355E0,6.860340238E-1,1.518893089E1
2.800511796E0,1.135578537E1,-6.425424099E0,6.278510094E-1,1.306270007E1
2.805434260E0,1.060112762E1,-3.979537010E0,5.153120160E-1,1.133517394E1
2.810356492E0,9.876143456E0,-1.607041001E0,4.792929888E-1,1.001751027E1
2.815278952E0,9.013639450E0,6.662600040E-1,5.284159780E-1,9.053663456E0
2.820201132E0,8.051905632E0,2.950721025E0,6.115869880E-1,8.597323858E0
2.825123591E0,6.964560032E0,5.148334026E0,7.639939785E-1,8.694488282E0
2.830046053E0,5.914020061E0,7.165624142E0,8.490679860E-1,9.329668755E0
2.834968505E0,4.938330173E0,8.942683220E0,8.312230110E-1,1.024937168E1
2.839890892E0,4.097019196E0,1.048659611E1,7.564210296E-1,1.128390167E1
2.844813123E0,3.291785002E0,1.179499054E1,7.375879884E-1,1.226791288E1
2.849735514E0,2.596324921E0,1.284357262E1,3.743669987E-1,1.310871509E1
2.854657747E0,2.011527061E0,1.367861652E1,1.335719973E-1,1.382637453E1
2.859579767E0,1.583309054E0,1.412073326E1,-1.613290012E-1,1.421013731E1
2.864502227E0,1.328346968E0,1.427036667E1,-4.765250087E-1,1.433997722E1
2.869424620E0,1.148422956E0,1.423520470E1,-7.240350246E-1,1.429979562E1
2.874346853E0,9.192720056E-1,1.405603790E1,-9.234989882E-1,1.411630663E1
2.879269352E0,7.032210231E-1,1.384062004E1,-1.030215979E0,1.389671284E1
2.884191738E0,4.738129973E-1,1.357205391E1,-1.016316056E0,1.361829815E1
2.889113969E0,3.096649945E-1,1.328111267E1,-9.514070153E-1,1.331874699E1
2.894036428E0,1.481799930E-1,1.295786285E1,-8.689500093E-1,1.298781125E1
2.898958815E0,3.240299970E-2,1.266677284E1,-7.716860175E-1,1.269029879E1
2.903881275E0,-1.141339988E-1,1.252514076E1,-6.010590196E-1,1.254007375E1
2.908803507E0,-3.103959858E-1,1.246829700E1,-3.890019953E-1,1.247822497E1
2.913725890E0,-5.323429704E-1,1.241471481E1,-1.764139980E-1,1.242737522E1
2.918648352E0,-8.349850178E-1,1.225885201E1,3.658999922E-3,1.228725624E1
2.923570492E0,-1.321571946E0,1.201223564E1,1.892520040E-1,1.208619766E1
2.928492723E0,-1.877441049E0,1.173665333E1,3.397589922E-1,1.189072127E1
2.933415183E0,-2.443062067E0,1.142425728E1,3.329640031E-1,1.168730387E1
2.938337553E0,-3.013570070E0,1.112025642E1,3.053970039E-1,1.152540563E1
2.943259786E0,-3.488195896E0,1.077656555E1,3.088699877E-1,1.133125220E1
2.948182169E0,-3.928716898E0,1.037644005E1,3.449150026E-1,1.110064372E1
2.953104654E0,-4.415579796E0,9.949047089E0,4.174360037E-1,1.089289382E1
2.958027116E0,-4.914288044E0,9.490105629E0,5.085179806E-1,1.069910848E1
2.962949267E0,-5.423675060E0,9.021903992E0,5.673540235E-1,1.054195871E1
2.967871726E0,-5.918825150E0,8.649836540E0,6.287660003E-1,1.049988143E1
2.972793959E0,-6.416235924E0,8.320158005E0,6.537050009E-1,1.052712890E1
2.977716409E0,-6.742924213E0,8.038111687E0,7.139649987E-1,1.051608351E1
2.982638795E0,-6.962895870E0,7.753939152E0,6.735569835E-1,1.044313987E1
2.987561007E0,-7.166151047E0,7.449382782E0,5.523719788E-1,1.035143176E1
2.992483390E0,-7.227000237E0,7.080132961E0,4.083150029E-1,1.012544006E1
2.997405623E0,-7.179894924E0,6.640665054E0,2.570149899E-1,9.783423746E0
3.002328005E0,-7.095205784E0,6.168216228E0,1.237239987E-1,9.402347802E0
3.007250238E0,-7.036129951E0,5.769755840E0,2.064899914E-2,9.099320498E0
3.012172697E0,-7.035416126E0,5.453384876E0,-7.152599841E-2,8.901775253E0
3.017095084E0,-7.095129967E0,5.269831181E0,-1.098999977E-1,8.838782039E0
3.022017320E0,-7.212832928E0,5.216834068E0,-9.254100174E-2,8.902184023E0
3.026939779E0,-7.362395763E0,5.258310795E0,-5.107500032E-2,9.047503106E0
3.031862241E0,-7.568099022E0,5.334115028E0,6.852400303E-2,9.259244110E0
3.036784618E0,-7.832865238E0,5.491606236E0,2.461059988E-1,9.569330439E0
3.041706848E0,-8.064130783E0,5.734702110E0,4.448989928E-1,9.905299021E0
3.046629231E0,-8.251012802E0,5.911335945E0,6.282939911E-1,1.016945713E1
3.051551435E0,-8.365429878E0,6.066235065E0,7.624949813E-1,1.036151647E1
3.056473817E0,-8.446353912E0,6.263305187E0,9.281349778E-1,1.055610349E1
3.061396418E0,-8.400732040E0,6.396903038E0,1.102671981E0,1.061642844E1
3.066318651E0,-8.288372993E0,6.421861172E0,1.310557008E0,1.056669236E1
3.071241033E0,-8.085435867E0,6.359951019E0,1.552170992E0,1.040348427E1
3.076163275E0,-7.853979111E0,6.235669136E0,1.708822012E0,1.017293616E1
3.081085658E0,-7.633385181E0,6.036344051E0,1.621950030E0,9.865938411E0
3.086008119E0,-7.425255775E0,5.833012104E0,1.452460051E0,9.553433610E0
3.090930572E0,-7.142178059E0,5.597999096E0,1.288651943E0,9.165638283E0
3.095852805E0,-6.793159962E0,5.299457073E0,1.116685033E0,8.687822109E0
3.100775187E0,-6.454350948E0,4.976097107E0,9.915419817E-1,8.209953964E0
3.105697629E0,-6.229752064E0,4.652108192E0,8.554350138E-1,7.822000414E0
3.110619862E0,-6.034462929E0,4.359892845E0,7.361130118E-1,7.480993973E0
3.115541997E0,-5.982901096E0,3.974499941E0,6.551409960E-1,7.212556068E0
3.120464457E0,-5.855935097E0,3.463718891E0,6.412339807E-1,6.833776806E0
3.125386942E0,-5.503294945E0,2.773586988E0,7.164040208E-1,6.204214274E0
3.130309328E0,-4.916744232E0,1.808472991E0,7.352669835E-1,5.290138556E0
3.135231482E0,-4.123342991E0,6.123030186E-1,5.916489959E-1,4.210335015E0
3.140153961E0,-3.132534981E0,-9.466950297E-1,2.826679945E-1,3.284647330E0
3.145076422E0,-2.034960985E0,-2.808357954E0,-2.192919999E-1,3.475058214E0
3.149998578E0,-7.564049959E-1,-4.998963833E0,-7.806720138E-1,5.115783099E0
3.154921029E0,8.262969851E-1,-7.473032951E0,-1.185462952E0,7.611459164E0
3.159843261E0,2.554280043E0,-1.028043365E1,-1.368548036E0,1.068103864E1
3.164765644E0,4.122207165E0,-1.328078747E1,-1.304342031E0,1.396686134E1
3.169688091E0,5.444211960E0,-1.642109489E1,-9.451500177E-1,1.732585092E1
3.174610323E0,6.908325195E0,-1.932832909E1,-1.239669994E-1,2.052619376E1
3.179532701E0,8.072348595E0,-2.231542015E1,1.098178983E0,2.375598420E1
3.184454934E0,8.777102470E0,-2.554178238E1,2.351939917E0,2.710999440E1
3.189377321E0,9.341384888E0,-2.833068275E1,2.821991920E0,2.996419022E1
3.194299554E0,1.031929493E1,-3.052855110E1,2.464607954E0,3.231956950E1
3.199222244E0,1.198323727E1,-3.235390472E1,1.829033017E0,3.455023137E1
3.204144184E0,1.365930176E1,-3.369968414E1,1.207260966E0,3.638272550E1
3.209066643E0,1.479145145E1,-3.393599319E1,4.903570116E-1,3.702268386E1
3.213989028E0,1.452914429E1,-3.257860947E1,-3.965609968E-1,3.567378714E1
3.218911504E0,1.291845703E1,-2.984583092E1,-1.036988974E0,3.253821601E1
3.223833737E0,1.107173920E1,-2.699705315E1,-1.453361988E0,2.921534782E1
3.228756197E0,9.356510162E0,-2.492841721E1,-1.502781034E0,2.666886982E1
3.233678554E0,7.694784164E0,-2.391173935E1,-9.662309885E-1,2.513791130E1
3.238600785E0,6.433635235E0,-2.371788788E1,-3.356480002E-1,2.457727665E1
3.243523149E0,5.694892883E0,-2.390026093E1,1.758040041E-1,2.457000579E1
3.248445381E0,5.642817974E0,-2.407504082E1,3.704180121E-1,2.473026879E1
3.253367764E0,5.921055794E0,-2.385880089E1,3.908030093E-1,2.458564639E1
3.258290226E0,6.010324955E0,-2.301200867E1,4.066489935E-1,2.378743182E1
3.263212458E0,5.937314034E0,-2.179793358E1,2.582139969E-1,2.259354511E1
3.268134841E0,5.695028782E0,-2.028606224E1,5.179100111E-2,2.107036678E1
3.273057074E0,5.273519993E0,-1.848404884E1,7.251500338E-2,1.922174116E1
3.277979533E0,4.657575130E0,-1.637831497E1,3.624640107E-1,1.703154683E1
3.282901990E0,4.058796883E0,-1.400848579E1,8.328520060E-1,1.460839310E1
3.287824377E0,3.216700077E0,-1.133323860E1,1.358198047E0,1.185892738E1
3.292746607E0,2.226888895E0,-8.577760696E0,1.841166973E0,9.051348438E0
3.297668990E0,1.265884995E0,-5.766783237E0,2.170284986E0,6.290341060E0
3.302591223E0,2.536740005E-1,-3.002119064E0,2.337311029E0,3.813147286E0
3.307513624E0,-8.183760047E-1,-3.262769878E-1,2.432890892E0,2.587499575E0
3.312436086E0,-2.014276981E0,2.170059919E0,2.502413988E0,3.876667071E0
3.317358324E0,-3.223607063E0,4.376842976E0,2.492625952E0,5.980098751E0
3.322280706E0,-4.377009869E0,6.363320827E0,2.362467051E0,8.076590735E0
3.327202929E0,-5.373470783E0,8.072427750E0,2.136632919E0,9.929928412E0
3.332125312E0,-6.187109947E0,9.446274757E0,1.849897981E0,1.144266397E1
3.337047773E0,-6.768391132E0,1.037654018E1,1.537897944E0,1.248394308E1
3.341970001E0,-7.254418850E0,1.077895832E1,1.317630053E0,1.305942894E1
3.346892461E0,-7.971013069E0,1.213310814E1,8.711929917E-1,1.454332629E1
3.351814847E0,-8.250569344E0,1.325353622E1,3.085319996E-1,1.561484258E1
3.356737302E0,-7.903882980E0,1.388899040E1,-4.092490077E-1,1.598570941E1
3.361659535E0,-7.497611046E0,1.416716766E1,-1.292255044E0,1.608081883E1
3.366581688E0,-7.464303017E0,1.399783325E1,-2.040261984E0,1.599430599E1
3.371504086E0,-7.696108818E0,1.342416286E1,-2.453300953E0,1.566706498E1
3.376426319E0,-7.865459919E0,1.267318821E1,-2.740499020E0,1.516527263E1
3.381348773E0,-7.838513851E0,1.187401009E1,-2.854862928E0,1.451153532E1
3.386271158E0,-7.605597019E0,1.110099030E1,-2.862431049E0,1.375756530E1
3.391193620E0,-7.295319080E0,1.036202621E1,-2.819744110E0,1.298245834E1
3.396115852E0,-6.987995148E0,9.665437698E0,-2.716243982E0,1.223236459E1
3.401038235E0,-6.747255802E0,8.981454849E0,-2.516457081E0,1.151193069E1
3.405960691E0,-6.536508083E0,8.309864998E0,-2.263935089E0,1.081227064E1
3.410883153E0,-6.400492191E0,7.694209099E0,-1.990208983E0,1.020431702E1
3.415805386E0,-6.335712910E0,7.178516865E0,-1.740532994E0,9.731485886E0
3.420727754E0,-6.294110775E0,6.789186954E0,-1.424041033E0,9.366791490E0
3.425649987E0,-6.332779884E0,6.521841049E0,-1.065096974E0,9.152756049E0
3.430572141E0,-6.443175793E0,6.389795780E0,-7.075790167E-1,9.101904882E0
3.435494855E0,-6.553209782E0,6.364439964E0,-3.089509904E-1,9.140355858E0
3.440417088E0,-6.749054909E0,6.426917076E0,1.510680020E-1,9.320827582E0
3.445339504E0,-6.958589077E0,6.510809898E0,5.334720016E-1,9.544485311E0
3.450261737E0,-7.148519993E0,6.636038780E0,8.549129963E-1,9.791283114E0
3.455184119E0,-7.212958813E0,6.666756153E0,1.117030978E0,9.885351316E0
3.460106357E0,-7.211844921E0,6.659772873E0,1.339066982E0,9.907390285E0
3.465028817E0,-7.136919975E0,6.487692833E0,1.626656055E0,9.781195988E0
3.469951278E0,-7.042075157E0,6.468807220E0,1.659796000E0,9.705215718E0
3.474873665E0,-6.909317017E0,6.499639034E0,1.242977023E0,9.567076936E0
3.479795896E0,-6.672267914E0,6.338528156E0,9.888430238E-1,9.256020140E0
3.484718278E0,-6.398174763E0,6.209681034E0,5.726019740E-1,8.934464274E0
3.489640487E0,-6.354331970E0,6.062785149E0,2.140499949E-1,8.785255599E0
3.494562870E0,-6.506462097E0,5.914268970E0,1.692689955E-1,8.794389033E0
3.499485097E0,-6.557126045E0,5.742194176E0,3.637959957E-1,8.723591202E0
3.504407480E0,-6.412611961E0,5.675157070E0,6.328120232E-1,8.586585526E0
3.509329933E0,-6.104232788E0,5.652070999E0,8.426030278E-1,8.361671147E0
3.514252165E0,-5.846021175E0,5.709523201E0,9.078350067E-1,8.221847917E0
3.519174557E0,-5.751771927E0,5.881702900E0,9.288740158E-1,8.278895835E0
3.524096790E0,-5.923810959E0,6.052288055E0,9.685890079E-1,8.524077173E0
3.529019172E0,-6.195768833E0,6.277401924E0,1.093139052E0,8.887535054E0
3.533941649E0,-6.439784050E0,6.519934177E0,1.260743022E0,9.250396384E0
3.538864110E0,-6.560873985E0,6.731204987E0,1.393033981E0,9.502354008E0
3.543786343E0,-6.579401970E0,6.895806789E0,1.528087020E0,9.652757715E0
3.548708793E0,-6.593605995E0,7.032595158E0,1.626716971E0,9.776463715E0
3.553631179E0,-6.596844196E0,7.133360863E0,1.640977025E0,9.853730063E0
3.558553333E0,-6.603197098E0,7.181693077E0,1.649070024E0,9.894359975E0
3.563475545E0,-6.611868858E0,7.096006870E0,1.556954026E0,9.823147619E0
3.568398005E0,-6.679201126E0,6.958121777E0,1.438575029E0,9.751752891E0
3.573320389E0,-6.745977879E0,6.809702873E0,1.261420965E0,9.668063592E0
3.578242622E0,-6.838769913E0,6.647605896E0,1.053369999E0,9.595260623E0
3.583165005E0,-6.950366974E0,6.449933052E0,8.140980005E-1,9.516931911E0
3.588087432E0,-6.966678143E0,6.154619217E0,5.610070229E-1,9.312822930E0
3.593009665E0,-6.932633877E0,5.784159184E0,3.768430054E-1,9.036587884E0
3.597932048E0,-6.888701916E0,5.344707966E0,2.006620020E-1,8.721260377E0
3.602854514E0,-6.764966965E0,4.798758030E0,7.403600216E-2,8.294476354E0
3.607776976E0,-6.427546024E0,4.090722084E0,-1.057180017E-1,7.619614909E0
3.612699208E0,-5.923946857E0,3.141634941E0,-2.567520142E-1,6.710360502E0
3.617621581E0,-5.479815960E0,2.009825945E0,-4.376760125E-1,5.853148176E0
3.622543737E0,-4.986102104E0,5.336369872E-1,-7.207049727E-1,5.066102870E0
3.627466196E0,-4.347596169E0,-1.250506997E0,-1.091742992E0,4.653736451E0
3.632388429E0,-3.374845982E0,-3.460046053E0,-1.288172007E0,5.002088684E0
3.637310817E0,-2.109574080E0,-6.082987785E0,-1.290142059E0,6.566392444E0
3.642233050E0,-7.457119823E-1,-9.033176422E0,-1.005226970E0,9.119476076E0
3.647155518E0,6.283760071E-1,-1.219757080E1,-4.877780080E-1,1.222348221E1
3.652077905E0,1.845389009E0,-1.547494602E1,3.609089851E-1,1.558876744E1
3.657000136E0,3.075262070E0,-1.887263489E1,1.392969012E0,1.917221811E1
3.661922605E0,4.430194855E0,-2.212800980E1,2.491100073E0,2.270420718E1
3.666845067E0,5.926702023E0,-2.439410210E1,3.345566034E0,2.532569498E1
3.671767453E0,7.273371220E0,-2.488653564E1,3.481849909E0,2.616036819E1
3.676689698E0,8.352401733E0,-2.472459602E1,2.647988081E0,2.623128102E1
3.681612158E0,9.437559128E0,-2.564627838E1,1.264588952E0,2.735686938E1
3.686534314E0,1.040738773E1,-2.807369614E1,-1.928050071E-1,2.994133110E1
3.691456730E0,1.116312218E1,-3.089470673E1,-1.330574989E0,3.287656658E1
3.696378963E0,1.196474648E1,-3.314432907E1,-2.128763914E0,3.530203030E1
3.701301422E0,1.255527401E1,-3.413031387E1,-2.459785938E0,3.644946882E1
3.706223889E0,1.274653435E1,-3.391904068E1,-2.820966005E0,3.634464620E1
3.711146276E0,1.188637161E1,-3.238249969E1,-2.749947071E0,3.460454198E1
3.716068458E0,1.030711365E1,-3.013289833E1,-2.568386078E0,3.195034836E1
3.720990917E0,8.189483643E0,-2.793444252E1,-2.313709021E0,2.920195149E1
3.725913150E0,5.964581013E0,-2.627268600E1,-1.877792954E0,2.700659851E1
3.730835629E0,4.412047863E0,-2.535420418E1,-1.748705029E0,2.579456930E1
3.735758016E0,3.765914917E0,-2.479794121E1,-1.799404979E0,2.514672666E1
3.740680247E0,3.763819933E0,-2.418393326E1,-1.916344047E0,2.454997643E1
3.745602720E0,4.117920876E0,-2.353495026E1,-2.061429977E0,2.398125621E1
3.750525107E0,4.410390854E0,-2.265120506E1,-2.273291111E0,2.318828348E1
3.755447577E0,4.377624035E0,-2.158407021E1,-2.388555050E0,2.215267194E1
3.760369732E0,4.222695827E0,-2.026790810E1,-2.355456114E0,2.083668477E1
3.765292206E0,4.012024879E0,-1.874036598E1,-2.194331884E0,1.929022429E1
3.770214362E0,3.697014093E0,-1.687174606E1,-1.981670022E0,1.738536006E1
3.775136821E0,3.188160896E0,-1.470760155E1,-1.775810957E0,1.515359422E1
3.780059059E0,2.553514004E0,-1.239974022E1,-1.570623040E0,1.275699212E1
3.784981519E0,1.728903055E0,-1.000997353E1,-1.331498981E0,1.024507517E1
3.789903943E0,7.668210268E-1,-7.443262100E0,-9.903540015E-1,7.547911382E0
3.794826174E0,-3.022420108E-1,-4.835140228E0,-7.229509950E-1,4.898223086E0
3.799748557E0,-1.405246019E0,-2.252417088E0,-5.096970201E-1,2.703310963E0
3.804671018E0,-2.512516975E0,2.402140051E-1,-2.228060067E-1,2.533789028E0
3.809593251E0,-3.541846037E0,2.558801889E0,1.618199944E-1,4.372450820E0
3.814515644E0,-4.516409874E0,4.605083942E0,4.424319863E-1,6.465330798E0
3.819437876E0,-5.411440849E0,6.257124901E0,5.756189823E-1,8.292565423E0
3.824360254E0,-6.122248173E0,7.121479988E0,6.951270103E-1,9.417037829E0
3.829282716E0,-7.066007137E0,8.737073898E0,5.999810100E-1,1.125277274E1
3.834204872E0,-7.981420040E0,1.072731209E1,1.770009995E-1,1.337197143E1
3.839127331E0,-8.256777763E0,1.227667809E1,-4.465439916E-1,1.480170954E1
3.844049564E0,-8.380990982E0,1.339379501E1,-1.307273984E0,1.585382351E1
3.848971941E0,-8.590424538E0,1.403361702E1,-2.083735943E0,1.658552851E1
3.853894403E0,-8.775214195E0,1.429116821E1,-2.653697968E0,1.697892770E1
3.858816865E0,-9.085941315E0,1.414744568E1,-2.940732956E0,1.706904974E1
3.863739087E0,-9.512767792E0,1.356906509E1,-2.741499901E0,1.679666932E1
3.868661470E0,-9.799797058E0,1.252221775E1,-2.471605062E0,1.609194803E1
3.873583703E0,-9.825288773E0,1.120513630E1,-2.219494104E0,1.506710102E1
3.878506052E0,-9.647047043E0,9.971408844E0,-2.003772020E0,1.401818866E1
3.883428285E0,-9.400999069E0,8.833129883E0,-1.707419991E0,1.301223463E1
3.888350711E0,-9.148933411E0,7.883633137E0,-1.402398944E0,1.215818148E1
3.893273097E0,-8.893110275E0,7.041369915E0,-1.173975945E0,1.140379411E1
3.898195328E0,-8.655309677E0,6.287560940E0,-1.111439943E0,1.075560816E1
3.903117711E0,-8.421122551E0,5.593400955E0,-1.147825956E0,1.017442596E1
3.908040172E0,-8.247984886E0,4.980667114E0,-1.167199969E0,9.705599175E0
3.912962381E0,-8.099454880E0,4.430562973E0,-1.133157969E0,9.301349611E0
3.917884764E0,-7.965034962E0,4.019314766E0,-1.046872973E0,8.982906888E0
3.922807206E0,-7.834163189E0,3.756516933E0,-9.073470235E-1,8.735491455E0
3.927729439E0,-7.708579063E0,3.649818897E0,-7.613859773E-1,8.562889569E0
3.932651899E0,-7.647611141E0,3.708074093E0,-6.089429855E-1,8.520949548E0
3.937574256E0,-7.618403912E0,3.808365107E0,-5.244640112E-1,8.533392376E0
3.942496410E0,-7.695919991E0,3.927511930E0,-4.762920141E-1,8.653287731E0
3.947418617E0,-7.715079784E0,4.060541153E0,-4.026339948E-1,8.727689538E0
3.952341076E0,-7.641264915E0,3.947093010E0,-2.727499902E-1,8.604816401E0
3.957263451E0,-7.661387920E0,4.052862167E0,-3.095220029E-1,8.672851923E0
3.962185684E0,-7.666022778E0,4.270290852E0,-7.235649824E-1,8.804932451E0
3.967108066E0,-7.511488914E0,4.306507111E0,-7.431880236E-1,8.690270286E0
3.972030519E0,-7.275979996E0,4.339760780E0,-1.041991949E0,8.535757480E0
3.976952752E0,-7.244687080E0,4.385148048E0,-1.249642015E0,8.560176369E0
3.981875134E0,-7.439887047E0,4.402188778E0,-1.185701013E0,8.725655975E0
3.986797688E0,-7.625971794E0,4.440846920E0,-9.401919842E-1,8.874712848E0
3.991720074E0,-7.552802086E0,4.557725906E0,-6.332229972E-1,8.844131170E0
3.996642305E0,-7.251640797E0,4.647044182E0,-2.709839940E-1,8.617119368E0
4.001564669E0,-6.895302773E0,4.713294029E0,3.423300013E-2,8.352335771E0
4.006486902E0,-6.627338886E0,4.755929947E0,2.578110099E-1,8.161308528E0
4.011409274E0,-6.517492771E0,4.850774765E0,4.551320076E-1,8.137252177E0
4.016331507E0,-6.532732010E0,4.938094139E0,7.415350080E-1,8.222605147E0
4.021253967E0,-6.684193134E0,5.078475952E0,1.114038944E0,8.468201617E0
4.026176372E0,-6.834586143E0,5.194682121E0,1.441014051E0,8.704757986E0
4.031098603E0,-6.915445805E0,5.273747921E0,1.623373985E0,8.847098446E0
4.036020986E0,-7.024400234E0,5.308528900E0,1.705611944E0,8.968377213E0
4.040943452E0,-7.139536858E0,5.313036919E0,1.705719948E0,9.061502545E0
4.045865685E0,-7.246318817E0,5.322905064E0,1.692235947E0,9.149104722E0
4.050788145E0,-7.336943150E0,5.269194126E0,1.619526982E0,9.177037058E0
4.055710526E0,-7.391282082E0,5.087104797E0,1.537142992E0,9.103433122E0
4.060632757E0,-7.420839787E0,4.884953976E0,1.415565014E0,8.996413885E0
4.065555217E0,-7.432284832E0,4.664352894E0,1.322944999E0,8.873850867E0
4.070477377E0,-7.432123184E0,4.408310890E0,1.251083970E0,8.731258273E0
4.075399837E0,-7.395919800E0,4.140775204E0,1.233291030E0,8.565433774E0
4.080322313E0,-7.354469776E0,3.861351967E0,1.250769019E0,8.400159989E0
4.085244469E0,-7.319426060E0,3.569520950E0,1.292551041E0,8.245372390E0
4.090166880E0,-7.321569920E0,3.266506910E0,1.309239984E0,8.123396015E0
4.095089113E0,-7.307054043E0,2.909826994E0,1.277140021E0,7.968137709E0
4.100011803E0,-7.200187206E0,2.449317932E0,1.117086053E0,7.686984805E0
4.104934022E0,-6.987032890E0,1.852735996E0,9.188159704E-1,7.286664674E0
4.109856176E0,-6.628052235E0,1.000283957E0,7.232949734E-1,6.742017505E0
4.114778635E0,-6.117860794E0,-1.244489998E-1,5.568259954E-1,6.144409120E0
4.119701087E0,-5.460265160E0,-1.460854053E0,3.593040109E-1,5.663716938E0
4.124623473E0,-4.753791809E0,-3.046241999E0,7.427000254E-2,5.646560273E0
4.129545704E0,-3.950942993E0,-4.936469078E0,-6.000100076E-2,6.323154087E0
4.134467873E0,-2.884509087E0,-7.152178764E0,-1.691910028E-1,7.713797984E0
4.139390333E0,-1.453925967E0,-9.933109283E0,-2.234829962E-1,1.004143941E1
4.144312712E0,2.234759927E-1,-1.313550663E1,-8.914399892E-2,1.313770994E1
4.149234945E0,1.705155969E0,-1.681286049E1,4.213089943E-1,1.690435849E1
4.154157352E0,3.120321035E0,-2.102954292E1,1.375476956E0,2.130422530E1
4.159079813E0,4.499584198E0,-2.548967552E1,2.688028097E0,2.602297660E1
4.164002046E0,5.713466167E0,-2.901585197E1,4.030976772E0,2.984647609E1
4.168924429E0,6.632147789E0,-3.080408478E1,4.650353909E0,3.185126080E1
4.173846661E0,7.816757202E0,-3.030459213E1,4.181824207E0,3.157463620E1
4.178769352E0,9.049161911E0,-3.013020706E1,3.392302036E0,3.164213049E1
4.183691593E0,9.658629417E0,-3.139231491E1,2.545727968E0,3.294309167E1
4.188613976E0,9.825632095E0,-3.331928635E1,1.017014027E0,3.475272948E1
4.193536438E0,1.027070522E1,-3.490212631E1,-6.753780246E-1,3.638821159E1
4.198458579E0,1.078783607E1,-3.543262863E1,-2.148117065E0,3.710071409E1
4.203380809E0,1.078812695E1,-3.454682922E1,-3.009015083E0,3.631695560E1
4.208303192E0,9.878908157E0,-3.274083328E1,-3.504842043E0,3.437788400E1
4.213225425E0,8.282407761E0,-3.059593773E1,-3.508603096E0,3.189075069E1
4.218147869E0,6.564799786E0,-2.877961731E1,-3.382693052E0,2.971204438E1
4.223070256E0,4.870179176E0,-2.757307816E1,-3.210167885E0,2.818330112E1
4.227992487E0,3.770888090E0,-2.711883354E1,-3.146353006E0,2.755993953E1
4.232914941E0,3.411127090E0,-2.714819717E1,-3.070311069E0,2.753338352E1
4.237837328E0,3.507386923E0,-2.696851540E1,-2.676304102E0,2.732700476E1
4.242759787E0,3.865782022E0,-2.622934341E1,-2.066816092E0,2.659312797E1
4.247682030E0,4.154388905E0,-2.488737869E1,-1.391746998E0,2.527009151E1
4.252604413E0,3.981801033E0,-2.322213745E1,-7.603859901E-1,2.357330257E1
4.257526874E0,3.624577999E0,-2.130758095E1,-5.181499943E-2,2.161372842E1
4.262449016E0,3.201119900E0,-1.919874763E1,7.313529849E-1,1.947752439E1
4.267371247E0,2.712409973E0,-1.693884468E1,1.367377996E0,1.720904848E1
4.272293605E0,2.151946068E0,-1.452618217E1,1.918699980E0,1.480953241E1
4.277216066E0,1.520048022E0,-1.205076027E1,2.214838982E0,1.234653315E1
4.282138290E0,7.159510255E-1,-9.558061600E0,2.297892094E0,9.856441320E0
4.287060673E0,-2.680760026E-1,-7.075082779E0,2.308111906E0,7.446881337E0
4.291983134E0,-1.327348948E0,-4.557340145E0,2.272047043E0,5.262452108E0
4.296905367E0,-2.304647923E0,-2.087759018E0,2.160113096E0,3.786321216E0
4.301827750E0,-3.265435934E0,1.811929941E-1,2.031971931E0,3.850300335E0
4.306750211E0,-4.302499771E0,2.267880917E0,1.913544059E0,5.226513082E0
4.311672687E0,-5.339283943E0,4.087790012E0,1.775653958E0,6.954921077E0
4.316594919E0,-6.343554020E0,5.658196926E0,1.543187022E0,8.639287948E0
4.321517302E0,-7.288209915E0,6.947686195E0,1.257848978E0,1.014743964E1
4.326439526E0,-8.093249321E0,7.960959911E0,9.149550200E-1,1.138923658E1
4.331361908E0,-8.698176384E0,8.702484131E0,6.174430251E-1,1.231960788E1
4.336284102E0,-9.165881157E0,9.140045166E0,3.722859919E-1,1.294961003E1
4.341206485E0,-9.391888618E0,9.281539917E0,3.220599890E-1,1.320826551E1
4.346128946E0,-9.426671028E0,8.977649689E0,3.396449983E-1,1.302212269E1
4.351051194E0,-9.480143547E0,8.440395355E0,4.268279970E-1,1.270021959E1
4.355973577E0,-9.668475151E0,8.528671265E0,3.380570114E-1,1.289697359E1
4.360895810E0,-9.451374054E0,8.337285042E0,1.871030033E-1,1.260451510E1
4.365818259E0,-8.993705750E0,7.851634979E0,-1.582760066E-1,1.193984783E1
4.370740721E0,-8.994625092E0,7.294947147E0,-5.722230077E-1,1.159512715E1
4.375663107E0,-9.222972870E0,6.653914928E0,-8.924840093E-1,1.140764393E1
4.380585338E0,-9.475284576E0,6.055952072E0,-9.918320179E-1,1.128890181E1
4.385507798E0,-9.672837257E0,5.412126064E0,-8.786730170E-1,1.111876591E1
4.390430184E0,-9.652642250E0,4.763162136E0,-8.033099771E-1,1.079381873E1
4.395352410E0,-9.506598473E0,4.136621952E0,-7.772709727E-1,1.039669206E1
4.400274793E0,-9.349557877E0,3.578382015E0,-7.458699942E-1,1.003869376E1
4.405197025E0,-9.185913086E0,3.170131922E0,-7.046219707E-1,9.743060492E0
4.410119419E0,-9.036664009E0,2.905107975E0,-6.397899985E-1,9.513689085E0
4.415041881E0,-9.019238472E0,2.704255104E0,-5.260890126E-1,9.430611217E0
4.419964113E0,-9.033765793E0,2.567476034E0,-4.925369918E-1,9.404437797E0
4.424886281E0,-9.039995193E0,2.459507942E0,-4.485490024E-1,9.379333059E0
4.429808741E0,-9.060139656E0,2.420723915E0,-2.672570050E-1,9.381762157E0
4.434731236E0,-9.131415367E0,2.497977972E0,1.970200054E-2,9.466944001E0
4.439653623E0,-9.194603920E0,2.587939024E0,3.852080107E-1,9.559631523E0
4.444576083E0,-9.248600960E0,2.701461077E0,7.894049883E-1,9.667350821E0
4.449498300E0,-9.356434822E0,2.744820118E0,1.210446954E0,9.825583539E0
4.454420683E0,-9.473168373E0,2.774782896E0,1.559859037E0,9.993672967E0
4.459342873E0,-9.536429405E0,2.804354906E0,1.833780050E0,1.010794942E1
4.464265255E0,-9.522765160E0,2.845294952E0,2.074218035E0,1.015288826E1
4.469187488E0,-9.474971771E0,2.852912903E0,2.276257038E0,1.015359780E1
4.474109871E0,-9.381525040E0,2.857023001E0,2.397530079E0,1.009572895E1
4.479032104E0,-9.221680641E0,2.696748018E0,2.512749910E0,9.931050087E0
4.483954596E0,-9.090895653E0,2.701491117E0,2.435158014E0,9.791446910E0
4.488876983E0,-8.953802109E0,2.796365976E0,2.284357071E0,9.654456075E0
4.493799229E0,-8.679396629E0,2.815299034E0,2.146359921E0,9.373616986E0
4.498721688E0,-8.448858261E0,2.766097069E0,1.936658978E0,9.098634343E0
4.503644075E0,-8.420944214E0,2.737728119E0,1.736503959E0,9.023464008E0
4.508566529E0,-8.534000397E0,2.659810066E0,1.654839993E0,9.090778171E0
4.513488762E0,-8.610913277E0,2.571692944E0,1.711215973E0,9.148207046E0
4.518410916E0,-8.548433304E0,2.557744980E0,1.816344976E0,9.105870656E0
4.523333222E0,-8.362949371E0,2.564682961E0,1.862503052E0,8.943457860E0
4.528255683E0,-8.179095268E0,2.627207041E0,1.782650948E0,8.773691392E0
4.533177925E0,-8.193695068E0,2.664491892E0,1.691329956E0,8.780475667E0
4.538100307E0,-8.299082756E0,2.629065990E0,1.614649057E0,8.854030390E0
4.543022769E0,-8.394742966E0,2.623697042E0,1.594159961E0,8.938503321E0
4.547945031E0,-8.473252296E0,2.505142927E0,1.610110044E0,8.981325065E0
4.552867413E0,-8.419363976E0,2.402225971E0,1.660398006E0,8.911414080E0
4.557789646E0,-8.263770103E0,2.249548912E0,1.633295059E0,8.718831308E0
4.562712342E0,-8.106920242E0,2.064919949E0,1.570345998E0,8.511876219E0
4.567634574E0,-7.905529022E0,1.859272003E0,1.438338041E0,8.247611644E0
4.572556957E0,-7.712206841E0,1.624631047E0,1.253358960E0,7.980505565E0
4.577479204E0,-7.565269947E0,1.369053960E0,9.872410297E-1,7.751274925E0
4.582401586E0,-7.380803108E0,1.046314001E0,6.974930167E-1,7.487157272E0
4.587323824E0,-7.175944805E0,7.379890084E-1,5.122359991E-1,7.231956674E0
4.592246207E0,-7.001138210E0,3.944990039E-1,3.420740068E-1,7.020582620E0
4.597168663E0,-6.870872974E0,3.470399976E-2,1.564459950E-1,6.872741458E0
4.602090896E0,-6.799641132E0,-3.184550107E-1,-2.749799937E-2,6.807149863E0
4.607013279E0,-6.622220993E0,-8.194230199E-1,-1.702110022E-1,6.674896011E0
4.611935517E0,-6.329095840E0,-1.465268016E0,-3.640669882E-1,6.506689580E0
4.616857976E0,-5.987222195E0,-2.433212996E0,-7.098249793E-1,6.501631072E0
4.621780363E0,-5.443517208E0,-3.774466991E0,-1.136867046E0,6.720933517E0
4.626702808E0,-4.657462120E0,-5.470932961E0,-1.648834944E0,7.371683494E0
4.631625041E0,-3.633950949E0,-7.493276119E0,-2.139452934E0,8.598374576E0
4.636547501E0,-2.217403889E0,-9.933457375E0,-2.718494892E0,1.053473635E1
4.641469863E0,-4.460709989E-1,-1.280307007E1,-3.332936049E0,1.323729750E1
4.646392017E0,1.613144994E0,-1.611048317E1,-3.951225996E0,1.666619607E1
4.651314477E0,3.958736897E0,-2.000736618E1,-4.429854870E0,2.087079092E1
4.656236709E0,6.295015812E0,-2.477187347E1,-4.730710030E0,2.599331754E1
4.661159121E0,8.899728775E0,-2.944991493E1,-4.138377190E0,3.104237149E1
4.666081354E0,1.004720116E1,-3.412189865E1,-2.552894115E0,3.566184918E1
4.671003813E0,1.067561054E1,-3.683873749E1,-6.417880058E-1,3.835978535E1
4.675926200E0,1.105966473E1,-3.685135651E1,7.260900140E-1,3.848202005E1
4.680848431E0,1.184567070E1,-3.518674850E1,1.251731038E0,3.714827069E1
4.685770808E0,1.236302090E1,-3.424450302E1,6.136850119E-1,3.641300430E1
4.690693270E0,1.214823723E1,-3.480177689E1,-6.126030087E-1,3.686622607E1
4.695615731E0,1.156967354E1,-3.546798706E1,-1.509405017E0,3.733783276E1
4.700537945E0,1.081774426E1,-3.447156906E1,-1.581470966E0,3.616370715E1
4.705460328E0,9.925239563E0,-3.190363312E1,-1.339285970E0,3.343868827E1
4.710382537E0,8.690901756E0,-2.879122353E1,-9.149280190E-1,3.008826048E1
4.715304996E0,6.949447155E0,-2.634089279E1,-5.449169874E-1,2.724764913E1
4.720227214E0,4.793572903E0,-2.500749016E1,-4.417870045E-1,2.546660717E1
4.725149597E0,2.729279041E0,-2.462877274E1,-8.217099905E-1,2.479315667E1
4.730072072E0,1.623621941E0,-2.480642509E1,-1.635674000E0,2.491325558E1
4.734994534E0,1.662065983E0,-2.505751228E1,-2.465220928E0,2.523328554E1
4.739916767E0,2.065429926E0,-2.499003601E1,-3.299257040E0,2.529136211E1
4.744838925E0,2.372715950E0,-2.464988708E1,-3.761483908E0,2.504786369E1
4.749761616E0,2.556978941E0,-2.412991905E1,-3.718555927E0,2.454829511E1
4.754683849E0,2.349108934E0,-2.322666359E1,-3.401613951E0,2.359167632E1
4.759606212E0,1.989613056E0,-2.197442245E1,-3.035974979E0,2.227220120E1
4.764528674E0,1.649337053E0,-2.035767174E1,-2.635065079E0,2.059365629E1
4.769450830E0,1.250051022E0,-1.833946991E1,-2.010689974E0,1.849166456E1
4.774373055E0,5.816389918E-1,-1.602731323E1,-1.415503979E0,1.610020885E1
4.779295438E0,-3.671489954E-1,-1.338575554E1,-7.658740282E-1,1.341267359E1
4.784217671E0,-1.321445942E0,-1.064085007E1,8.093400300E-2,1.072289419E1
4.789140130E0,-2.343671083E0,-7.935708046E0,9.960600138E-1,8.334290125E0
4.794062517E0,-3.448874950E0,-5.225997925E0,1.715934038E0,6.492320260E0
4.798984748E0,-4.487607002E0,-2.670480013E0,2.143122911E0,5.644737011E0
4.803907130E0,-5.411833763E0,-4.011999965E-1,2.179125071E0,5.847862190E0
4.808829664E0,-6.271125793E0,1.556450009E0,1.971397996E0,6.755439690E0
4.813751820E0,-7.086818218E0,3.228794098E0,1.676115990E0,7.966019621E0
4.818674279E0,-7.855147839E0,4.648765087E0,1.257472038E0,9.213880851E0
4.823596755E0,-8.418546677E0,5.848762989E0,7.903559804E-1,1.028127518E1
4.828518911E0,-8.846791267E0,6.806474209E0,2.555930018E-1,1.116508552E1
4.833441370E0,-9.262339592E0,7.657574177E0,-2.964510024E-1,1.202153319E1
4.838363784E0,-9.672663689E0,8.339248657E0,-8.559529781E-1,1.279984947E1
4.843286017E0,-9.919960976E0,8.839108467E0,-1.406031966E0,1.336085290E1
4.848208404E0,-1.000185585E1,9.054321289E0,-1.982110977E0,1.363622449E1
4.853130637E0,-9.992495537E0,9.030793190E0,-2.513833046E0,1.370126086E1
4.858053020E0,-1.001537228E1,8.785817146E0,-2.880259037E0,1.363063303E1
4.862975252E0,-1.006575203E1,8.389041901E0,-3.069037914E0,1.345787434E1
4.867897943E0,-1.008130455E1,7.895504951E0,-3.059180975E0,1.316549612E1
4.872820094E0,-1.003553009E1,7.317521095E0,-2.962711096E0,1.276854088E1
4.877742324E0,-1.005033398E1,6.746047974E0,-2.686146975E0,1.239894197E1
4.882664784E0,-1.009913445E1,6.164322853E0,-2.284871101E0,1.205039538E1
4.887587235E0,-1.024089813E1,5.564562798E0,-1.805753946E0,1.179411298E1
4.892509622E0,-1.028416634E1,5.092027187E0,-1.401908040E0,1.156106242E1
4.897431853E0,-1.027151012E1,4.621246815E0,-1.085674047E0,1.131541119E1
4.902354022E0,-1.019730854E1,4.107800007E0,-9.033790231E-1,1.103064894E1
4.907276712E0,-1.001084232E1,3.565620899E0,-7.629609704E-1,1.065423511E1
4.912198882E0,-9.821733475E0,3.042156935E0,-6.315410137E-1,1.030145676E1
4.917121113E0,-9.546171188E0,2.715178967E0,-5.944399834E-1,9.942582163E0
4.922043505E0,-9.321540833E0,2.507544994E0,-5.954200029E-1,9.671268292E0
4.926965967E0,-9.210716248E0,2.448919058E0,-6.417000294E-1,9.552291729E0
4.931888200E0,-9.076798439E0,2.433351040E0,-6.780430079E-1,9.421741320E0
4.936810659E0,-8.892149925E0,2.516546011E0,-7.146160007E-1,9.268981074E0
4.941733046E0,-8.722195625E0,2.616863966E0,-7.194449902E-1,9.134674304E0
4.946655505E0,-8.574658394E0,2.806354046E0,-7.176510096E-1,9.050713374E0
4.951577747E0,-8.527913094E0,2.993949890E0,-7.052109838E-1,9.065669319E0
4.956500130E0,-8.495117188E0,3.209888935E0,-7.534909844E-1,9.112527183E0
4.961422591E0,-8.472564697E0,3.416698933E0,-9.496859908E-1,9.184774773E0
4.966344762E0,-8.432433128E0,3.567815065E0,-1.137016058E0,9.226485697E0
4.971266993E0,-8.331371307E0,3.678587914E0,-1.212422967E0,9.187694289E0
4.976189366E0,-8.213514328E0,3.776937962E0,-1.237764001E0,9.124644525E0
4.981111827E0,-8.098223686E0,3.850301027E0,-1.261054039E0,9.055180957E0
4.986034289E0,-8.026447296E0,3.972914934E0,-1.278465986E0,9.046678095E0
4.990956435E0,-8.016885757E0,4.080710888E0,-1.311969995E0,9.090870358E0
4.995878894E0,-8.042682648E0,4.195167065E0,-1.323492050E0,9.167104345E0
5.000801127E0,-8.011707306E0,4.305939198E0,-1.289800048E0,9.186520043E0
5.005723596E0,-7.956165791E0,4.427679062E0,-1.111713052E0,9.172830636E0
5.010645983E0,-7.882630825E0,4.521127224E0,-8.862550259E-1,9.130274260E0
5.015568214E0,-7.846245766E0,4.562917233E0,-6.835219860E-1,9.102251842E0
5.020490673E0,-7.859134197E0,4.576807022E0,-4.958400130E-1,9.108183692E0
5.025413055E0,-7.839643002E0,4.589838028E0,-2.825970054E-1,9.088810515E0
5.030335209E0,-7.763763905E0,4.528737068E0,-1.113869995E-1,8.988765013E0
5.035257726E0,-7.629183769E0,4.427533150E0,1.721999981E-2,8.820872480E0
5.040179882E0,-7.529280186E0,4.314898014E0,1.366080046E-1,8.679116702E0
5.045102284E0,-7.474013805E0,4.192345142E0,1.783410013E-1,8.571373616E0
5.050024745E0,-7.459825039E0,3.962373972E0,5.447399989E-2,8.447032883E0
5.054947207E0,-7.379162788E0,3.690032005E0,-1.633030027E-1,8.251972342E0
5.059869426E0,-7.187236786E0,3.421559095E0,-4.261749983E-1,7.971515815E0
5.064791580E0,-6.991003036E0,3.111797094E0,-6.673510075E-1,7.681325535E0
5.069713962E0,-6.781380177E0,2.874289036E0,-8.745779991E-1,7.417111381E0
5.074636538E0,-6.696718216E0,2.645745039E0,-1.007385969E0,7.270545245E0
5.079558694E0,-6.667516232E0,2.443942070E0,-1.091539979E0,7.184711899E0
5.084481153E0,-6.683988094E0,2.240446091E0,-1.139099956E0,7.140927408E0
5.089403545E0,-6.688105106E0,1.970909953E0,-1.191915035E0,7.073605687E0
5.094325776E0,-6.636621952E0,1.571436048E0,-1.277459025E0,6.938736466E0
5.099248158E0,-6.549575806E0,1.033151984E0,-1.451758027E0,6.787631960E0
5.104170391E0,-6.345232964E0,2.531900108E-1,-1.678374052E0,6.568335101E0
5.109092845E0,-6.045606136E0,-7.051720023E-1,-1.946712971E0,6.390329608E0
5.114015232E0,-5.689332008E0,-1.912763000E0,-2.220632076E0,6.399872484E0
5.118937463E0,-5.231653214E0,-3.304900885E0,-2.524636984E0,6.683289392E0
5.123859837E0,-4.563189983E0,-4.909221172E0,-2.925019979E0,7.312926721E0
5.128782298E0,-3.700743914E0,-6.736796856E0,-3.188910961E0,8.321603842E0
5.133704531E0,-2.653851986E0,-8.821468353E0,-3.319638968E0,9.791896504E0
5.138626981E0,-1.503911972E0,-1.113659286E1,-3.412630081E0,1.174442404E1
5.143549368E0,-9.766799957E-2,-1.374167633E1,-3.434006929E0,1.416459004E1
5.148471599E0,1.500383019E0,-1.663347816E1,-3.374039888E0,1.703842394E1
5.153393961E0,2.929120064E0,-1.976027107E1,-3.101903915E0,2.021558471E1
5.158316194E0,4.052330017E0,-2.281512451E1,-2.515970945E0,2.330839752E1
5.163238577E0,4.838875771E0,-2.533630753E1,-1.837013960E0,2.585957885E1
5.168161038E0,5.547087193E0,-2.698437881E1,-1.327049017E0,2.758057170E1
5.173083286E0,6.672236919E0,-2.783557320E1,-1.183186054E0,2.864852195E1
5.178005669E0,8.125955582E0,-2.856936073E1,-1.541977048E0,2.974251536E1
5.182928130E0,9.441973686E0,-3.000033569E1,-2.618666887E0,3.155991801E1
5.187850382E0,1.069010639E1,-3.221313477E1,-4.019918919E0,3.417783162E1
5.192772765E0,1.192091084E1,-3.418429947E1,-5.131773949E0,3.656514118E1
5.197694998E0,1.277329254E1,-3.470888519E1,-5.858419895E0,3.744575807E1
5.202617471E0,1.257037258E1,-3.330157089E1,-6.036189079E0,3.610324735E1
5.207539858E0,1.136763573E1,-3.085383224E1,-5.601147175E0,3.335498397E1
5.212462317E0,9.804420471E0,-2.852647018E1,-4.978525162E0,3.057240381E1
5.217384540E0,7.899581909E0,-2.691027069E1,-4.009335995E0,2.833091665E1
5.222306694E0,5.991271019E0,-2.618600464E1,-3.033699989E0,2.703341456E1
5.227229129E0,4.628215790E0,-2.602222824E1,-2.300812006E0,2.653055747E1
5.232151514E0,4.242662907E0,-2.614220428E1,-1.823863983E0,2.654696806E1
5.237073732E0,4.530540943E0,-2.623222351E1,-1.556635976E0,2.666605458E1
5.241996191E0,4.963614941E0,-2.607850075E1,-1.367653966E0,2.658187638E1
5.246918578E0,5.013976097E0,-2.553303146E1,-1.110913992E0,2.604438100E1
5.251840805E0,4.884008884E0,-2.470148849E1,-6.980199814E-1,2.518936896E1
5.256763264E0,4.596433163E0,-2.365867233E1,-2.712189853E-1,2.410256281E1
5.261685651E0,4.046857834E0,-2.228365707E1,9.139300138E-2,2.264832849E1
5.266608120E0,3.336546898E0,-2.065750694E1,3.134129941E-1,2.092757430E1
5.271530352E0,2.641444921E0,-1.871080780E1,4.386659861E-1,1.890142819E1
5.276452735E0,1.980427980E0,-1.652070618E1,4.349710047E-1,1.664466964E1
5.281374949E0,1.231717944E0,-1.407485867E1,2.849310040E-1,1.413152367E1
5.286297331E0,2.997150123E-1,-1.147875881E1,-1.398999942E-3,1.148267107E1
5.291219554E0,-7.103369832E-1,-8.989659309E0,-2.723000050E-1,9.021790311E0
5.296141937E0,-1.789250016E0,-6.597411156E0,-4.664810002E-1,6.851631492E0
5.301064398E0,-2.861238003E0,-4.314714909E0,-4.880459905E-1,5.200157357E0
5.305986631E0,-3.884727001E0,-2.112865925E0,-4.665530026E-1,4.446681683E0
5.310909091E0,-4.922080994E0,1.028000028E-3,-4.698149860E-1,4.944452294E0
5.315831267E0,-5.977684021E0,1.914873004E0,-5.352659822E-1,6.299678924E0
5.320753726E0,-6.990771770E0,3.676316023E0,-6.627849936E-1,7.926252166E0
5.325676111E0,-7.962016106E0,5.199748993E0,-9.147689939E-1,9.553423071E0
5.330598581E0,-8.788172722E0,6.507521152E0,-1.192955971E0,1.100013433E1
5.335520814E0,-9.383440018E0,7.548414230E0,-1.492017984E0,1.213481033E1
5.340443274E0,-9.784143448E0,8.364738464E0,-1.949684978E0,1.301920059E1
5.345365655E0,-1.009109402E1,8.903453827E0,-2.308767080E0,1.365401311E1
5.350287886E0,-1.028530312E1,9.142837524E0,-2.673758984E0,1.401884180E1
5.355210260E0,-1.041470242E1,9.202770233E0,-3.005599022E0,1.421937523E1
5.360132492E0,-1.047205925E1,9.088429451E0,-3.269990921E0,1.424627725E1
5.365054956E0,-1.057123947E1,8.764722824E0,-3.401963949E0,1.414725517E1
5.369977343E0,-1.069563293E1,8.336334229E0,-3.441838026E0,1.399061404E1
5.374899573E0,-1.074220657E1,7.820465088E0,-3.457964897E0,1.372997442E1
5.379821956E0,-1.073700333E1,7.201529980E0,-3.439393044E0,1.337814258E1
5.384744189E0,-1.070349407E1,6.500912189E0,-3.410101891E0,1.297903847E1
5.389666567E0,-1.064838123E1,5.813846111E0,-3.311742067E0,1.257602739E1
5.394589106E0,-1.047350788E1,5.121529102E0,-3.074413061E0,1.205721541E1
5.399511492E0,-1.023640919E1,4.502669811E0,-2.712871075E0,1.150729238E1
5.404433679E0,-1.005601978E1,3.971446991E0,-2.340362072E0,1.106224298E1
5.409356062E0,-9.982913017E0,3.527264118E0,-2.034636974E0,1.078146057E1
5.414278295E0,-9.883220673E0,3.131989002E0,-1.732242942E0,1.051133063E1
5.419200677E0,-9.873716354E0,2.835458994E0,-1.527819037E0,1.038577553E1
5.424122772E0,-9.821905136E0,2.661883116E0,-1.345353961E0,1.026476593E1
5.429045155E0,-9.749239922E0,2.583777905E0,-1.169733047E0,1.015341631E1
5.433967616E0,-9.654576302E0,2.585417032E0,-1.072329044E0,1.005211989E1
5.438889887E0,-9.516109467E0,2.689016104E0,-1.000954986E0,9.939268478E0
5.443812270E0,-9.423336029E0,2.738670111E0,-9.608010054E-1,9.860157933E0
5.448734731E0,-9.356355667E0,2.872925997E0,-1.000553012E0,9.838506059E0
5.453656945E0,-9.326860428E0,3.068634987E0,-1.061694026E0,9.875932378E0
5.458579405E0,-9.287043571E0,3.233570099E0,-1.165374994E0,9.902689168E0
5.463501791E0,-9.234614372E0,3.347067118E0,-1.246055961E0,9.901192673E0
5.468424012E0,-9.115803719E0,3.416517973E0,-1.333482981E0,9.825917227E0
5.473346395E0,-9.006701469E0,3.456727028E0,-1.401715994E0,9.748560962E0
5.478268627E0,-8.848501205E0,3.553190947E0,-1.417132020E0,9.639989764E0
5.483191005E0,-8.609856606E0,3.636553049E0,-1.410730004E0,9.452211804E0
5.488113238E0,-8.378714561E0,3.635004997E0,-1.322042942E0,9.228429800E0
5.493035639E0,-8.150492668E0,3.637206078E0,-1.133231044E0,8.996888984E0
5.497958101E0,-7.949231148E0,3.627271891E0,-8.303819895E-1,8.777067361E0
5.502880334E0,-7.788853168E0,3.678741932E0,-4.846299887E-1,8.627528157E0
5.507802736E0,-7.721691132E0,3.793068886E0,-1.201860011E-1,8.603855542E0
5.512725198E0,-7.725088120E0,3.946683884E0,2.027190030E-1,8.677234302E0
5.517647431E0,-7.742838860E0,4.059255123E0,5.112079978E-1,8.757307770E0
5.522569894E0,-7.676896095E0,4.138840199E0,8.183839917E-1,8.759822156E0
5.527492281E0,-7.683448792E0,4.144072056E0,1.087437987E0,8.797229104E0
5.532414740E0,-7.741856098E0,4.210519791E0,1.253090978E0,8.901407178E0
5.537336949E0,-7.838595867E0,4.334997177E0,1.327548981E0,9.055284203E0
5.542259103E0,-8.052147865E0,4.408531189E0,1.381075978E0,9.283297008E0
5.547181583E0,-8.211812019E0,4.453947067E0,1.419499993E0,9.449152414E0
5.552103967E0,-8.240029335E0,4.382289886E0,1.394019961E0,9.436410321E0
5.557026195E0,-8.186475754E0,4.266736031E0,1.353453994E0,9.330340794E0
5.561948578E0,-8.181220055E0,4.052701950E0,1.183421969E0,9.206369656E0
5.566871039E0,-8.210789680E0,3.817511082E0,1.006917000E0,9.110671758E0
5.571793272E0,-8.228488922E0,3.621685028E0,7.627829909E-1,9.022553423E0
5.576715655E0,-8.288065910E0,3.459150076E0,4.878189862E-1,8.994204976E0
5.581637887E0,-8.383436203E0,3.238879919E0,2.349860072E-1,8.990415125E0
5.586560361E0,-8.315916061E0,2.946948051E0,1.054000016E-2,8.822645513E0
5.591482822E0,-8.134689331E0,2.594747066E0,-2.022369951E-1,8.540888868E0
5.596405209E0,-7.928652763E0,2.243360043E0,-4.429819882E-1,8.251813859E0
5.601327430E0,-7.744363785E0,1.817515969E0,-7.092999816E-1,7.986340914E0
5.606249584E0,-7.508653164E0,1.349401951E0,-9.559270144E-1,7.688598989E0
5.611172058E0,-7.286273003E0,7.120689750E-1,-1.194412947E0,7.417778561E0
5.616094443E0,-7.080062866E0,-8.922900259E-2,-1.392632008E0,7.216278536E0
5.621016719E0,-6.776025772E0,-1.073127031E0,-1.586781979E0,7.041591009E0
5.625939178E0,-6.164455891E0,-2.383035898E0,-1.817492008E0,6.854389376E0
5.630861640E0,-5.178996086E0,-4.072490215E0,-2.126060963E0,6.922955455E0
5.635783969E0,-3.989680052E0,-6.194548130E0,-2.405739069E0,7.750971160E0
5.640706428E0,-2.658734083E0,-8.603315353E0,-2.624067068E0,9.379319270E0
5.645628876E0,-1.207615972E0,-1.132720470E1,-2.694863081E0,1.170581863E1
5.650551262E0,3.900440037E-1,-1.435400772E1,-2.585777044E0,1.459026781E1
5.655473493E0,1.983469963E0,-1.764255524E1,-2.238842010E0,1.789430976E1
5.660395890E0,3.433701038E0,-2.102283859E1,-1.536829948E0,2.135677625E1
5.665318351E0,4.792969227E0,-2.420889091E1,-4.145779908E-1,2.468227761E1
5.670240507E0,5.845342159E0,-2.649597740E1,9.599980116E-1,2.715007255E1
5.675162738E0,6.526010036E0,-2.775106049E1,1.970078945E0,2.857606299E1
5.680085203E0,7.267857075E0,-2.884512711E1,2.012888908E0,2.981467467E1
5.685007664E0,8.486480713E0,-3.072961807E1,1.468485951E0,3.191373110E1
5.689930051E0,1.037163544E1,-3.303404236E1,9.782890081E-1,3.463778032E1
5.694852210E0,1.272539234E1,-3.458721924E1,1.810760051E-1,3.685436383E1
5.699774669E0,1.470841026E1,-3.520318985E1,-1.067734957E0,3.816728921E1
5.704696902E0,1.549309254E1,-3.500771332E1,-2.150535107E0,3.834319639E1
5.709619275E0,1.484007454E1,-3.358556747E1,-2.595150948E0,3.680968573E1
5.714541736E0,1.314606285E1,-3.119246674E1,-2.467981100E0,3.393935592E1
5.719463969E0,1.119519138E1,-2.874941254E1,-2.118359089E0,3.092488442E1
5.724386341E0,9.311371803E0,-2.693732452E1,-1.813277006E0,2.855887027E1
5.729308803E0,7.726202965E0,-2.607011795E1,-1.859498024E0,2.725441240E1
5.734231036E0,6.765664101E0,-2.576576805E1,-2.332699060E0,2.674117609E1
5.739153428E0,6.350320816E0,-2.553529930E1,-3.092044115E0,2.649412806E1
5.744075661E0,6.281007767E0,-2.511573410E1,-3.750864983E0,2.615951349E1
5.748998121E0,6.647397041E0,-2.446506310E1,-4.381505966E0,2.572789914E1
5.753920596E0,6.811950207E0,-2.360646248E1,-4.682872772E0,2.501193783E1
5.758842752E0,6.527577877E0,-2.247364426E1,-4.672107220E0,2.386425245E1
5.763765169E0,5.951223850E0,-2.119055748E1,-4.421511173E0,2.245009026E1
5.768687630E0,5.184438229E0,-1.965171242E1,-3.961541891E0,2.070656936E1
5.773610092E0,4.488894939E0,-1.777842712E1,-3.208951950E0,1.861504825E1
5.778532234E0,3.630522013E0,-1.547764492E1,-2.273345947E0,1.605946089E1
5.783454693E0,2.583276987E0,-1.295859528E1,-1.433313966E0,1.329108349E1
5.788376926E0,1.394973993E0,-1.034301853E1,-7.840099931E-1,1.046607168E1
5.793299280E0,1.802420020E-1,-7.751094818E0,-3.034949899E-1,7.759127997E0
5.798221436E0,-1.042178988E0,-5.334759235E0,6.918200105E-2,5.436044453E0
5.803143904E0,-2.212912083E0,-3.021285057E0,4.362309873E-1,3.770336955E0
5.808066366E0,-3.215177059E0,-9.608560205E-1,7.658450007E-1,3.441965482E0
5.812988613E0,-4.135704041E0,8.902440071E-1,1.002639055E0,4.347627787E0
5.817910996E0,-5.061285973E0,2.513329029E0,1.217883945E0,5.780716202E0
5.822833229E0,-6.033257961E0,4.009383202E0,1.422847986E0,7.382401484E0
5.827755659E0,-6.958697796E0,5.257372856E0,1.484575987E0,8.846887036E0
5.832678046E0,-7.921826839E0,6.272618771E0,1.433886051E0,1.020573936E1
5.837600277E0,-8.792522430E0,7.110907078E0,1.296771049E0,1.138222585E1
5.842522688E0,-9.522400856E0,7.785582066E0,1.128281951E0,1.235169731E1
5.847445075E0,-1.015223789E1,8.247811317E0,8.889049888E-1,1.311047207E1
5.852367306E0,-1.053859329E1,8.452714920E0,6.961699724E-1,1.352756411E1
5.857289765E0,-1.080549526E1,8.460445404E0,5.224379897E-1,1.373356493E1
5.862211921E0,-1.093533707E1,8.264502525E0,4.364820123E-1,1.371401164E1
5.867134323E0,-1.091576290E1,8.061392784E0,2.902269959E-1,1.357292028E1
5.872056556E0,-1.082765865E1,7.763199806E0,1.822900027E-1,1.332436463E1
5.876979015E0,-1.071107101E1,7.296968937E0,-4.189999774E-3,1.296043269E1
5.881901416E0,-1.057255936E1,6.675962925E0,-2.587760091E-1,1.250657656E1
5.886823647E0,-1.040430164E1,5.949835777E0,-5.776489973E-1,1.199932152E1
5.891746029E0,-1.023454475E1,5.096158028E0,-7.726820111E-1,1.145922207E1
5.896668506E0,-1.002694702E1,4.238790989E0,-8.906430006E-1,1.092246587E1
5.901590739E0,-9.855420113E0,3.410604954E0,-9.949929714E-1,1.047623705E1
5.906513198E0,-9.853774071E0,2.634761095E0,-8.510720134E-1,1.023538729E1
5.911435655E0,-9.820364952E0,1.911363006E0,-5.850809813E-1,1.002173618E1
5.916358041E0,-9.750095367E0,1.266008973E0,-2.857129872E-1,9.836095277E0
5.921280272E0,-9.789776802E0,7.592610121E-1,-1.482299995E-2,9.819186669E0
5.926202406E0,-9.865459442E0,4.007369876E-1,1.009809971E-1,9.874111469E0
5.931124865E0,-9.936663628E0,1.979659945E-1,4.767800122E-2,9.938749809E0
5.936047250E0,-9.989286423E0,9.878200293E-2,-1.477590054E-1,9.990867522E0
5.940969493E0,-9.999690056E0,5.573799834E-2,-4.797320068E-1,1.001134610E1
5.945891875E0,-1.004733753E1,3.541399911E-2,-9.061909914E-1,1.008818258E1
5.950814414E0,-1.017108536E1,-2.955500036E-2,-1.365843058E0,1.026242555E1
5.955736575E0,-1.038823032E1,-7.826799899E-2,-1.776579976E0,1.053934019E1
5.960659034E0,-1.064649487E1,-3.805999830E-2,-2.169538021E0,1.086536685E1
5.965581411E0,-1.088871861E1,5.137399957E-2,-2.468318939E0,1.116509877E1
5.970503871E0,-1.113672447E1,2.630169988E-1,-2.740094900E0,1.147187561E1
5.975426103E0,-1.130686665E1,4.237039983E-1,-2.949242115E0,1.169285198E1
5.980348467E0,-1.141126442E1,5.592370033E-1,-3.021646976E0,1.181778542E1
5.985270928E0,-1.143331623E1,5.760130286E-1,-3.031342030E0,1.184236233E1
5.990193079E0,-1.140187836E1,5.886340141E-1,-3.006977081E0,1.180640636E1
5.995115310E0,-1.136486244E1,5.872250199E-1,-2.982357979E0,1.176432704E1
6.000037770E0,-1.135097313E1,6.336910129E-1,-3.005815029E0,1.175929757E1
6.004960154E0,-1.134820747E1,6.488590240E-1,-3.003406048E0,1.175683966E1
6.009882616E0,-1.134211254E1,6.946309805E-1,-2.851202965E0,1.171560444E1
6.014804777E0,-1.128887272E1,7.224709988E-1,-2.601887941E0,1.160734390E1
6.019727236E0,-1.116443443E1,7.454580069E-1,-2.344172955E0,1.143221110E1
6.024649469E0,-1.101333523E1,7.575020194E-1,-2.083996058E0,1.123434029E1
6.029571852E0,-1.085931301E1,8.291230202E-1,-1.841012001E0,1.104542662E1
6.034494313E0,-1.070549011E1,9.179630280E-1,-1.694187045E0,1.087752014E1
6.039416530E0,-1.053069973E1,1.058220983E0,-1.605795026E0,1.070486086E1
6.044338990E0,-1.036726856E1,1.248620033E0,-1.605304003E0,1.056486206E1
6.049261184E0,-1.030502605E1,1.370426059E0,-1.702157974E0,1.053418109E1
6.054183644E0,-1.023065186E1,1.421190977E0,-1.801069975E0,1.048474483E1
6.059106024E0,-1.015244198E1,1.428055048E0,-1.852468967E0,1.041840010E1
6.064028256E0,-9.955695152E0,1.417317033E0,-2.018934011E0,1.025674159E1
6.068950625E0,-9.646466255E0,1.402461052E0,-2.128411055E0,9.977541873E0
6.073872858E0,-9.315763474E0,1.395372987E0,-2.155563116E0,9.663175835E0
6.078795317E0,-9.014725685E0,1.370254040E0,-2.144793034E0,9.367124023E0
6.083717718E0,-8.739935875E0,1.302734017E0,-2.149653912E0,9.094207330E0
6.088639949E0,-8.421422958E0,1.174276948E0,-2.300000906E0,8.808478595E0
6.093562408E0,-8.062607765E0,9.658650160E-1,-2.548976898E0,8.510923712E0
6.098484860E0,-7.697680950E0,7.584210038E-1,-2.818157911E0,8.232345258E0
6.103407246E0,-7.280580044E0,5.395039916E-1,-3.018466949E0,7.899940067E0
6.108329477E0,-6.838621140E0,2.358700037E-1,-3.157262087E0,7.535958972E0
6.113251641E0,-6.409218788E0,-1.622159928E-1,-3.370836020E0,7.243406310E0
6.118174101E0,-5.896451950E0,-7.002999783E-1,-3.642309904E0,6.965987877E0
6.123096494E0,-5.287963867E0,-1.480882049E0,-3.962291956E0,6.771656448E0
6.128018727E0,-4.626154900E0,-2.477838039E0,-4.207565784E0,6.726410658E0
6.132941187E0,-3.786652088E0,-3.654587030E0,-4.358811855E0,6.833299437E0
6.137863564E0,-2.525794983E0,-5.087559223E0,-4.484399796E0,7.236901317E0
6.142785795E0,-6.692129970E-1,-6.813689232E0,-4.578238010E0,8.236168421E0
6.147708178E0,1.374063969E0,-8.840840340E0,-4.534098148E0,1.003028194E1
6.152630644E0,3.526427984E0,-1.122765923E1,-4.432137012E0,1.257536737E1
6.157552800E0,5.689538002E0,-1.388152695E1,-4.233518124E0,1.558814642E1
6.162475337E0,7.624529839E0,-1.685522461E1,-3.965079069E0,1.891966976E1
6.167397703E0,9.325158119E0,-2.001088142E1,-3.672332048E0,2.238034790E1
6.172319934E0,1.090469837E1,-2.247912979E1,-3.039979935E0,2.516873459E1
6.177242317E0,1.068770981E1,-2.494959259E1,-2.140912056E0,2.722669308E1
6.182164540E0,1.065847301E1,-2.630011368E1,-1.416820049E0,2.841313790E1
6.187086923E0,1.184255505E1,-2.652783585E1,-9.462339878E-1,2.906660530E1
6.192009389E0,1.378873444E1,-2.709378052E1,-5.728470087E-1,3.040608975E1
6.196931621E0,1.605610657E1,-2.861890411E1,-3.531149924E-1,3.281714371E1
6.201854005E0,1.823550415E1,-3.050771332E1,-4.264270067E-1,3.554484525E1
6.206776238E0,1.987102509E1,-3.143245506E1,-5.497210026E-1,3.719084649E1
6.211698697E0,2.034920883E1,-3.064057922E1,-6.755700111E-1,3.678847360E1
6.216621079E0,1.980774689E1,-2.842642403E1,-9.499859810E-1,3.465993210E1
6.221543538E0,1.864436340E1,-2.581784439E1,-1.301581979E0,3.187267625E1
6.226465771E0,1.694676971E1,-2.372204208E1,-1.670549989E0,2.920135308E1
6.231388231E0,1.480144501E1,-2.248793411E1,-1.742705941E0,2.697826864E1
6.236310617E0,1.253575420E1,-2.208078384E1,-1.534692049E0,2.543740215E1
6.241232771E0,1.077120876E1,-2.228510284E1,-1.373446941E0,2.478973787E1
6.246155231E0,9.819104195E0,-2.254928589E1,-1.418216944E0,2.463526823E1
6.251077464E0,9.527525902E0,-2.247589111E1,-1.654858947E0,2.446789712E1
6.255999850E0,9.416766167E0,-2.198539543E1,-2.091180086E0,2.400845958E1
6.260922083E0,9.153646469E0,-2.118595123E1,-2.611845016E0,2.322618151E1
6.265844553E0,8.536344528E0,-2.004444122E1,-3.001365900E0,2.199220314E1
6.270767014E0,7.748240948E0,-1.867636871E1,-3.378899097E0,2.050021817E1
6.275689401E0,6.900174141E0,-1.722823906E1,-3.639957905E0,1.891226898E1
6.280611631E0,5.811916828E0,-1.547379780E1,-3.875741959E0,1.697757849E1
6.285534014E0,4.563286781E0,-1.360885811E1,-4.179300785E0,1.494962074E1
6.290456476E0,3.243282080E0,-1.162409878E1,-4.528594017E0,1.288979111E1
6.295378689E0,1.643663049E0,-9.489572525E0,-4.800992966E0,1.076118713E1
6.300301072E0,1.378419995E-1,-7.389132023E0,-4.900637150E0,8.867610554E0
6.305223305E0,-1.379744053E0,-5.483118057E0,-4.762766838E0,7.392714335E0
6.310145677E0,-2.878142118E0,-3.772440910E0,-4.327958107E0,6.422323088E0
6.315068139E0,-4.367496014E0,-2.410768986E0,-3.770477057E0,6.253265208E0
6.319990358E0,-5.749948025E0,-1.121876001E0,-3.136749983E0,6.645277158E0
6.324912740E0,-6.886673927E0,2.532460093E-1,-2.392798901E0,7.294922748E0
6.329834973E0,-8.002710342E0,1.621878982E0,-1.600787044E0,8.320840307E0
6.334757360E0,-9.145939827E0,2.952680111E0,-8.807340264E-1,9.651022100E0
6.339679821E0,-1.005268097E1,4.175106049E0,-3.207550049E-1,1.088993981E1
6.344602054E0,-1.070375156E1,5.284410954E0,-2.231999999E-3,1.193713959E1
6.349524519E0,-1.117571545E1,6.156505108E0,6.555800140E-2,1.275944626E1
6.354446905E0,-1.144950485E1,6.794207096E0,-1.021080017E-1,1.331400907E1
6.359369136E0,-1.166410828E1,7.128483772E0,-4.516420066E-1,1.367737852E1
6.364291524E0,-1.193944168E1,7.207455158E0,-9.963489771E-1,1.398178775E1
6.369213757E0,-1.215856743E1,7.126743793E0,-1.607913017E0,1.418473205E1
6.374136148E0,-1.237218571E1,6.685297966E0,-2.143446922E0,1.422527865E1
6.379058610E0,-1.268628883E1,5.597520828E0,-2.641756058E0,1.411570186E1
6.383980843E0,-1.282372379E1,4.484179020E0,-3.161844015E0,1.394822609E1
6.388903225E0,-1.261711788E1,3.537926912E0,-3.655987024E0,1.360422109E1
6.393825687E0,-1.217181206E1,2.789618969E0,-3.964196920E0,1.310152052E1
6.398747948E0,-1.169347954E1,2.139708996E0,-4.122897148E0,1.258229308E1
6.403670331E0,-1.138546467E1,1.651887059E0,-4.400351048E0,1.231749268E1
6.408592564E0,-1.135313606E1,1.314861059E0,-4.494686127E0,1.228107330E1
6.413515057E0,-1.141935253E1,9.374169707E-1,-4.451347828E0,1.229206493E1
6.418437444E0,-1.140455532E1,6.015170217E-1,-4.321903229E0,1.221083749E1
6.423359675E0,-1.134435463E1,3.088589907E-1,-4.007284164E0,1.203528571E1
6.428282134E0,-1.133985329E1,1.132379994E-1,-3.510031939E0,1.187120127E1
6.433204290E0,-1.138592625E1,1.485900022E-2,-3.003320932E0,1.177537574E1
6.438126750E0,-1.136063957E1,-6.440999918E-3,-2.516463041E0,1.163601131E1
6.443049134E0,-1.128841400E1,-3.321999917E-3,-2.086698055E0,1.147966073E1
6.447971367E0,-1.106869316E1,-2.041600086E-2,-1.700974941E0,1.119864728E1
6.452893750E0,-1.092233467E1,3.539000079E-2,-1.299317956E0,1.099940336E1
6.457816288E0,-1.092960358E1,1.498139948E-1,-9.954500198E-1,1.097586440E1
6.462738367E0,-1.093766785E1,2.534059882E-1,-8.630669713E-1,1.097459234E1
6.467660904E0,-1.086254597E1,3.480460048E-1,-8.631730080E-1,1.090234418E1
6.472583290E0,-1.076628017E1,3.968580067E-1,-9.115560055E-1,1.081208673E1
6.477505516E0,-1.064152336E1,4.225639999E-1,-1.019719005E0,1.069861704E1
6.482427976E0,-1.051228142E1,4.805870056E-1,-1.227619052E0,1.059462472E1
6.487350362E0,-1.035487366E1,5.811790228E-1,-1.550557971E0,1.048643922E1
6.492272574E0,-1.019143009E1,6.809750199E-1,-1.942353964E0,1.039719737E1
6.497194957E0,-1.004442596E1,7.907710075E-1,-2.344543934E0,1.034469420E1
6.502117189E0,-9.956613541E0,8.833469748E-1,-2.769817114E0,1.037238362E1
6.507039572E0,-9.916660309E0,9.851040244E-1,-3.187655926E0,1.046287398E1
6.511962038E0,-9.942890167E0,1.117367983E0,-3.618767023E0,1.063978622E1
6.516884194E0,-1.002009106E1,1.293946028E0,-3.929478884E0,1.084054083E1
6.521806653E0,-1.003800106E1,1.412631035E0,-4.227842808E0,1.098324390E1
6.526728896E0,-1.000640965E1,1.509073973E0,-4.415390015E0,1.104088797E1
6.531651278E0,-9.930090904E0,1.637761950E0,-4.547471046E0,1.104393329E1
6.536573740E0,-9.937031746E0,1.818645954E0,-4.587899208E0,1.109508414E1
6.541496202E0,-9.963990211E0,1.969472051E0,-4.588428974E0,1.114511559E1
6.546418434E0,-9.957906723E0,2.066242933E0,-4.593576908E0,1.115931069E1
6.551340817E0,-9.927758217E0,2.130017042E0,-4.581548214E0,1.113947664E1
6.556263274E0,-9.778278351E0,2.204148054E0,-4.506826878E0,1.099019948E1
6.561185429E0,-9.640410423E0,2.295905113E0,-4.368350029E0,1.083010505E1
6.566107660E0,-9.539410591E0,2.405565023E0,-4.144586086E0,1.067542464E1
6.571030120E0,-9.434575081E0,2.524682999E0,-3.910290956E0,1.052024746E1
6.575952581E0,-9.382333755E0,2.627532005E0,-3.687045097E0,1.041760110E1
6.580874958E0,-9.372878075E0,2.741388083E0,-3.481789112E0,1.036768573E1
6.585797189E0,-9.346066475E0,2.821865082E0,-3.291892052E0,1.030283623E1
6.590719571E0,-9.208045006E0,2.904784918E0,-3.084019899E0,1.013592852E1
6.595642048E0,-9.062488556E0,2.944233894E0,-2.979104996E0,9.983600484E0
6.600564281E0,-8.871961594E0,2.943541050E0,-2.881155968E0,9.781472085E0
6.605486663E0,-8.565917969E0,2.806741953E0,-2.769995928E0,9.430038625E0
6.610408867E0,-8.030003548E0,2.474438906E0,-2.635432959E0,8.806208705E0
6.615331327E0,-7.281729221E0,1.956261992E0,-2.543875933E0,7.957502510E0
6.620253713E0,-6.458937168E0,1.207430959E0,-2.402774096E0,6.996362070E0
6.625175838E0,-5.408037186E0,1.767349988E-1,-2.375844955E0,5.909546574E0
6.630098298E0,-4.012745857E0,-1.134863973E0,-2.428380013E0,4.825668351E0
6.635020735E0,-2.241935968E0,-2.761976004E0,-2.454912901E0,4.322196858E0
6.639942968E0,-1.262309998E-1,-4.564642906E0,-2.505611897E0,5.208645707E0
6.644865351E0,2.138663054E0,-6.517827034E0,-2.523439884E0,7.309151644E0
6.649787826E0,4.294760227E0,-8.544221878E0,-2.650573015E0,9.923418273E0
6.654709982E0,6.169971943E0,-1.071339035E1,-2.791985035E0,1.267440204E1
6.659632224E0,7.723449230E0,-1.302163792E1,-2.808845043E0,1.539819251E1
6.664554606E0,9.579550743E0,-1.490808392E1,-2.317164898E0,1.787143004E1
6.669477145E0,9.633427620E0,-1.778845596E1,-1.200145960E0,2.026505474E1
6.674399532E0,9.478302002E0,-2.148010826E1,5.961199850E-2,2.347843294E1
6.679321762E0,9.870853424E0,-2.469357872E1,1.206271052E0,2.662069998E1
6.684244145E0,1.107032204E1,-2.671217728E1,1.822646976E0,2.897265067E1
6.689166344E0,1.342811489E1,-2.740709877E1,1.716624975E0,3.056812284E1
6.694088803E0,1.622933960E1,-2.749564934E1,1.187878013E0,3.195016824E1
6.699011190E0,1.845352364E1,-2.792361069E1,4.687420130E-1,3.347357596E1
6.703933431E0,1.934290695E1,-2.831723022E1,-4.996100068E-2,3.429309075E1
6.708855813E0,1.876103592E1,-2.795877838E1,-4.913980067E-1,3.367359840E1
6.713778046E0,1.709706879E1,-2.672413826E1,-6.881549954E-1,3.173267849E1
6.718700506E0,1.527115631E1,-2.505230522E1,-4.327439964E-1,2.934303119E1
6.723622892E0,1.382326984E1,-2.358356667E1,4.604399949E-2,2.733623101E1
6.728545123E0,1.245522308E1,-2.275485039E1,6.077859998E-1,2.594773983E1
6.733467583E0,1.138816643E1,-2.273051262E1,8.238360286E-1,2.543708404E1
6.738389969E0,1.088563156E1,-2.318339920E1,6.367719769E-1,2.561976681E1
6.743312409E0,1.080160904E1,-2.370650291E1,2.696160078E-1,2.605274901E1
6.748234642E0,1.106388283E1,-2.402679253E1,-2.218320072E-1,2.645270254E1
6.753156795E0,1.151612854E1,-2.406718063E1,-9.230399728E-1,2.669648672E1
6.758079251E0,1.162884521E1,-2.344232559E1,-1.524201035E0,2.621251340E1
6.763001636E0,1.106436062E1,-2.205000305E1,-2.071540117E0,2.475709977E1
6.767923872E0,1.000630569E1,-1.996630478E1,-2.575676918E0,2.248140547E1
6.772846255E0,8.831629753E0,-1.749109268E1,-2.961549044E0,1.981683073E1
6.777768717E0,7.646549225E0,-1.481200218E1,-3.158992052E0,1.696597638E1
6.782690954E0,6.255613804E0,-1.204968643E1,-3.033910990E0,1.391158737E1
6.787613337E0,4.692640781E0,-9.282670975E0,-2.806318045E0,1.077331327E1
6.792535570E0,3.034574032E0,-6.644134998E0,-2.630913019E0,7.763689377E0
6.797458275E0,1.442322969E0,-4.231882095E0,-2.407123089E0,5.077732090E0
6.802380508E0,8.543999866E-3,-2.164468050E0,-1.994130015E0,2.943051046E0
6.807302890E0,-1.257855058E0,-4.191420078E-1,-1.418728948E0,1.941821618E0
6.812225103E0,-2.417373896E0,1.101158023E0,-8.151950240E-1,2.778630683E0
6.817147486E0,-3.597450972E0,2.539186001E0,-3.702119887E-1,4.418843283E0
6.822069719E0,-4.851274014E0,3.853410959E0,-3.775300086E-2,6.195567840E0
6.826992101E0,-6.213013172E0,4.973337173E0,4.071849883E-1,7.968777506E0
6.831914554E0,-7.520405769E0,5.895635128E0,8.801990151E-1,9.596341324E0
6.836836787E0,-8.320954323E0,7.013071060E0,1.188959002E0,1.094692057E1
6.841759169E0,-8.525550842E0,8.089266777E0,1.391289949E0,1.183456556E1
6.846681416E0,-8.510916710E0,8.990917206E0,1.544322014E0,1.247626651E1
6.851603799E0,-8.722411156E0,9.736927986E0,1.412642002E0,1.314852769E1
6.856526017E0,-9.199329376E0,1.021113014E1,8.618620038E-1,1.377089851E1
6.861448708E0,-1.012181282E1,9.729608536E0,9.213600308E-2,1.404011631E1
6.866370941E0,-1.101971054E1,9.078048706E0,-8.501020074E-1,1.430271520E1
6.871293323E0,-1.114430046E1,8.505032539E0,-1.546705961E0,1.410401753E1
6.876215785E0,-1.063428402E1,7.943548203E0,-1.677031994E0,1.337910277E1
6.881137941E0,-1.000189018E1,7.580767155E0,-1.836173058E0,1.268374430E1
6.886060142E0,-9.799857140E0,7.434094906E0,-1.689149976E0,1.241596531E1
6.890982525E0,-9.928337097E0,7.232149124E0,-1.389579058E0,1.236150429E1
6.895904987E0,-1.010623837E1,7.017340183E0,-1.025570989E0,1.234629147E1
6.900827481E0,-1.033107662E1,6.679297924E0,-5.613999963E-1,1.231500446E1
6.905749637E0,-1.039928722E1,6.287979126E0,-4.935999960E-2,1.215262493E1
6.910671868E0,-1.024695110E1,5.883240223E0,4.807949960E-1,1.182555226E1
6.915594563E0,-9.891901016E0,5.511356831E0,8.765829802E-1,1.135751547E1
6.920516796E0,-9.372789383E0,5.152476788E0,1.087898970E0,1.075084750E1
6.925439178E0,-8.803712845E0,4.846744061E0,1.153872967E0,1.011571602E1
6.930361416E0,-8.335479736E0,4.606982231E0,1.192216992E0,9.598223225E0
6.935283876E0,-8.043798447E0,4.444513798E0,1.140198946E0,9.260477849E0
6.940206262E0,-7.886123180E0,4.300137043E0,1.080814004E0,9.047114254E0
6.945128401E0,-7.753977776E0,4.238127232E0,1.023089051E0,8.895650903E0
6.950050861E0,-7.621662140E0,4.173598766E0,1.022487998E0,8.749522395E0
6.954973308E0,-7.538560867E0,4.197370052E0,1.099756002E0,8.698119255E0
6.959895541E0,-7.433940887E0,4.269519806E0,1.093317986E0,8.642199992E0
6.964817695E0,-7.384617805E0,4.392142773E0,1.035451055E0,8.654227704E0
6.969740155E0,-7.294169903E0,4.536365986E0,9.014809728E-1,8.636909104E0
6.974662539E0,-7.180460930E0,4.669484138E0,7.637069821E-1,8.599206338E0
6.979584772E0,-7.169526100E0,4.811763763E0,6.493650079E-1,8.658917365E0
6.984507155E0,-7.196124077E0,4.922714233E0,4.998030066E-1,8.733104843E0
6.989429693E0,-7.216576099E0,5.071351051E0,4.101600051E-1,8.829824648E0
6.994352080E0,-7.281520844E0,5.165152073E0,3.084779978E-1,8.932776747E0
6.999274310E0,-7.350296021E0,5.271424770E0,1.585019976E-1,9.046540421E0
7.004196693E0,-7.436452866E0,5.303680897E0,-3.572800010E-2,9.134064745E0
7.009118907E0,-7.508766174E0,5.311526775E0,-2.851069868E-1,9.201911331E0
7.014041289E0,-7.584104061E0,5.296464920E0,-6.525599957E-1,9.273457263E0
7.018963536E0,-7.646151066E0,5.251807213E0,-9.611499906E-1,9.325712543E0
7.023885996E0,-7.587170124E0,5.261995792E0,-1.237004042E0,9.315789242E0
7.028808411E0,-7.437329769E0,5.200104237E0,-1.557543039E0,9.207654342E0
7.033730642E0,-7.222912788E0,5.151817799E0,-1.830212951E0,9.058773384E0
7.038653025E0,-7.049108028E0,5.099414825E0,-2.062642097E0,8.941389600E0
7.043575510E0,-6.913969040E0,5.072538853E0,-2.262463093E0,8.868616439E0
7.048497972E0,-6.861291885E0,5.081167221E0,-2.386687994E0,8.865205370E0
7.053420205E0,-6.865106106E0,5.085684776E0,-2.416013002E0,8.878681789E0
7.058342592E0,-6.926284790E0,5.141277790E0,-2.383349895E0,8.949106940E0
7.063264825E0,-7.085980892E0,5.201727867E0,-2.347706079E0,9.098396663E0
7.068187285E0,-7.246345997E0,5.299879074E0,-2.339864969E0,9.277565229E0
7.073109426E0,-7.342562199E0,5.387807846E0,-2.305699110E0,9.394569783E0
7.078031808E0,-7.419927120E0,5.427499771E0,-2.238018990E0,9.461596125E0
7.082954245E0,-7.502191067E0,5.446154118E0,-2.204381943E0,9.529048495E0
7.087876477E0,-7.545957088E0,5.405845165E0,-2.133716106E0,9.524566906E0
7.092798879E0,-7.584575176E0,5.333437920E0,-2.070822954E0,9.500507795E0
7.097721341E0,-7.598669052E0,5.220019817E0,-2.000865936E0,9.433548789E0
7.102643802E0,-7.566431999E0,5.085504055E0,-1.935395002E0,9.319817515E0
7.107565939E0,-7.547542095E0,4.912491798E0,-1.944874048E0,9.213061511E0
7.112488170E0,-7.481847763E0,4.735363007E0,-1.955193043E0,9.067771975E0
7.117410634E0,-7.353721142E0,4.455225945E0,-2.002996922E0,8.828264241E0
7.122333019E0,-7.190434933E0,4.086556911E0,-2.127221107E0,8.539752429E0
7.127255481E0,-6.853405952E0,3.591778994E0,-2.315525055E0,8.076614747E0
7.132177698E0,-6.270736217E0,2.763472080E0,-2.532082081E0,7.305501373E0
7.137099852E0,-5.565202236E0,1.656139970E0,-2.671104908E0,6.391328262E0
7.142022317E0,-4.599552155E0,1.453139931E-1,-2.857877016E0,5.417052447E0
7.146944701E0,-3.468617916E0,-1.768396974E0,-3.001277924E0,4.915913677E0
7.151866949E0,-2.209631920E0,-3.904129982E0,-3.088125944E0,5.446212077E0
7.156789409E0,-8.233320117E-1,-6.203929901E0,-3.105171919E0,6.986323387E0
7.161711795E0,7.734709978E-1,-8.523287773E0,-3.091986895E0,9.099729381E0
7.166634021E0,2.365258932E0,-1.078333664E1,-2.988040924E0,1.143692211E1
7.171556481E0,3.562089920E0,-1.290688705E1,-2.675878048E0,1.365417670E1
7.176478637E0,4.244342804E0,-1.488935661E1,-2.194308996E0,1.563721133E1
7.181401332E0,4.808673859E0,-1.659183502E1,-1.651942968E0,1.735342183E1
7.186323565E0,5.502829075E0,-1.765108109E1,-1.051460028E0,1.851883796E1
7.191245947E0,5.627820015E0,-1.854304123E1,-6.219480038E-1,1.938823240E1
7.196168175E0,5.688367844E0,-1.949356079E1,-7.190579772E-1,2.031928851E1
7.201090558E0,6.018990040E0,-2.053510857E1,-1.436135054E0,2.144717718E1
7.206012804E0,6.757153988E0,-2.166249084E1,-2.362698078E0,2.281457827E1
7.210935187E0,7.913167000E0,-2.283509445E1,-3.163499117E0,2.437349949E1
7.215857635E0,9.128824234E0,-2.437272072E1,-3.695723057E0,2.628732234E1
7.220780096E0,1.007866669E1,-2.608314514E1,-3.927520990E0,2.823712811E1
7.225702329E0,1.024099255E1,-2.769530106E1,-3.697050095E0,2.975862578E1
7.230624468E0,9.701392174E0,-2.869822693E1,-3.188056946E0,3.046094132E1
7.235546850E0,9.002045631E0,-2.893202019E1,-2.448741913E0,3.039893016E1
7.240469312E0,8.749687195E0,-2.833500671E1,-1.567584038E0,2.969658147E1
7.245391765E0,8.783954620E0,-2.766108894E1,-7.673329711E-1,2.903243876E1
7.250313997E0,8.713254929E0,-2.761395264E1,-2.033179998E-1,2.895673548E1
7.255236457E0,8.521628380E0,-2.813885117E1,1.684170067E-1,2.940138533E1
7.260158839E0,8.427583694E0,-2.884266281E1,4.332340062E-1,3.005180621E1
7.265081069E0,8.561027527E0,-2.921213531E1,6.519079804E-1,3.044774254E1
7.270003456E0,8.739009857E0,-2.906048203E1,8.616989851E-1,3.035826797E1
7.274925917E0,8.726099968E0,-2.827702713E1,8.785820007E-1,2.960586074E1
7.279848098E0,8.466428757E0,-2.688009262E1,7.817630172E-1,2.819274638E1
7.284770329E0,7.750631809E0,-2.496007538E1,6.339920163E-1,2.614344281E1
7.289692712E0,6.801895142E0,-2.255928993E1,4.540530145E-1,2.356678815E1
7.294615169E0,5.799883842E0,-2.001091194E1,2.542409897E-1,2.083602380E1
7.299537402E0,4.644507885E0,-1.743609619E1,1.172479987E-1,1.804446317E1
7.304459785E0,3.338324070E0,-1.486096191E1,-3.895600140E-2,1.523135300E1
7.309382250E0,1.957782984E0,-1.236750031E1,-2.384829968E-1,1.252377148E1
7.314304712E0,6.651080251E-1,-1.001000023E1,-4.549669921E-1,1.004238359E1
7.319226945E0,-6.002029777E-1,-7.773502827E0,-5.569570065E-1,7.816507591E0
7.324149308E0,-1.771746993E0,-5.683643818E0,-6.469540000E-1,5.988442530E0
7.329071541E0,-2.857635021E0,-3.682612896E0,-7.974100113E-1,4.729014525E0
7.333993934E0,-3.887531996E0,-1.834529996E0,-9.703789949E-1,4.406817527E0
7.338916166E0,-4.752904892E0,-1.901790053E-1,-1.213094950E0,4.908958375E0
7.343838549E0,-5.651613235E0,1.348261952E0,-1.368335962E0,5.969161228E0
7.348761011E0,-6.570271015E0,2.765233040E0,-1.451992035E0,7.274837170E0
7.353683243E0,-7.478943825E0,4.137560844E0,-1.473140955E0,8.673185963E0
7.358605640E0,-8.366735458E0,5.321843147E0,-1.410770059E0,1.001571510E1
7.363528102E0,-8.994976997E0,6.321013927E0,-1.315644979E0,1.107229651E1
7.368450334E0,-9.435696602E0,7.125292778E0,-1.257717967E0,1.189050134E1
7.373372784E0,-9.689049721E0,7.641243935E0,-1.335880041E0,1.241172304E1
7.378295170E0,-9.834131241E0,7.830808163E0,-1.574746013E0,1.266931406E1
7.383217401E0,-9.868776321E0,7.643785000E0,-2.010931015E0,1.264373516E1
7.388139857E0,-9.754923820E0,7.300281048E0,-2.533548117E0,1.244473817E1
7.393062013E0,-9.564270973E0,6.944155216E0,-2.997109890E0,1.219340964E1
7.397984385E0,-9.205340385E0,6.549738884E0,-3.369080067E0,1.178932023E1
7.402906847E0,-8.783001900E0,6.144252777E0,-3.623347044E0,1.131466342E1
7.407829041E0,-8.569879532E0,5.800332069E0,-3.783442974E0,1.101821801E1
7.412751423E0,-8.594749451E0,5.527921200E0,-3.939353943E0,1.095199253E1
7.417673890E0,-8.843601227E0,5.319659233E0,-4.003873825E0,1.106973634E1
7.422596123E0,-9.130245209E0,5.186717033E0,-3.979016066E0,1.122924664E1
7.427518505E0,-9.309258461E0,5.111371040E0,-3.843003988E0,1.129411735E1
7.432440738E0,-9.388264656E0,5.057135105E0,-3.645895004E0,1.126972400E1
7.437363198E0,-9.401568413E0,5.025228024E0,-3.370218039E0,1.118037454E1
7.442285659E0,-9.484217644E0,5.031981945E0,-3.091296911E0,1.117261577E1
7.447208036E0,-9.551552773E0,5.075543880E0,-2.912111044E0,1.120150422E1
7.452130267E0,-9.579856873E0,5.130905151E0,-2.853506088E0,1.123576176E1
7.457052649E0,-9.524547577E0,5.211349964E0,-2.847913980E0,1.122433914E1
7.461974897E0,-9.444554329E0,5.214278221E0,-2.833684921E0,1.115428501E1
7.466897280E0,-9.417149544E0,5.183685780E0,-2.820451975E0,1.111342671E1
7.471819502E0,-9.339957237E0,5.056995869E0,-2.798845053E0,1.098369437E1
7.476741962E0,-9.178673744E0,4.936460972E0,-2.789869070E0,1.078888632E1
7.481664118E0,-9.033581734E0,4.803359032E0,-2.731686115E0,1.058961595E1
7.486586582E0,-8.857627869E0,4.710174084E0,-2.568123102E0,1.035560561E1
7.491508967E0,-8.654915810E0,4.615228176E0,-2.379019976E0,1.009294976E1
7.496431243E0,-8.577242851E0,4.578958035E0,-2.308326960E0,9.993213946E0
7.501353702E0,-8.518416405E0,4.520832062E0,-2.160938025E0,9.882863640E0
7.506276164E0,-8.471326828E0,4.446197987E0,-2.038047075E0,9.781906289E0
7.511198560E0,-8.371805191E0,4.403283119E0,-1.897948980E0,9.647706189E0
7.516121020E0,-8.236837387E0,4.397554874E0,-1.715371966E0,9.493496721E0
7.521043176E0,-8.070949554E0,4.344223976E0,-1.512614965E0,9.289806925E0
7.525965397E0,-7.928188801E0,4.333749771E0,-1.266841054E0,9.123730103E0
7.530887856E0,-7.847558975E0,4.310589790E0,-1.030946016E0,9.012669743E0
7.535810241E0,-7.806903839E0,4.337197781E0,-8.400440216E-1,8.970212155E0
7.540732474E0,-7.775489807E0,4.320191860E0,-6.801090240E-1,8.921034006E0
7.545654933E0,-7.748909950E0,4.316791058E0,-5.402789712E-1,8.886629947E0
7.550577103E0,-7.755145073E0,4.299787045E0,-3.932630122E-1,8.876097089E0
7.555499486E0,-7.750991821E0,4.307249069E0,-1.948260069E-1,8.869511031E0
7.560421947E0,-7.727400780E0,4.341067791E0,-1.957700029E-2,8.863293724E0
7.565344409E0,-7.775044918E0,4.387225151E0,1.537259966E-1,8.928756895E0
7.570266641E0,-7.939053059E0,4.455542088E0,3.144110143E-1,9.109295969E0
7.575189024E0,-8.108857155E0,4.494462967E0,4.086520076E-1,9.280127056E0
7.580111491E0,-8.238178253E0,4.500152111E0,3.812910020E-1,9.394909940E0
7.585033723E0,-8.304187775E0,4.477304935E0,2.633459866E-1,9.437962979E0
7.589956111E0,-8.277273178E0,4.406949997E0,6.229399890E-2,9.377544459E0
7.594878344E0,-8.228970528E0,4.281067848E0,-1.780620068E-1,9.277672334E0
7.599800740E0,-8.213914871E0,4.151898861E0,-4.805830121E-1,9.216160898E0
7.604722973E0,-8.215830803E0,3.963813066E0,-8.193910122E-1,9.158771284E0
7.609645356E0,-8.191456795E0,3.769162893E0,-1.123375058E0,9.086722449E0
7.614567861E0,-8.199597359E0,3.556276083E0,-1.384341955E0,9.044163813E0
7.619490094E0,-8.202807426E0,3.421689987E0,-1.571971059E0,9.025802183E0
7.624412477E0,-8.149366379E0,3.259794950E0,-1.679661036E0,8.936425275E0
7.629334967E0,-8.004511833E0,3.041033030E0,-1.806169033E0,8.751133535E0
7.634257429E0,-7.832563877E0,2.816926956E0,-1.933882952E0,8.545410326E0
7.639179662E0,-7.664663792E0,2.569217920E0,-2.093832970E0,8.350574128E0
7.644102029E0,-7.540944099E0,2.225269079E0,-2.315391064E0,8.196261109E0
7.649024185E0,-7.419665813E0,1.753898025E0,-2.508066893E0,8.026082394E0
7.653946737E0,-7.185445786E0,1.065749049E0,-2.677875042E0,7.741929147E0
7.658868893E0,-6.769783020E0,1.097349972E-1,-2.784229040E0,7.320787885E0
7.663791275E0,-6.089788914E0,-1.067482948E0,-2.838983059E0,6.803298734E0
7.668713741E0,-5.055840969E0,-2.576272964E0,-2.767477989E0,6.313291116E0
7.673635974E0,-3.772021055E0,-4.464672089E0,-2.652898073E0,6.418668700E0
7.678558356E0,-2.155457020E0,-6.720161915E0,-2.482892990E0,7.481398848E0
7.683480613E0,-3.091830015E-1,-9.285007477E0,-2.176856041E0,9.541784959E0
7.688403072E0,1.745298028E0,-1.213144875E1,-1.886680007E0,1.240071269E1
7.693325549E0,3.823060036E0,-1.508006191E1,-1.306385994E0,1.561187688E1
7.698247936E0,5.769167900E0,-1.812219238E1,-6.896119714E-1,1.903083602E1
7.703170166E0,7.086370945E0,-2.114438057E1,-4.972599819E-2,2.230031290E1
7.708092520E0,7.844046116E0,-2.369345284E1,6.562560201E-1,2.496676668E1
7.713014753E0,8.342797279E0,-2.489480209E1,1.356528044E0,2.629056116E1
7.717937154E0,8.240769386E0,-2.521181107E1,1.919343948E0,2.659378834E1
7.722859387E0,8.418856621E0,-2.565381622E1,2.000653028E0,2.707393666E1
7.727781890E0,9.249819756E0,-2.695234489E1,1.890568972E0,2.855805161E1
7.732704276E0,1.077395821E1,-2.939319229E1,1.714954972E0,3.135249590E1
7.737626507E0,1.205506134E1,-3.172222710E1,1.968845010E0,3.399265430E1
7.742548977E0,1.275357819E1,-3.273754883E1,2.166323900E0,3.520076447E1
7.747471363E0,1.271687412E1,-3.175149155E1,1.983222008E0,3.426090005E1
7.752393604E0,1.227137280E1,-2.954072762E1,1.280375004E0,3.201375546E1
7.757316064E0,1.148964787E1,-2.752558708E1,7.854769826E-1,2.983767629E1
7.762238450E0,1.035487843E1,-2.635222244E1,4.750440121E-1,2.831764117E1
7.767160895E0,8.996972084E0,-2.588186073E1,8.814299852E-2,2.740116769E1
7.772083128E0,7.851603985E0,-2.616204453E1,-4.334999919E-1,2.731827559E1
7.777005296E0,7.189714909E0,-2.676835823E1,-9.617819786E-1,2.773377052E1
7.781927678E0,7.182201862E0,-2.721052361E1,-1.537922978E0,2.818442523E1
7.786849892E0,7.687530041E0,-2.715351486E1,-2.234138012E0,2.830905968E1
7.791772582E0,8.206400871E0,-2.654663658E1,-2.935354948E0,2.794074512E1
7.796694815E0,8.297547340E0,-2.550561142E1,-3.640292883E0,2.706727245E1
7.801617198E0,8.201751709E0,-2.423786163E1,-4.310426235E0,2.594845741E1
7.806539430E0,7.920079231E0,-2.265454865E1,-4.856242180E0,2.448549198E1
7.811461813E0,7.233296871E0,-2.056163025E1,-5.085813999E0,2.238228599E1
7.816384046E0,6.369805813E0,-1.815526009E1,-4.985884190E0,1.987578768E1
7.821306505E0,5.371362209E0,-1.551498795E1,-4.804369926E0,1.710696798E1
7.826228967E0,4.188046932E0,-1.270487213E1,-4.437419891E0,1.409411963E1
7.831151354E0,2.917926073E0,-9.763793945E0,-4.028507233E0,1.095786637E1
7.836073584E0,1.407452941E0,-6.728734970E0,-3.563164949E0,7.742928550E0
7.840995738E0,5.052699894E-2,-3.854033947E0,-3.166440964E0,4.988234058E0
7.845918198E0,-1.102473974E0,-1.381471038E0,-2.603579044E0,3.146829346E0
7.850840659E0,-2.143152952E0,7.115319967E-1,-2.031881094E0,3.037749683E0
7.855763046E0,-3.148757935E0,2.481246948E0,-1.506909013E0,4.282760526E0
7.860685181E0,-4.009822845E0,3.976725101E0,-1.022397041E0,5.739191362E0
7.865607640E0,-4.705305099E0,5.261614799E0,-7.001569867E-1,7.093285993E0
7.870530097E0,-5.352889061E0,6.344701767E0,-5.002970099E-1,8.316186560E0
7.875452253E0,-6.057805061E0,7.310112000E0,-4.385969937E-1,9.504057393E0
7.880374712E0,-6.715561867E0,8.086391449E0,-5.073630214E-1,1.052358851E1
7.885297169E0,-7.230591774E0,8.730344772E0,-6.584550142E-1,1.135490820E1
7.890219402E0,-7.658166885E0,9.198262215E0,-8.288829923E-1,1.199760788E1
7.895141784E0,-8.046336174E0,9.525543213E0,-9.860230088E-1,1.250806702E1
7.900064211E0,-8.333045006E0,9.577511787E0,-1.020449996E0,1.273615677E1
7.904986444E0,-8.422362328E0,9.315833092E0,-9.950119853E-1,1.259805470E1
7.909908841E0,-8.479133606E0,9.260395050E0,-1.041538954E0,1.259902483E1
7.914831074E0,-8.565521240E0,9.075847626E0,-9.010030031E-1,1.251203303E1
7.919753437E0,-8.437347412E0,8.709336281E0,-1.144286990E0,1.217993278E1
7.924675669E0,-8.372420311E0,8.457791328E0,-1.620573044E0,1.201074157E1
7.929598125E0,-8.421027184E0,8.285538673E0,-1.951799035E0,1.197386193E1
7.934520281E0,-8.597560883E0,8.120887756E0,-2.222765923E0,1.203360127E1
7.939442740E0,-8.772754669E0,8.004713058E0,-2.348512888E0,1.210587330E1
7.944365120E0,-8.884553909E0,7.879597187E0,-2.368311882E0,1.210918045E1
7.949287582E0,-8.954704285E0,7.717107773E0,-2.280261040E0,1.203910593E1
7.954210043E0,-8.873276711E0,7.556015015E0,-2.250032902E0,1.186975360E1
7.959132232E0,-8.764602661E0,7.323083878E0,-2.271672010E0,1.164501228E1
7.964054615E0,-8.664370537E0,7.064767838E0,-2.279817104E0,1.140963748E1
7.968976847E0,-8.637091637E0,6.769931793E0,-2.259471893E0,1.120430907E1
7.973899230E0,-8.548363686E0,6.345942974E0,-2.098450899E0,1.085122160E1
7.978821444E0,-8.555944443E0,6.302539825E0,-2.278131962E0,1.086812214E1
7.983743826E0,-8.632053375E0,6.246113777E0,-2.315511942E0,1.090357182E1
7.988666288E0,-8.628136635E0,6.093636036E0,-2.370863914E0,1.082580887E1
7.993588759E0,-8.509366989E0,5.906416893E0,-2.569720030E0,1.067232627E1
7.998510915E0,-8.527314186E0,5.750522137E0,-2.748671055E0,1.064606898E1
8.003433160E0,-8.787980080E0,5.595211983E0,-2.751394033E0,1.077521045E1
8.008355620E0,-9.027091026E0,5.458311081E0,-2.639497995E0,1.087421178E1
8.013278081E0,-9.158667564E0,5.288893223E0,-2.429914951E0,1.085163904E1
8.018200468E0,-9.135227203E0,5.123530865E0,-2.279316902E0,1.071905920E1
8.023122699E0,-9.037517548E0,4.983788967E0,-2.184345007E0,1.054922931E1
8.028045081E0,-9.022996902E0,4.832541943E0,-2.176515102E0,1.046447097E1
8.032967280E0,-9.099273682E0,4.734805107E0,-2.151106119E0,1.048057338E1
8.037889663E0,-9.199314117E0,4.643346786E0,-2.152503014E0,1.052717050E1
8.042812091E0,-9.309068680E0,4.539525986E0,-2.188055992E0,1.058553942E1
8.047734553E0,-9.317820549E0,4.372457027E0,-2.239888906E0,1.053362533E1
8.052656709E0,-9.236044884E0,4.167410851E0,-2.243488073E0,1.037810566E1
8.057578943E0,-9.132370949E0,3.977638006E0,-2.179496050E0,1.019666643E1
8.062501326E0,-9.010405540E0,3.791789055E0,-2.086601973E0,9.995948181E0
8.067423788E0,-8.853661537E0,3.620028019E0,-1.964619040E0,9.764817123E0
8.072345934E0,-8.712278366E0,3.494771957E0,-1.804298997E0,9.558907900E0
8.077268471E0,-8.577193260E0,3.382812023E0,-1.577509046E0,9.354153954E0
8.082190857E0,-8.409420967E0,3.250564098E0,-1.343371034E0,9.115326308E0
8.087113302E0,-8.282117844E0,3.126178026E0,-1.157781959E0,8.927873436E0
8.092035535E0,-8.263096809E0,3.060911894E0,-9.473450184E-1,8.862585012E0
8.096957933E0,-8.266776085E0,3.029680967E0,-7.448440194E-1,8.835912302E0
8.101880166E0,-8.322837830E0,3.041945934E0,-5.846250057E-1,8.880588438E0
8.106802578E0,-8.364362717E0,3.040978909E0,-4.434230030E-1,8.911045973E0
8.111724734E0,-8.370391846E0,3.033680916E0,-3.563849926E-1,8.910313676E0
8.116647193E0,-8.314981461E0,3.017921925E0,-2.992829978E-1,8.850781872E0
8.121569578E0,-8.240897179E0,2.916929960E0,-2.763290107E-1,8.746269172E0
8.126491734E0,-8.102625847E0,2.759099960E0,-2.738089859E-1,8.563886359E0
8.131414183E0,-8.050646782E0,2.606779099E0,-2.391449958E-1,8.465541991E0
8.136336416E0,-8.170458794E0,2.416696072E0,-2.902899981E-1,8.525320234E0
8.141258876E0,-8.186404228E0,2.269076109E0,-4.225179851E-1,8.505553599E0
8.146181322E0,-8.065987587E0,2.061733007E0,-6.035410166E-1,8.347164818E0
8.151103709E0,-7.835289955E0,1.781124949E0,-8.686109781E-1,8.081996028E0
8.156025940E0,-7.573770046E0,1.340257049E0,-1.170284986E0,7.779964564E0
8.160948346E0,-7.325139046E0,7.470189929E-1,-1.442209005E0,7.503043798E0
8.165870808E0,-7.066726208E0,-3.501300141E-2,-1.697769046E0,7.267892744E0
8.170793040E0,-6.765981197E0,-9.283620119E-1,-2.030689955E0,7.124890124E0
