"Time (s)","Linear Acceleration x (m/s^2)","Linear Acceleration y (m/s^2)","Linear Acceleration z (m/s^2)","Absolute acceleration (m/s^2)"
2.335518600E-2,-5.506355762E0,-2.873867035E0,2.135498047E0,6.568060401E0
2.827739300E-2,-5.506355762E0,-2.873867035E0,2.135498047E0,6.568060401E0
3.319977500E-2,-5.506355762E0,-2.873867035E0,2.135498047E0,6.568060401E0
3.812194000E-2,-5.506355762E0,-2.873867035E0,2.135498047E0,6.568060401E0
4.304417100E-2,-5.506355762E0,-2.873867035E0,2.135498047E0,6.568060401E0
4.796623400E-2,-5.506355762E0,-2.873867035E0,2.135498047E0,6.568060401E0
5.288846300E-2,-5.506355762E0,-2.873867035E0,2.135498047E0,6.568060401E0
5.781061800E-2,-5.506355762E0,-2.873867035E0,2.135498047E0,6.568060401E0
6.273275200E-2,-5.506355762E0,-2.873867035E0,2.135498047E0,6.568060401E0
6.765513500E-2,-5.506355762E0,-2.873867035E0,2.135498047E0,6.568060401E0
7.257729100E-2,-5.506355762E0,-2.873867035E0,2.135498047E0,6.568060401E0
7.749951000E-2,-5.506355762E0,-2.873867035E0,2.135498047E0,6.568060401E0
8.242189400E-2,-5.506355762E0,-2.873867035E0,2.135498047E0,6.568060401E0
8.734412700E-2,-5.506355762E0,-2.873867035E0,2.135498047E0,6.568060401E0
9.226628600E-2,-5.506355762E0,-2.873867035E0,2.135498047E0,6.568060401E0
9.718866800E-2,-5.506355762E0,-2.873867035E0,2.135498047E0,6.568060401E0
1.021105260E-1,1.018599980E-2,1.371980011E-1,5.200099945E-2,1.470753210E-1
1.070329080E-1,-1.731099933E-2,7.342600077E-2,1.328330040E-1,1.527601232E-1
1.119550640E-1,-1.422400028E-2,3.627799824E-2,2.108380049E-1,2.144086744E-1
1.168773080E-1,-5.163300037E-2,1.127899997E-2,2.604010105E-1,2.657101218E-1
1.217994640E-1,-7.253699750E-2,7.709999918E-4,2.728450000E-1,2.823235812E-1
1.267218460E-1,-6.797800213E-2,1.193500031E-2,2.724710107E-1,2.810763325E-1
1.316439530E-1,-5.270199850E-2,-5.528999958E-3,2.359009981E-1,2.417795512E-1
1.365661820E-1,-8.058000356E-3,1.310699992E-2,2.273000032E-1,2.278201402E-1
1.414885670E-1,2.142000012E-3,9.415899962E-2,2.367590070E-1,2.548044991E-1
1.464107890E-1,-4.070000141E-4,1.849559993E-1,2.522079945E-1,3.127583089E-1
1.513329430E-1,4.093400016E-2,2.904239893E-1,3.039259911E-1,4.223655928E-1
1.562553260E-1,6.658700109E-2,3.746969998E-1,3.936530054E-1,5.475348016E-1
1.611774490E-1,1.856499910E-2,5.333669782E-1,4.739260077E-1,7.137442493E-1
1.660996030E-1,-5.003400147E-2,6.514070034E-1,5.239239931E-1,8.374549755E-1
1.710217560E-1,-8.226999640E-2,7.910450101E-1,5.538210273E-1,9.691430702E-1
1.759439890E-1,-1.398079991E-1,8.898969889E-1,5.453500152E-1,1.053028759E0
1.808661450E-1,-2.126830071E-1,9.981700182E-1,5.181570053E-1,1.144580329E0
1.857885280E-1,-2.488150001E-1,1.079978943E0,4.795970023E-1,1.207591283E0
1.907106400E-1,-3.074809909E-1,1.140048981E0,4.251169860E-1,1.254982346E0
1.956328690E-1,-3.600650132E-1,1.168809056E0,3.786120117E-1,1.280276720E0
2.005549820E-1,-4.462659955E-1,1.214038968E0,3.117690086E-1,1.330505118E0
2.054771360E-1,-5.115100145E-1,1.227893949E0,2.531549931E-1,1.354050772E0
2.103995960E-1,-5.772470236E-1,1.267758012E0,1.580269933E-1,1.401926187E0
2.153217310E-1,-6.365410089E-1,1.278558969E0,5.530999973E-2,1.429320360E0
2.202438850E-1,-6.544759870E-1,1.260462999E0,-5.745999981E-3,1.420260119E0
2.251662780E-1,-6.857820153E-1,1.234966040E0,-7.761900127E-2,1.414730646E0
2.300884340E-1,-7.254239917E-1,1.214012980E0,-1.555069983E-1,1.422761368E0
2.350105830E-1,-7.287319899E-1,1.212110043E0,-1.924030036E-1,1.427333172E0
2.399328110E-1,-7.480009794E-1,1.212491035E0,-2.101799995E-1,1.440074862E0
2.448549820E-1,-7.503380179E-1,1.179175973E0,-2.865529954E-1,1.426736043E0
2.497773650E-1,-7.924140096E-1,1.160141945E0,-2.749620080E-1,1.431591213E0
2.546995980E-1,-8.428930044E-1,1.138538003E0,-2.968010008E-1,1.447352146E0
2.596216650E-1,-8.973000050E-1,1.078490973E0,-3.163599968E-1,1.438184176E0
2.645438930E-1,-9.440090060E-1,1.006384969E0,-3.242459893E-1,1.417426954E0
2.694663550E-1,-9.787279963E-1,9.126660228E-1,-3.369899988E-1,1.380010877E0
2.743885110E-1,-1.056045055E0,7.853469849E-1,-3.429479897E-1,1.360005283E0
2.793106650E-1,-1.060186028E0,6.701760292E-1,-2.929379940E-1,1.287999609E0
2.842330470E-1,-1.044618011E0,4.930419922E-1,-2.278259993E-1,1.177379242E0
2.891551930E-1,-1.009335995E0,4.262250066E-1,-2.180249989E-1,1.117122109E0
2.940774220E-1,-9.053360224E-1,3.812009990E-1,-2.457430065E-1,1.012589325E0
2.989995640E-1,-7.407879829E-1,3.365510106E-1,-2.797879875E-1,8.604154440E-1
3.039219460E-1,-5.802900195E-1,2.564229965E-1,-2.920350134E-1,6.984079817E-1
3.088441790E-1,-4.562740028E-1,1.791079938E-1,-2.548150122E-1,5.524457707E-1
3.137662700E-1,-2.764639854E-1,3.302000090E-2,-1.717730016E-1,3.271522883E-1
3.186884220E-1,-1.496510059E-1,-1.028809994E-1,-2.735700086E-2,1.836527405E-1
3.236106530E-1,-9.571299702E-2,-2.047829926E-1,1.631769985E-1,2.787898576E-1
3.285327900E-1,-1.249879971E-1,-2.993119955E-1,3.170090020E-1,4.535464446E-1
3.334552490E-1,-2.500329912E-1,-3.460479975E-1,4.467310011E-1,6.179274234E-1
3.383774050E-1,-3.213250041E-1,-3.688920140E-1,5.200660229E-1,7.140026221E-1
3.432997880E-1,-3.590100110E-1,-3.821170032E-1,5.851759911E-1,7.857051181E-1
3.482219430E-1,-3.659459949E-1,-2.971270084E-1,6.257879734E-1,7.834612421E-1
3.531441530E-1,-3.544920087E-1,-2.407529950E-1,6.823559999E-1,8.057520087E-1
3.580663090E-1,-3.389590085E-1,-1.747020036E-1,7.357149720E-1,8.286679187E-1
3.629884580E-1,-2.887099981E-1,-8.701500297E-2,7.437769771E-1,8.025766414E-1
3.679106120E-1,-3.145970106E-1,-1.147800032E-2,7.026330233E-1,7.699325873E-1
3.728329990E-1,-3.679719865E-1,1.139929965E-1,5.920429826E-1,7.063375109E-1
3.777552320E-1,-3.990280032E-1,2.415180057E-1,4.224820137E-1,6.293213379E-1
3.826773860E-1,-3.331060112E-1,3.737669885E-1,2.701790035E-1,5.689095449E-1
3.875995540E-1,-3.102900088E-1,5.681899786E-1,2.027419955E-1,6.783981560E-1
3.925219370E-1,-2.057269961E-1,6.886969805E-1,2.323690057E-1,7.553955802E-1
3.974441690E-1,-1.415599976E-2,8.002550006E-1,3.359830081E-1,8.680397687E-1
4.023665660E-1,6.820499897E-2,8.953459859E-1,4.348460138E-1,9.976910404E-1
4.072887220E-1,1.676039994E-1,8.950279951E-1,5.384669900E-1,1.057881332E0
4.122108760E-1,2.930369973E-1,8.470379710E-1,4.851939976E-1,1.019194398E0
4.171330900E-1,3.972400129E-1,7.320010066E-1,3.087440133E-1,8.882274299E-1
4.220552460E-1,4.504519999E-1,6.525189877E-1,-6.835900247E-2,7.958397996E-1
4.269773900E-1,5.852360129E-1,4.627310038E-1,-4.834969938E-1,8.890390968E-1
4.318997730E-1,4.836080074E-1,3.678820133E-1,-9.953820109E-1,1.166190048E0
4.368220160E-1,4.644970000E-1,1.674299985E-1,-1.251605988E0,1.345476799E0
4.417440930E-1,5.848789811E-1,-4.218000174E-2,-1.205780983E0,1.340809589E0
4.466663210E-1,6.968619823E-1,-1.366000026E-1,-9.945989847E-1,1.222089736E0
4.515884770E-1,8.374310136E-1,-2.570399940E-1,-6.287199855E-1,1.078262065E0
4.565109370E-1,9.424279928E-1,-3.532989919E-1,-1.633789986E-1,1.019648663E0
4.614330930E-1,1.142850995E0,-4.900180101E-1,3.184329867E-1,1.283598697E0
4.663554890E-1,1.274490952E0,-5.453109741E-1,7.415729761E-1,1.572139219E0
4.712776450E-1,9.109209776E-1,-4.192000031E-1,1.002609968E0,1.418002968E0
4.761998740E-1,9.930179715E-1,-5.996149778E-1,1.362205029E0,1.789196846E0
4.811219480E-1,1.034983993E0,-7.203249931E-1,1.613513947E0,2.047800580E0
4.860441770E-1,1.106032014E0,-9.705500007E-1,1.625102043E0,2.192311741E0
4.909663370E-1,8.972529769E-1,-1.063256025E0,1.370100975E0,1.952627195E0
4.958887200E-1,5.197560191E-1,-1.096673965E0,1.049494982E0,1.604456239E0
5.008108900E-1,8.625499904E-2,-1.187703967E0,6.663470268E-1,1.364587483E0
5.057330440E-1,-2.024849951E-1,-1.310446978E0,3.083620071E-1,1.361381130E0
5.106552730E-1,-3.003680110E-1,-1.471573949E0,-6.792000029E-3,1.501931077E0
5.155777250E-1,-2.226500064E-1,-1.668282986E0,-2.852019966E-1,1.707068049E0
5.204998810E-1,-4.709900171E-2,-1.742329001E0,-3.535880148E-1,1.778469328E0
5.254220350E-1,1.711509973E-1,-1.688884974E0,-2.811219990E-1,1.720655310E0
5.303444220E-1,4.036079943E-1,-1.553452015E0,-3.923000023E-2,1.605506639E0
5.352666550E-1,7.046560049E-1,-1.319229960E0,2.944869995E-1,1.524345882E0
5.401888090E-1,8.262220025E-1,-1.075240970E0,6.367170215E-1,1.498063585E0
5.451109720E-1,7.786329985E-1,-8.003460169E-1,8.797720075E-1,1.421556147E0
5.500331260E-1,7.176499963E-1,-5.999400020E-1,9.815019965E-1,1.355837635E0
5.549552800E-1,6.458179951E-1,-4.405049980E-1,9.425809979E-1,1.224575222E0
5.598776620E-1,6.242889762E-1,-3.434329927E-1,7.965009809E-1,1.068689271E0
5.647998330E-1,6.004149914E-1,-2.751449943E-1,5.382509828E-1,8.520076585E-1
5.697220620E-1,6.070849895E-1,-2.618620098E-1,2.542650104E-1,7.083604959E-1
5.746442180E-1,6.343709826E-1,-2.508589923E-1,-1.556800026E-2,6.823482544E-1
5.795666100E-1,6.396549940E-1,-2.350109965E-1,-1.829430014E-1,7.055896978E-1
5.844887660E-1,6.421999931E-1,-2.119610012E-1,-2.456219941E-1,7.194987569E-1
5.894112260E-1,5.974439979E-1,-1.722230017E-1,-2.692120075E-1,6.775508821E-1
5.943333770E-1,5.461930037E-1,-8.467999846E-2,-2.779830098E-1,6.186857467E-1
5.992556070E-1,5.330849886E-1,3.397199884E-2,-2.440979928E-1,5.872968005E-1
6.041777610E-1,5.197579861E-1,1.502210051E-1,-2.010650039E-1,5.771844161E-1
6.090999110E-1,5.320500135E-1,2.066269964E-1,-6.901100278E-2,5.749212564E-1
6.140222940E-1,5.153250098E-1,2.893440127E-1,7.795999944E-2,5.961187675E-1
6.189445270E-1,5.428109765E-1,3.290509880E-1,8.745700121E-2,6.407550514E-1
6.238666940E-1,5.408959985E-1,3.807849884E-1,7.234000135E-3,6.615270360E-1
6.287888480E-1,5.289120078E-1,3.583390117E-1,-1.045439988E-1,6.473671346E-1
6.337110020E-1,5.188819766E-1,2.664949894E-1,-2.497259974E-1,6.345243564E-1
6.386333990E-1,5.413479805E-1,2.225960046E-1,-3.830240071E-1,6.995098336E-1
6.435556320E-1,5.371270180E-1,1.858569980E-1,-5.119100213E-1,7.649183793E-1
6.484777850E-1,5.888770223E-1,1.419630051E-1,-5.943719745E-1,8.486505089E-1
6.534001920E-1,6.626369953E-1,8.850699663E-2,-6.431540251E-1,9.276682467E-1
6.583223480E-1,7.392910123E-1,1.427810043E-1,-5.954049826E-1,9.599191160E-1
6.632445770E-1,8.564869761E-1,1.467880011E-1,-4.342029989E-1,9.714159263E-1
6.681667190E-1,9.098920226E-1,1.765770018E-1,-1.942089945E-1,9.469952819E-1
6.730891010E-1,9.482839704E-1,2.158939987E-1,3.398999944E-2,9.731433744E-1
6.780112420E-1,9.479489923E-1,3.078100085E-1,2.223529965E-1,1.021173417E0
6.829333960E-1,9.423720241E-1,4.044170082E-1,3.288280070E-1,1.076915041E0
6.878555360E-1,9.338319898E-1,4.889320135E-1,3.877019882E-1,1.123124895E0
6.927777650E-1,8.583089709E-1,6.522939801E-1,4.872710109E-1,1.183053154E0
6.976999200E-1,6.713060141E-1,8.633360267E-1,6.673060060E-1,1.281131596E0
7.026223030E-1,4.447250068E-1,1.107687950E0,8.771970272E-1,1.481292527E0
7.075444590E-1,1.196030006E-1,1.375764012E0,1.151900053E0,1.798306211E0
7.124666880E-1,-3.177149892E-1,1.732171059E0,1.348562956E0,2.218103117E0
7.173890860E-1,-6.689450145E-1,2.088068962E0,1.330881953E0,2.564910563E0
7.223112420E-1,-8.374289870E-1,2.362240076E0,1.211244941E0,2.783627093E0
7.272334710E-1,-8.834319711E-1,2.547449112E0,1.197502971E0,2.950247852E0
7.321558510E-1,-8.451279998E-1,2.760929108E0,9.948959947E-1,3.053979193E0
7.370780060E-1,-7.033140063E-1,2.945144892E0,6.437659860E-1,3.095636230E0
7.420001560E-1,-6.084910035E-1,3.121582031E0,2.225490063E-1,3.188112881E0
7.469223100E-1,-5.318790078E-1,3.204051018E0,-3.131119907E-1,3.262955305E0
7.518445290E-1,-4.230250120E-1,3.341049910E0,-9.743260145E-1,3.505834543E0
7.567666850E-1,-2.675760090E-1,3.470386982E0,-1.484521031E0,3.784043527E0
7.616888390E-1,-9.387700260E-2,3.620820999E0,-1.655069947E0,3.982262439E0
7.666112350E-1,2.871599980E-2,3.861742973E0,-1.540717006E0,4.157847074E0
7.715333910E-1,1.573009938E-1,4.022999763E0,-1.386788964E0,4.258221968E0
7.764556200E-1,4.038540125E-1,4.140317917E0,-1.292727947E0,4.356199727E0
7.813780100E-1,7.901110053E-1,4.165719032E0,-1.464404941E0,4.485752143E0
7.863002420E-1,1.054211974E0,4.195312023E0,-1.251229048E0,4.503063400E0
7.912223960E-1,1.095324039E0,4.251123905E0,-3.977679908E-1,4.407948342E0
7.961447790E-1,9.128059745E-1,4.285573006E0,7.909219861E-1,4.452517077E0
8.010667040E-1,6.993970275E-1,4.389568806E0,1.500440001E0,4.691352758E0
8.059890710E-1,6.180940270E-1,4.637026787E0,1.614282012E0,4.948733582E0
8.109113040E-1,7.607989907E-1,4.872043133E0,1.145169020E0,5.062314834E0
8.158334490E-1,8.520389795E-1,4.943358898E0,4.161899984E-1,5.033486042E0
8.207556030E-1,4.190729856E-1,4.613639832E0,-1.967789978E-1,4.636811042E0
8.256779860E-1,-3.690159917E-1,4.051020145E0,-1.165329963E-1,4.069461507E0
8.306001360E-1,-1.070112944E0,3.343954086E0,7.838820219E-1,3.597449328E0
8.355223650E-1,-1.568107009E0,2.514843941E0,2.324806929E0,3.766713009E0
8.404445210E-1,-1.880061030E0,1.615103960E0,3.894145012E0,4.616010794E0
8.453669090E-1,-1.935740948E0,5.614280105E-1,4.972222805E0,5.365192825E0
8.502891420E-1,-1.418776035E0,-1.019271016E0,5.171177864E0,5.458289049E0
8.552115240E-1,-1.126047969E0,-3.233638048E0,3.688769102E0,5.033032539E0
8.601336510E-1,-9.486010075E-1,-6.513878822E0,-2.073780000E-1,6.585853538E0
8.650558050E-1,-1.006996036E0,-1.090201092E1,-6.008403778E0,1.248874690E1
8.699779640E-1,-1.168944955E0,-1.605075836E1,-1.193881512E1,2.003817813E1
8.749001930E-1,-1.659724951E0,-2.096147919E1,-1.508312511E1,2.587738317E1
8.798223480E-1,-2.413774014E0,-2.440394592E1,-1.165256786E1,2.715071306E1
8.847445020E-1,-3.337323904E0,-2.647047043E1,-3.357788086E0,2.689048673E1
8.896668850E-1,-4.898032188E0,-2.751116180E1,4.297757149E0,2.827234443E1
8.945891370E-1,-7.777562141E0,-2.670478821E1,8.204977989E0,2.899927327E1
8.995112900E-1,-9.526845932E0,-2.603774071E1,7.968782902E0,2.884833159E1
9.044334440E-1,-8.321109772E0,-2.583572197E1,5.067782879E0,2.761173339E1
9.093559040E-1,-5.092315197E0,-2.539379692E1,1.166465044E0,2.592560967E1
9.142780600E-1,-1.127118945E0,-2.329807091E1,-1.488739967E0,2.337278015E1
9.192004420E-1,1.441405058E0,-1.987334633E1,-1.870756984E0,2.001317752E1
9.241225780E-1,2.780975103E0,-1.698004532E1,-1.322464943E0,1.725701814E1
9.290447320E-1,3.275532961E0,-1.466637421E1,-3.733380139E-1,1.503233281E1
9.339669610E-1,3.279535055E0,-1.259511566E1,-2.991499901E-1,1.301851679E1
9.388893660E-1,3.094232082E0,-1.035685253E1,-7.742840052E-1,1.083688988E1
9.438112910E-1,3.370426893E0,-7.977787971E0,-9.979869723E-1,8.717847002E0
9.487336730E-1,3.206238985E0,-5.788395882E0,-1.097067952E0,6.707387972E0
9.536558290E-1,2.402950048E0,-3.997009039E0,-9.471570253E-1,4.758923893E0
9.585782890E-1,1.454910040E0,-2.392919064E0,-6.966410279E-1,2.885850584E0
9.635004440E-1,6.623200178E-1,-8.372020125E-1,-4.292129874E-1,1.150564559E0
9.684226890E-1,4.051600099E-1,5.552330017E-1,-5.585100129E-2,6.896068838E-1
9.733448430E-1,5.182660222E-1,1.693379045E0,3.427700102E-1,1.803780346E0
9.782672260E-1,7.127529979E-1,2.783075094E0,7.913259864E-1,2.979886010E0
9.831893820E-1,9.967300296E-1,3.821841002E0,1.190119982E0,4.125084843E0
9.881116100E-1,1.236974955E0,4.634818077E0,1.578397036E0,5.050047807E0
9.930337370E-1,1.292682052E0,5.415903091E0,1.846915007E0,5.866355617E0
9.979558140E-1,1.364701033E0,6.155569077E0,1.749855995E0,6.543350485E0
1.002878023E0,1.447698951E0,6.873078823E0,1.376111984E0,7.157424743E0
1.007800408E0,1.517228961E0,7.614054203E0,7.709299922E-1,7.801931695E0
1.012722568E0,1.558223963E0,8.353959084E0,-1.409389973E-1,8.499209263E0
1.017644797E0,1.684555054E0,8.968903542E0,-9.677129984E-1,9.176896257E0
1.022566953E0,1.995846987E0,9.413713455E0,-1.655671954E0,9.764356396E0
1.027489126E0,2.295027018E0,9.669518471E0,-2.178771973E0,1.017417239E1
1.032411509E0,1.796766996E0,9.990323067E0,-2.499839067E0,1.045390463E1
1.037333741E0,1.380714059E0,1.029308033E1,-2.641563892E0,1.071595697E1
1.042256124E0,1.248190045E0,1.049531269E1,-2.493727922E0,1.085947723E1
1.047178280E0,1.237362981E0,1.037259769E1,-2.018276930E0,1.063932760E1
1.052100509E0,1.300994992E0,1.021743488E1,-1.531587958E0,1.041318036E1
1.057022564E0,1.302276969E0,1.033102036E1,-1.232797027E0,1.048549929E1
1.061944792E0,1.384261012E0,1.053652000E1,-1.053285956E0,1.067913122E1
1.066866948E0,1.480466962E0,1.070003319E1,-8.093069792E-1,1.083224217E1
1.071789331E0,1.622799039E0,1.101059246E1,-6.839299798E-1,1.115053287E1
1.076711564E0,1.867934942E0,1.142748642E1,-5.676230192E-1,1.159305062E1
1.081633717E0,2.153465033E0,1.169861126E1,-5.461230278E-1,1.190769362E1
1.086555871E0,2.418327093E0,1.159065723E1,-7.594199777E-1,1.186458426E1
1.091478263E0,2.674448013E0,1.127364540E1,-1.246216059E0,1.165336034E1
1.096400419E0,2.989126921E0,1.083390808E1,-1.657189965E0,1.136022547E1
1.101322648E0,3.195936918E0,1.031940842E1,-2.005141973E0,1.098748366E1
1.106245028E0,3.296436071E0,9.957729340E0,-2.190634966E0,1.071549093E1
1.111167184E0,3.267858982E0,9.662733078E0,-1.846673012E0,1.036617162E1
1.116089413E0,3.111301899E0,9.518198967E0,-1.239480019E0,1.009022407E1
1.121011472E0,2.801328897E0,9.576742172E0,-5.985999703E-1,9.995987002E0
1.125933701E0,2.324475050E0,9.833498001E0,-7.192999870E-2,1.010475339E1
1.130855866E0,1.612005949E0,1.015751171E1,4.324330091E-1,1.029371680E1
1.135778249E0,9.937689900E-1,1.044216347E1,8.773419857E-1,1.052597186E1
1.140700496E0,4.716570079E-1,1.068350124E1,1.166725993E0,1.075736532E1
1.145622650E0,-1.442330033E-1,1.095517540E1,1.310109973E0,1.103417688E1
1.150545032E0,-8.077639937E-1,1.118068409E1,1.419052958E0,1.129928718E1
1.155467188E0,-1.354302049E0,1.135994530E1,1.481716990E0,1.153594281E1
1.160389417E0,-1.567657948E0,1.132335281E1,1.572273970E0,1.153897378E1
1.165311802E0,-1.507681966E0,1.113114452E1,1.685734034E0,1.135857309E1
1.170233967E0,-1.316118002E0,1.083694077E1,1.890099049E0,1.107898579E1
1.175156196E0,-1.030143023E0,1.051911259E1,2.146375895E0,1.078516823E1
1.180078352E0,-7.461289763E-1,1.030225182E1,2.372999907E0,1.059831258E1
1.185000487E0,-4.574039876E-1,1.013132763E1,2.560468912E0,1.045987662E1
1.189922870E0,-2.145269960E-1,9.951278687E0,2.704180956E0,1.031438626E1
1.194845049E0,-3.206700087E-2,9.793163300E0,2.799936056E0,1.018561327E1
1.199767203E0,1.328720003E-1,9.719177246E0,2.843427896E0,1.012744506E1
1.204689457E0,2.754330039E-1,9.674201012E0,2.844590902E0,1.008750346E1
1.209611613E0,3.738990128E-1,9.612700462E0,2.810965061E0,1.002224203E1
1.214533996E0,5.212020278E-1,9.584897041E0,2.733438015E0,9.980660611E0
1.219456151E0,7.403600216E-1,9.478204727E0,2.617391109E0,9.860792769E0
1.224378380E0,9.662250280E-1,9.311527252E0,2.439853907E0,9.674245069E0
1.229300765E0,1.081140041E0,9.020457268E0,2.371315002E0,9.389390180E0
1.234222988E0,9.878749847E-1,8.737992287E0,2.453517914E0,9.129521145E0
1.239145141E0,8.711289763E-1,8.430687904E0,2.581582069E0,8.860018635E0
1.244067524E0,6.374660134E-1,8.110307693E0,2.645275116E0,8.554585568E0
1.248989670E0,2.890410125E-1,7.809960842E0,2.560326099E0,8.224007709E0
1.253911899E0,-1.165999994E-1,7.476768970E0,2.418513060E0,7.859063253E0
1.258834060E0,-5.274670124E-1,7.137360096E0,2.295823097E0,7.516045122E0
1.263756137E0,-9.843829870E-1,6.717325211E0,2.089211941E0,7.103258012E0
1.268678365E0,-1.442736030E0,6.028744221E0,1.451500058E0,6.366639345E0
1.273600769E0,-1.607185006E0,5.039876938E0,2.385459989E-1,5.295309942E0
1.278523002E0,-1.397552013E0,3.694310904E0,-1.210157037E0,4.131048866E0
1.283445156E0,-1.419443965E0,1.922737956E0,-1.882593036E0,3.042350893E0
1.288367533E0,-2.313193083E0,-8.700159788E-1,-2.364692926E0,3.420462349E0
1.293289766E0,-3.571767092E0,-4.961382866E0,-3.081480026E0,6.846046980E0
1.298211920E0,-4.623156071E0,-1.005104256E1,-2.480846882E0,1.133806111E1
1.303134060E0,-4.729934216E0,-1.611887550E1,7.646909952E-1,1.681592036E1
1.308056442E0,-3.295341015E0,-2.303918457E1,8.266219139E0,2.469805006E1
1.312978353E0,-4.355300069E-1,-3.123996735E1,1.422787952E1,3.433012965E1
1.317900505E0,3.879709959E0,-3.977861023E1,1.275954723E1,4.195469016E1
1.322822899E0,6.217445850E0,-4.509038544E1,2.466597080E0,4.558380845E1
1.327745055E0,6.818401814E0,-4.629362869E1,-1.355390739E1,4.871651739E1
1.332667275E0,5.552009106E0,-4.491999817E1,-2.464202309E1,5.153503995E1
1.337589659E0,-3.767659962E-1,-3.830681610E1,-2.013767052E1,4.327909295E1
1.342511815E0,-6.500189781E0,-2.921098328E1,-6.696463108E0,3.066556097E1
1.347434029E0,-1.022087765E1,-2.196777534E1,4.692152977E0,2.467925836E1
1.352356185E0,-1.052552700E1,-1.808125687E1,1.032654476E1,2.333144006E1
1.357278567E0,-8.194500923E0,-1.705402946E1,9.682247162E0,2.125407435E1
1.362200805E0,-5.554463863E0,-1.788529205E1,5.785791874E0,1.960130425E1
1.367122959E0,-3.177050114E0,-1.865306473E1,1.653375983E0,1.899379170E1
1.372045342E0,-1.658939004E0,-1.815460205E1,6.452339888E-1,1.824165511E1
1.376967473E0,-2.843709886E-1,-1.716982651E1,1.198304057E0,1.721394033E1
1.381889627E0,8.446959853E-1,-1.626095200E1,2.081087112E0,1.641532804E1
1.386811846E0,1.322039008E0,-1.538024902E1,1.946429968E0,1.555919139E1
1.391734002E0,8.720480204E-1,-1.392885017E1,8.199719787E-1,1.398018916E1
1.396656156E0,9.602499753E-2,-1.225610256E1,-5.809000228E-3,1.225648010E1
1.401578543E0,-4.340510070E-1,-1.078314877E1,-3.830290139E-1,1.079867625E1
1.406500699E0,-9.672099948E-1,-9.698966980E0,-5.627729893E-1,9.763307282E0
1.411422928E0,-1.347182989E0,-8.747327805E0,-4.359560013E-1,8.861190855E0
1.416345308E0,-1.549296021E0,-7.791738033E0,-5.383000150E-2,7.944457024E0
1.421267540E0,-1.807667017E0,-6.604895115E0,4.831379950E-1,6.864817685E0
1.426189694E0,-1.887120962E0,-5.290209770E0,9.519709945E-1,5.696823125E0
1.431112087E0,-1.607318997E0,-3.998790026E0,1.416051030E0,4.536407891E0
1.436034243E0,-1.364045024E0,-2.711801052E0,1.606281996E0,3.434330448E0
1.440956387E0,-1.023877978E0,-1.415217042E0,1.644214034E0,2.398875816E0
1.445878540E0,-4.725340009E-1,-1.188810021E-1,1.466845989E0,1.545657863E0
1.450800759E0,1.558600068E-1,1.112334013E0,1.271965027E0,1.696901390E0
1.455722915E0,8.567680120E-1,2.294946909E0,1.046903968E0,2.663989613E0
1.460645313E0,1.626232028E0,3.335344076E0,9.226220250E-1,3.823660827E0
1.465567469E0,2.280982971E0,4.183041096E0,6.443269849E-1,4.807896982E0
1.470489622E0,2.594553947E0,5.134810925E0,2.174309939E-1,5.757192862E0
1.475411860E0,2.765994072E0,5.982324123E0,-3.934400156E-2,6.590938710E0
1.480334245E0,2.737683058E0,6.783034801E0,-2.711470127E-1,7.319698788E0
1.485256478E0,2.595547915E0,7.386153221E0,-4.388970137E-1,7.841221778E0
1.490178865E0,2.178693056E0,8.112602234E0,-6.058319807E-1,8.421879293E0
1.495101021E0,1.854810953E0,8.716000557E0,-6.968820095E-1,8.938379826E0
1.500023250E0,1.606155038E0,9.397745132E0,-5.840880275E-1,9.551884966E0
1.504945329E0,1.416435003E0,1.009570885E1,-3.591459990E-1,1.020091227E1
1.509867558E0,9.552000165E-1,1.087948799E1,-2.361820042E-1,1.092389344E1
1.514789727E0,4.731900096E-1,1.134983444E1,-2.264029980E-1,1.136195005E1
1.519712110E0,1.600479931E-1,1.150727558E1,-3.091169894E-1,1.151253925E1
1.524634035E0,2.297199965E-1,1.152468681E1,-3.872179985E-1,1.153347802E1
1.529556505E0,6.338199973E-1,1.154366970E1,-5.735039711E-1,1.157527299E1
1.534478661E0,1.348474979E0,1.157163334E1,-1.073868990E0,1.169932808E1
1.539400814E0,2.003328085E0,1.165162945E1,-1.647158980E0,1.193678872E1
1.544322982E0,2.364234924E0,1.158615208E1,-2.066302061E0,1.200408809E1
1.549245442E0,2.647053957E0,1.167026424E1,-2.468210936E0,1.221859351E1
1.554167598E0,2.795222998E0,1.191928864E1,-2.586503983E0,1.251290198E1
1.559089966E0,2.808645964E0,1.217164993E1,-2.890047073E0,1.282146350E1
1.564012122E0,3.161047935E0,1.191289997E1,-3.606448889E0,1.284195793E1
1.568934351E0,3.678551912E0,1.132223606E1,-4.278869152E0,1.265043457E1
1.573856473E0,4.031667233E0,1.072902203E1,-4.934640884E0,1.247865918E1
1.578778627E0,4.224579811E0,1.027637577E1,-5.098487854E0,1.222479251E1
1.583700781E0,4.062810898E0,9.955533981E0,-4.690670967E0,1.173121832E1
1.588623178E0,3.861450911E0,9.776537895E0,-4.002513885E0,1.124773816E1
1.593545334E0,3.647763014E0,9.868833542E0,-3.340315104E0,1.103892003E1
1.598467794E0,3.258085012E0,1.013190174E1,-2.562011957E0,1.094689253E1
1.603389978E0,2.922463894E0,1.033414364E1,-1.681463957E0,1.087026407E1
1.608312209E0,2.544770956E0,1.044297314E1,-6.256769896E-1,1.076675526E1
1.613234363E0,2.028055906E0,1.067732143E1,4.289050102E-1,1.087667979E1
1.618156760E0,1.477309942E0,1.085157394E1,1.466477990E0,1.104941896E1
1.623078916E0,8.905199766E-1,1.094525623E1,2.327156067E0,1.122529800E1
1.628001144E0,2.678790092E-1,1.093575478E1,3.021219969E0,1.134857973E1
1.632923218E0,-4.304569960E-1,1.067042446E1,3.473321915E0,1.122974695E1
1.637845447E0,-6.912630200E-1,1.044541740E1,3.773557901E0,1.112763805E1
1.642767608E0,-7.450450063E-1,1.015307903E1,3.969367981E0,1.092684712E1
1.647689991E0,-6.047909856E-1,9.848608971E0,4.206229210E0,1.072628710E1
1.652612159E0,-4.312790036E-1,9.584736824E0,4.397666931E0,1.055427193E1
1.657534388E0,-3.230449855E-1,9.442936897E0,4.490717888E0,1.046135567E1
1.662456544E0,-1.517000049E-1,9.310839653E0,4.391320229E0,1.029555444E1
1.667378946E0,-1.015089974E-1,9.286676407E0,4.211655140E0,1.019758313E1
1.672301102E0,-1.464329958E-1,9.320215225E0,4.071315765E0,1.017169929E1
1.677223561E0,-1.686609983E-1,9.401864052E0,3.876005888E0,1.017088570E1
1.682145717E0,-2.184070051E-1,9.435195923E0,3.680257082E0,1.012990207E1
1.687067948E0,-2.023199946E-1,9.446741104E0,3.490745068E0,1.007309049E1
1.691990102E0,-1.394210011E-1,9.446229935E0,3.316759109E0,1.001257156E1
1.696912236E0,-1.269700006E-2,9.445839882E0,3.085845947E0,9.937127226E0
1.701834390E0,1.477659941E-1,9.335681915E0,2.890949011E0,9.774168906E0
1.706756516E0,2.503710091E-1,9.287871361E0,2.764213085E0,9.693715182E0
1.711678899E0,2.895259857E-1,9.280492783E0,2.625154018E0,9.648979490E0
1.716601132E0,3.069440126E-1,9.083024979E0,2.359217882E0,9.389433764E0
1.721523304E0,3.152790070E-1,8.774494171E0,1.779675007E0,8.958704814E0
1.726445687E0,3.721129894E-1,8.488956451E0,1.395432949E0,8.610928105E0
1.731367847E0,4.101479948E-1,8.302618027E0,1.252967954E0,8.406641194E0
1.736290076E0,2.248110026E-1,8.217305183E0,1.113523960E0,8.295455387E0
1.741212460E0,-8.938500285E-2,8.025428772E0,5.270280242E-1,8.043211746E0
1.746134616E0,-4.730199873E-1,7.478834152E0,-8.930289745E-1,7.546801239E0
1.751056770E0,-7.447140217E-1,6.446216106E0,-2.836252928E0,7.081852281E0
1.755978999E0,-9.003530145E-1,4.925968170E0,-5.311347961E0,7.299740758E0
1.760901151E0,-1.021989942E0,3.284008980E0,-7.103497028E0,7.892328456E0
1.765823305E0,-1.843819976E0,1.416684031E0,-6.973877907E0,7.351301844E0
1.770745467E0,-3.536377907E0,-1.714697957E0,-7.853207111E0,8.781743547E0
1.775667850E0,-5.283652782E0,-6.328701019E0,-4.552355766E0,9.417716620E0
1.780590006E0,-5.898537159E0,-1.088483334E1,4.247127056E0,1.308856087E1
1.785512269E0,-5.299008846E0,-1.734568024E1,1.529178238E1,2.372321070E1
1.790434425E0,-3.128559113E0,-2.778314209E1,2.202982140E1,3.559499821E1
1.795356807E0,1.460360050E0,-4.129799652E1,1.660404015E1,4.453483263E1
1.800279040E0,6.969399929E0,-5.393671417E1,-1.041542053E0,5.439509611E1
1.805201423E0,9.501380920E0,-5.868547058E1,-1.729375648E1,6.191392985E1
1.810123578E0,4.087734222E0,-5.343812561E1,-2.040056038E1,5.734566857E1
1.815045792E0,-5.407630920E0,-4.053090668E1,-1.096385002E1,4.233441715E1
1.819967948E0,-1.039875126E1,-2.794142914E1,-6.820170283E-1,2.982151299E1
1.824890083E0,-1.071769619E1,-1.884466171E1,5.710361958E0,2.241870916E1
1.829812237E0,-1.033345509E1,-1.373545170E1,5.335295200E0,1.799745266E1
1.834734595E0,-9.494297981E0,-1.338623238E1,1.217970967E0,1.645649916E1
1.839656751E0,-8.408672333E0,-1.407357883E1,-1.791164994E0,1.649180595E1
1.844578985E0,-5.577700138E0,-1.680195236E1,-6.604030132E-1,1.771588197E1
1.849501141E0,-2.278731108E0,-1.965680695E1,2.100228071E0,1.989958876E1
1.854423524E0,-2.523280084E-1,-1.974323845E1,3.332897902E0,2.002416895E1
1.859345664E0,1.244027972E0,-1.866894531E1,4.122259140E0,1.915907475E1
1.864267893E0,2.033915997E0,-1.709300232E1,2.755342960E0,1.743271228E1
1.869190278E0,2.091706038E0,-1.514844227E1,1.967628002E0,1.541823911E1
1.874112506E0,1.343003035E0,-1.291928101E1,7.038120031E-1,1.300795258E1
1.879034659E0,8.995829821E-1,-1.159105587E1,2.271170020E-1,1.162813002E1
1.883957042E0,6.506209970E-1,-1.080578423E1,1.299960017E-1,1.082613409E1
1.888879194E0,5.687270164E-1,-9.934000969E0,4.131880105E-1,9.958842804E0
1.893801348E0,6.700279713E-1,-8.925708771E0,8.071659803E-1,8.987142564E0
1.898723502E0,1.387101054E0,-7.766798973E0,1.147624016E0,7.972719517E0
1.903645730E0,2.135689020E0,-6.672995090E0,1.198022008E0,7.108114222E0
1.908568115E0,2.496771097E0,-5.807359219E0,8.726459742E-1,6.381284980E0
1.913490348E0,2.327984095E0,-4.782090187E0,1.352439970E-1,5.320355951E0
1.918412545E0,2.019809961E0,-3.525178909E0,-5.347390175E-1,4.097860959E0
1.923334699E0,1.711024046E0,-2.105808020E0,-8.829050064E-1,2.853340490E0
1.928256818E0,1.480759025E0,-5.741170049E-1,-6.846989989E-1,1.729471117E0
1.933179201E0,1.260316968E0,9.357939959E-1,-3.890239894E-1,1.617234963E0
1.938101434E0,1.295047998E0,2.289829016E0,1.764900051E-2,2.630737107E0
1.943023574E0,1.446045041E0,3.444747925E0,5.062479973E-1,3.770095697E0
1.947945956E0,1.507665992E0,4.515333176E0,7.607089877E-1,4.820785060E0
1.952868107E0,1.805613041E0,5.365080833E0,1.190044999E0,5.784508441E0
1.957790261E0,1.682229996E0,6.199813843E0,1.250689983E0,6.544601965E0
1.962712420E0,1.140110970E0,7.081871986E0,1.068500042E0,7.252203541E0
1.967634649E0,6.310049891E-1,7.901401043E0,9.340159893E-1,7.981396595E0
1.972556805E0,3.500359952E-1,8.622882843E0,9.272599816E-1,8.679656952E0
1.977479192E0,1.667550057E-1,9.119831085E0,1.018622994E0,9.178056388E0
1.982401348E0,1.664949954E-1,9.445316315E0,9.106140137E-1,9.490571044E0
1.987323577E0,3.873769939E-1,9.526147842E0,8.510689735E-1,9.571931469E0
1.992245733E0,6.226909757E-1,9.718376160E0,5.512920022E-1,9.753896765E0
1.997168115E0,7.557280064E-1,1.001826096E1,2.523329854E-1,1.004989300E1
2.002090348E0,9.853749871E-1,1.025975800E1,-3.540100157E-2,1.030702921E1
2.007012711E0,1.263929963E0,1.048727894E1,-3.934389949E-1,1.057049349E1
2.011934867E0,1.464810967E0,1.073241234E1,-7.874090075E-1,1.086049533E1
2.016857020E0,1.556895018E0,1.101480484E1,-1.252691984E0,1.119460071E1
2.021779174E0,1.697136045E0,1.144087791E1,-1.637163997E0,1.168136397E1
2.026701403E0,1.816014051E0,1.207636642E1,-2.003685951E0,1.237543092E1
2.031623559E0,2.009136915E0,1.262648201E1,-2.511475086E0,1.302966562E1
2.036545757E0,2.299823999E0,1.298794556E1,-2.964175940E0,1.351895925E1
2.041468139E0,2.740931034E0,1.303847504E1,-3.626831055E0,1.380827425E1
2.046390372E0,3.403959036E0,1.272494221E1,-4.502716064E0,1.392068760E1
2.051312517E0,4.098845959E0,1.219321346E1,-4.971465111E0,1.379095566E1
2.056234671E0,4.599986076E0,1.170169544E1,-4.864093781E0,1.348143006E1
2.061157130E0,4.875248909E0,1.129818535E1,-4.311345100E0,1.303858661E1
2.066079300E0,4.873157024E0,1.114539337E1,-3.579152107E0,1.267981792E1
2.071001683E0,4.672943115E0,1.117261410E1,-2.716876030E0,1.241149139E1
2.075923839E0,4.283079147E0,1.133008862E1,-1.769884944E0,1.224124862E1
2.080845983E0,3.999115944E0,1.144654655E1,-8.052589893E-1,1.215174055E1
2.085768211E0,3.774823904E0,1.143689346E1,1.123140007E-1,1.204427009E1
2.090690372E0,3.538134098E0,1.133496094E1,8.808509707E-1,1.190695724E1
2.095612526E0,3.159324884E0,1.127849483E1,1.378733039E0,1.179350178E1
2.100534685E0,2.615520954E0,1.144821072E1,1.823693991E0,1.188395297E1
2.105457145E0,2.079334021E0,1.152798080E1,2.195524931E0,1.191798226E1
2.110379300E0,1.596812010E0,1.149857330E1,2.440839052E0,1.186274386E1
2.115301439E0,1.218641043E0,1.136477375E1,2.530563116E0,1.170670398E1
2.120223822E0,9.614160061E-1,1.107472897E1,2.622225046E0,1.142147130E1
2.125146055E0,9.219959974E-1,1.081867218E1,2.641459942E0,1.117457180E1
2.130068256E0,9.140899777E-1,1.057926846E1,2.614850044E0,1.093590062E1
2.134990639E0,8.559030294E-1,1.042361259E1,2.587822914E0,1.077409379E1
2.139912795E0,7.421330214E-1,1.032309723E1,2.648582935E0,1.068326211E1
2.144835029E0,8.276609778E-1,1.000499153E1,2.734592915E0,1.040494482E1
2.149757108E0,9.901700020E-1,9.569894791E0,2.709397078E0,9.995206624E0
2.154679336E0,1.010208964E0,9.297808647E0,2.590007067E0,9.704530097E0
2.159601502E0,9.938889742E-1,9.005442619E0,2.308919907E0,9.349701771E0
2.164523962E0,9.508990049E-1,8.756835938E0,2.053642988E0,9.044547201E0
2.169446118E0,8.502929807E-1,8.525131226E0,1.831747055E0,8.761059173E0
2.174368276E0,7.742199898E-1,8.260725021E0,1.614794016E0,8.452606355E0
2.179290429E0,6.868829727E-1,7.913394928E0,1.315008044E0,8.051265345E0
2.184212812E0,6.343719959E-1,7.438288212E0,9.060950279E-1,7.520077629E0
2.189135031E0,7.615519762E-1,6.896318913E0,3.667860031E-1,6.947928319E0
2.194057185E0,1.068719029E0,6.321691990E0,-2.235819995E-1,6.415289463E0
2.198979567E0,1.487465024E0,5.925324917E0,-6.686670184E-1,6.145660514E0
2.203901718E0,1.929604053E0,5.936929226E0,-8.549259901E-1,6.300904609E0
2.208823947E0,2.361337900E0,5.949772835E0,-8.079789877E-1,6.452018561E0
2.213746127E0,2.717710972E0,5.785956860E0,-7.524449825E-1,6.436569207E0
2.218668281E0,2.804451942E0,5.581511021E0,-5.597149730E-1,6.271482825E0
2.223590740E0,2.382518053E0,5.393869877E0,1.308909953E-1,5.898080787E0
2.228512910E0,1.486719012E0,5.151113987E0,8.514450192E-1,5.428560339E0
2.233435293E0,3.450079858E-1,4.656766891E0,7.232369781E-1,4.725206886E0
2.238357228E0,-8.183699846E-1,3.616419077E0,-6.397969723E-1,3.762652859E0
2.243279610E0,-1.906098008E0,2.207770109E0,-3.679193974E0,4.695096034E0
2.248201766E0,-3.039849043E0,9.498749971E-1,-4.897144794E0,5.841658314E0
2.253124206E0,-4.466083050E0,-6.088250279E-1,-1.067584991E0,4.632094930E0
2.258046362E0,-5.249505043E0,-3.094944000E0,2.429672956E0,6.560433845E0
2.262968516E0,-5.035467148E0,-6.798054218E0,2.104432106E0,8.717689203E0
2.267890645E0,-3.226759911E0,-1.261953354E1,-4.716860056E-1,1.303407434E1
2.272812799E0,1.884900033E-2,-1.832729149E1,2.985200882E0,1.856882853E1
2.277734938E0,2.900333881E0,-2.413434219E1,1.353430653E1,2.782185944E1
2.282657398E0,4.468813896E0,-2.984243393E1,1.695979691E1,3.461467711E1
2.287579323E0,6.413743019E0,-3.623682785E1,1.099218845E1,3.840666608E1
2.292501724E0,7.779409885E0,-4.295847321E1,-5.797305107E0,4.404041763E1
2.297423957E0,6.680295944E0,-4.890587616E1,-2.143881226E1,5.381480974E1
2.302346111E0,2.973673105E0,-5.218638611E1,-2.484666252E1,5.787588673E1
2.307268494E0,-3.685019016E0,-4.839663696E1,-1.592654705E1,5.108295934E1
2.312190650E0,-1.007820702E1,-3.603954315E1,-4.968608856E0,3.775057617E1
2.317112878E0,-1.201366138E1,-2.457624435E1,5.106538773E0,2.782798204E1
2.322035259E0,-1.109724140E1,-1.773031616E1,1.089919376E1,2.358612521E1
2.326957415E0,-9.233302116E0,-1.473649406E1,9.480519295E0,1.980652346E1
2.331879644E0,-5.233395100E0,-1.434667778E1,7.035703182E0,1.681418172E1
2.336801723E0,-1.508640051E-1,-1.658839989E1,5.168540001E0,1.737560291E1
2.341723951E0,2.428538084E0,-1.684161377E1,4.670001030E0,1.764501803E1
2.346646308E0,2.928776979E0,-1.569313908E1,2.993738890E0,1.624237733E1
2.351568464E0,2.157541990E0,-1.393935204E1,1.603955984E0,1.419623885E1
2.356490631E0,6.470749974E-1,-1.227773952E1,4.775359929E-1,1.230404952E1
2.361412859E0,-7.630869746E-1,-1.068248940E1,-7.281500101E-1,1.073443449E1
2.366335015E0,-1.591310024E0,-9.466931343E0,-1.246884942E0,9.680381124E0
2.371257388E0,-2.149157047E0,-8.472976685E0,-9.713100195E-1,8.795092556E0
2.376179544E0,-2.648907900E0,-7.130770206E0,-1.169699989E-2,7.606887249E0
2.381102003E0,-3.149859905E0,-5.995921135E0,1.087203979E0,6.859642860E0
2.386024159E0,-3.072026968E0,-4.738327026E0,2.150789022E0,6.042763120E0
2.390946390E0,-2.538311958E0,-3.228905916E0,2.630193949E0,4.877169386E0
2.395868544E0,-1.332885027E0,-2.260241032E0,2.722033024E0,3.780837976E0
2.400790698E0,-1.790989935E-1,-1.169445038E0,2.233346939E0,2.527353694E0
2.405713080E0,6.162530184E-1,-2.154520005E-1,1.454624057E0,1.594402237E0
2.410635236E0,1.070729971E0,9.678379893E-1,2.329329997E-1,1.461995495E0
2.415557390E0,1.356781960E0,2.267887115E0,-8.010010123E-1,2.761480016E0
2.420479619E0,1.502665043E0,3.359072924E0,-1.485772967E0,3.968487678E0
2.425401771E0,1.435781002E0,4.231751919E0,-1.561082006E0,4.733515439E0
2.430324153E0,1.369984031E0,4.952861786E0,-1.353880048E0,5.314196769E0
2.435246309E0,1.385332942E0,5.709031105E0,-9.123759866E-1,5.945133595E0
2.440168467E0,1.176833987E0,6.603102207E0,-6.381779909E-1,6.737445224E0
2.445090927E0,9.110190272E-1,7.378949165E0,-2.940460145E-1,7.440786888E0
2.450013082E0,7.230939865E-1,8.027222633E0,3.664800152E-2,8.059808385E0
2.454935294E0,8.750180006E-1,8.639296532E0,3.682239950E-1,8.691299671E0
2.459857449E0,1.217318058E0,9.174908638E0,6.876919866E-1,9.280826043E0
2.464779603E0,1.502904058E0,9.600910187E0,9.909330010E-1,9.768221191E0
2.469701742E0,1.711227059E0,1.005156136E1,1.206908941E0,1.026736641E1
2.474624124E0,1.757212043E0,1.046954918E1,1.080755949E0,1.067086161E1
2.479546313E0,1.896662951E0,1.084563160E1,7.400869727E-1,1.103507063E1
2.484468467E0,2.253829956E0,1.107230282E1,3.119930029E-1,1.130367103E1
2.489390706E0,2.597719908E0,1.137210274E1,-2.685190141E-1,1.166811775E1
2.494312862E0,2.707248926E0,1.162502956E1,-8.136659861E-1,1.196380213E1
2.499235321E0,2.722141027E0,1.191466331E1,-1.492300034E0,1.231244139E1
2.504157701E0,2.595102072E0,1.222402191E1,-2.177146912E0,1.268468506E1
2.509079857E0,2.520056009E0,1.254339027E1,-2.798657894E0,1.309655710E1
2.514002011E0,2.559137106E0,1.281041336E1,-3.418713093E0,1.350346150E1
2.518924239E0,2.647521019E0,1.293163681E1,-3.859827042E0,1.375263113E1
2.523846395E0,2.837888002E0,1.291895390E1,-4.147643089E0,1.386203164E1
2.528768549E0,3.111746073E0,1.279855919E1,-4.326857090E0,1.386390180E1
2.533690703E0,3.419812918E0,1.256070614E1,-4.286455154E0,1.370547908E1
2.538613086E0,3.677333117E0,1.234647369E1,-4.159503937E0,1.353734333E1
2.543535318E0,3.808578014E0,1.218207836E1,-3.844047070E0,1.332985362E1
2.548457696E0,3.874099970E0,1.202612209E1,-3.305583954E0,1.305998271E1
2.553379621E0,3.884999990E0,1.194092846E1,-2.732331038E0,1.285086107E1
2.558302004E0,3.805645943E0,1.175915623E1,-2.067718029E0,1.253140671E1
2.563224256E0,3.610924006E0,1.153600407E1,-1.417480946E0,1.217076063E1
2.568146409E0,3.280476093E0,1.143009377E1,-5.882710218E-1,1.190607533E1
2.573068792E0,2.944454908E0,1.136347961E1,2.917329967E-1,1.174238442E1
2.577991021E0,2.453195095E0,1.120285416E1,1.145632029E0,1.152538850E1
2.582913175E0,1.584918976E0,1.099055195E1,1.776839972E0,1.124550402E1
2.587835329E0,1.011765003E0,1.078053093E1,2.286343098E0,1.106665624E1
2.592757472E0,5.330169797E-1,1.041961670E1,2.799947977E0,1.080241769E1
2.597679855E0,3.668060005E-1,1.019041634E1,3.189614058E0,1.068422995E1
2.602602011E0,4.547410011E-1,1.001872253E1,3.398601055E0,1.058924359E1
2.607524240E0,6.601369977E-1,9.899749756E0,3.395881891E0,1.048679359E1
2.612446395E0,8.513249755E-1,9.732934952E0,3.348977089E0,1.032813752E1
2.617368807E0,1.079097986E0,9.542222977E0,3.384280920E0,1.018193641E1
2.622290963E0,9.545350075E-1,9.442522049E0,3.483947039E0,1.010990834E1
2.627213117E0,8.645510077E-1,9.225659370E0,3.575788975E0,9.932094747E0
2.632135581E0,7.106639743E-1,9.030445099E0,3.567233086E0,9.735457558E0
2.637057737E0,6.341729760E-1,8.887503624E0,3.315474033E0,9.506958720E0
2.641979967E0,5.623220205E-1,8.782069206E0,3.045259953E0,9.312064958E0
2.646902107E0,5.087929964E-1,8.671125412E0,2.814547062E0,9.130660512E0
2.651824490E0,4.612349868E-1,8.576333046E0,2.628040075E0,8.981804989E0
2.656746631E0,4.530850053E-1,8.445302963E0,2.500144005E0,8.819248733E0
2.661668785E0,4.459609985E-1,8.326013565E0,2.408875942E0,8.678943853E0
2.666590938E0,3.937509954E-1,8.184780121E0,2.333388090E0,8.519997973E0
2.671513167E0,3.001840115E-1,7.939664841E0,2.074708939E0,8.211748011E0
2.676435323E0,2.091819942E-1,7.467287064E0,1.266311049E0,7.576785392E0
2.681357726E0,2.212650031E-1,6.928042889E0,1.879130006E-1,6.934121989E0
2.686279882E0,1.863700002E-1,6.430954933E0,3.009100072E-2,6.433725250E0
2.691202036E0,3.458780050E-1,6.175622940E0,6.321579814E-1,6.217521532E0
2.696124274E0,4.935799912E-2,6.090006828E0,1.163566947E0,6.200363491E0
2.701046735E0,-4.445019960E-1,5.848361015E0,1.133172035E0,5.973691275E0
2.705968891E0,-8.726360202E-1,5.199215889E0,-8.707699925E-2,5.272657953E0
2.710891265E0,-1.184620976E0,4.125953197E0,-2.763778925E0,5.105417769E0
2.715813190E0,-1.453171968E0,2.741498947E0,-6.002469063E0,6.757008221E0
2.720735568E0,-1.900949001E0,1.209231019E0,-7.594884872E0,7.922002461E0
2.725657723E0,-3.237301111E0,-7.819160223E-1,-8.957753181E0,9.556822339E0
2.730579867E0,-5.290894985E0,-4.165608883E0,-1.283299732E1,1.449247002E1
2.735502096E0,-6.720746994E0,-8.512872696E0,-1.316503525E1,1.705742052E1
2.740424252E0,-5.893948078E0,-1.233462524E1,-6.095063210E0,1.496767849E1
2.745346396E0,-3.511132002E0,-1.645340157E1,8.795637131E0,1.898435418E1
2.750268778E0,-6.241840124E-1,-2.344821167E1,2.118053818E1,3.160416798E1
2.755191011E0,2.978848934E0,-3.403125763E1,2.208306885E1,4.067753639E1
2.760113165E0,7.475072861E0,-4.597077179E1,7.806677818E0,4.722428180E1
2.765035548E0,1.165253925E1,-5.489671326E1,-1.238688946E1,5.747056488E1
2.769957780E0,1.128373432E1,-5.784112167E1,-1.945783043E1,6.206065728E1
2.774880154E0,4.551682949E0,-4.969657898E1,-1.897080803E1,5.338875666E1
2.779802310E0,-6.422699928E0,-3.318392563E1,-8.205435753E0,3.478150615E1
2.784724454E0,-1.153960609E1,-2.092882538E1,5.461880207E0,2.451551296E1
2.789646608E0,-1.103612137E1,-1.494045830E1,1.154937363E1,2.187238671E1
2.794568846E0,-9.096561432E0,-1.341437244E1,5.153968811E0,1.700753399E1
2.799491002E0,-5.552381992E0,-1.446648502E1,9.911569953E-1,1.552709010E1
2.804413385E0,-1.909952998E0,-1.541864491E1,-9.614289999E-1,1.556620946E1
2.809335618E0,1.181648016E0,-1.602742767E1,8.234440088E-1,1.609201013E1
2.814257695E0,2.875719070E0,-1.595693302E1,3.249701023E0,1.653644546E1
2.819179908E0,3.337311983E0,-1.541298294E1,3.058892965E0,1.606407547E1
2.824102293E0,2.586865902E0,-1.467275524E1,2.550127029E0,1.511571267E1
2.829024526E0,1.132928014E0,-1.378792191E1,3.807696104E0,1.434882803E1
2.833946680E0,-2.606399953E-1,-1.263953495E1,-1.138759971E0,1.269340582E1
2.838869062E0,-1.727835059E0,-1.179855824E1,-5.802540183E-1,1.193851269E1
2.843790987E0,-2.861033916E0,-1.107161140E1,-1.453260034E-1,1.143622376E1
2.848713380E0,-3.452714920E0,-1.007339954E1,4.512999952E-1,1.065824987E1
2.853635536E0,-3.379658937E0,-9.225571632E0,1.277966022E0,9.907899052E0
2.858557999E0,-2.900309086E0,-8.143078804E0,1.810799003E0,8.831790205E0
2.863480155E0,-2.183634996E0,-6.823925972E0,1.989984035E0,7.436011292E0
2.868402324E0,-1.046378016E0,-5.280419827E0,1.970388055E0,5.732379051E0
2.873324478E0,3.500309885E-1,-3.860042095E0,1.836912990E0,4.289136976E0
2.878246707E0,1.430078030E0,-2.438649893E0,9.445189834E-1,2.980646336E0
2.883169105E0,1.974076986E0,-1.016491055E0,-9.120500088E-2,2.222285393E0
2.888091261E0,2.101255894E0,3.919219971E-1,-7.392449975E-1,2.261716682E0
2.893013490E0,1.820662975E0,1.836706042E0,-1.042883992E0,2.788531832E0
2.897935632E0,1.450374961E0,3.088020086E0,-1.187396049E0,3.612390477E0
2.902858015E0,1.050850034E0,4.167497158E0,-1.176046968E0,4.455940397E0
2.907780170E0,7.690359950E-1,5.080101967E0,-1.109686017E0,5.256448936E0
2.912702333E0,6.206150055E-1,6.003282070E0,-1.321488976E0,6.178259602E0
2.917624562E0,4.019699991E-1,6.956499100E0,-1.592314959E0,7.147721772E0
2.922546718E0,3.034459949E-1,7.897134781E0,-1.593965054E0,8.062105296E0
2.927469101E0,2.311840057E-1,8.782578468E0,-1.525488973E0,8.917076158E0
2.932391256E0,1.442710012E-1,9.534251213E0,-1.211302042E0,9.611972376E0
2.937313495E0,9.161300212E-2,1.013122559E1,-6.865180135E-1,1.015487232E1
2.942235651E0,2.535839975E-1,1.039948559E1,-1.856389940E-1,1.040423314E1
2.947157805E0,5.940729976E-1,1.043059063E1,-3.396999836E-2,1.044754984E1
2.952080293E0,9.607340097E-1,1.051694584E1,-2.438890040E-1,1.056355250E1
2.957002449E0,1.227753997E0,1.063341522E1,-7.336239815E-1,1.072917067E1
2.961924832E0,1.378291965E0,1.079409313E1,-1.339565992E0,1.096387579E1
2.966846978E0,1.544864058E0,1.081649017E1,-1.697144985E0,1.105727660E1
2.971768901E0,1.555791974E0,1.104379463E1,-1.859541059E0,1.130680244E1
2.976691284E0,1.641716003E0,1.144213772E1,-1.976469040E0,1.172707026E1
2.981613439E0,1.962007999E0,1.199798012E1,-2.278666973E0,1.236904707E1
2.986535663E0,2.283812046E0,1.254019928E1,-2.437916994E0,1.297751265E1
2.991458048E0,2.567687988E0,1.281224823E1,-2.774313927E0,1.335827624E1
2.996380204E0,2.803388119E0,1.283282948E1,-3.616462946E0,1.362421746E1
3.001302437E0,3.089163065E0,1.266394234E1,-4.592132092E0,1.382049352E1
3.006224822E0,3.499758005E0,1.238440132E1,-5.440614223E0,1.397218613E1
3.011146978E0,3.966773033E0,1.202523422E1,-5.769425869E0,1.391502142E1
3.016069207E0,4.381596088E0,1.169415188E1,-5.426282883E0,1.361602432E1
3.020991363E0,4.675693035E0,1.135196877E1,-4.468026161E0,1.306493620E1
3.025913516E0,4.789182186E0,1.106657600E1,-3.286197901E0,1.249817855E1
3.030835899E0,4.741862774E0,1.089592648E1,-2.015887022E0,1.205281199E1
3.035758055E0,4.578990936E0,1.086203003E1,-7.624970078E-1,1.181237724E1
3.040680190E0,4.322309971E0,1.086205673E1,3.465290070E-1,1.169558559E1
3.045602419E0,4.001739025E0,1.080261421E1,1.352679014E0,1.159914348E1
3.050524574E0,3.662733078E0,1.074055767E1,2.079294920E0,1.153683926E1
3.055446723E0,3.351797104E0,1.064514732E1,2.593697071E0,1.145779079E1
3.060369106E0,2.879756927E0,1.059471035E1,2.800224066E0,1.133058437E1
3.065291349E0,2.176211119E0,1.054145527E1,2.866202116E0,1.113881899E1
3.070213503E0,1.527070999E0,1.044958210E1,2.827399015E0,1.093251559E1
3.075135885E0,1.034026027E0,1.033357620E1,2.719342947E0,1.073530777E1
3.080058060E0,7.677099705E-1,1.018159676E1,2.484263897E0,1.050837086E1
3.084980289E0,7.916219831E-1,9.967462540E0,2.202892065E0,1.023863801E1
3.089902673E0,8.755260110E-1,9.796644211E0,2.054022074E0,1.004787491E1
3.094824799E0,9.115480185E-1,9.700316429E0,1.982324958E0,9.942669202E0
3.099746953E0,9.331730008E-1,9.618617058E0,1.944939971E0,9.857555348E0
3.104669107E0,9.211840034E-1,9.570692062E0,1.870211005E0,9.795122037E0
3.109591336E0,9.493600130E-1,9.451183319E0,1.768177032E0,9.661914954E0
3.114513492E0,1.017786026E0,9.267172813E0,1.692199945E0,9.475226699E0
3.119435874E0,1.046203971E0,9.158239365E0,1.621196032E0,9.359282429E0
3.124358107E0,1.060971975E0,9.024185181E0,1.591395020E0,9.224647300E0
3.129280246E0,1.050987959E0,8.735457420E0,1.622746944E0,8.946848589E0
3.134202629E0,9.031400084E-1,8.420980453E0,1.582718968E0,8.615890726E0
3.139124789E0,7.831429839E-1,8.095092773E0,1.460767031E0,8.263030937E0
3.144047018E0,8.771470189E-1,7.801430225E0,1.295374036E0,7.956738927E0
3.148969174E0,1.049350977E0,7.669483185E0,1.113342047E0,7.820590790E0
3.153891538E0,1.357262969E0,7.526625156E0,8.836640120E-1,7.698903240E0
3.158813693E0,1.563097000E0,7.363030910E0,6.187719703E-1,7.552507873E0
3.163735847E0,1.601585984E0,7.241543770E0,5.128319860E-1,7.434247136E0
3.168658057E0,1.473078966E0,7.134190083E0,5.954660177E-1,7.308981431E0
3.173580442E0,1.062955022E0,7.097640991E0,9.471819997E-1,7.239028578E0
3.178502598E0,3.937810063E-1,7.068511009E0,1.290575027E0,7.196144473E0
3.183424831E0,-2.514660060E-1,7.041962147E0,1.276641965E0,7.161164761E0
3.188346910E0,-7.148740292E-1,6.797389984E0,7.667890191E-1,6.877755511E0
3.193269139E0,-1.262505054E0,6.534493923E0,-6.504150033E-1,6.687044902E0
3.198191552E0,-1.707275033E0,6.012888908E0,-2.754478931E0,6.830576494E0
3.203113785E0,-2.060995102E0,5.127371788E0,-2.643383026E0,6.125774734E0
3.208035938E0,-2.327723026E0,3.729305029E0,-1.354506016E0,4.600075764E0
3.212958307E0,-2.356394053E0,1.552026033E0,-3.130331993E0,4.214303753E0
3.217880463E0,-3.451562881E0,-1.992383957E0,-8.258848190E0,9.170139235E0
3.222802673E0,-5.273445129E0,-6.639726162E0,-5.935330868E0,1.035004056E1
3.227724752E0,-6.038698196E0,-1.103981590E1,5.793109894E0,1.385292508E1
3.232646951E0,-5.620345116E0,-1.765061569E1,1.557327843E1,2.420040319E1
3.237569107E0,-3.585510015E0,-2.920602798E1,2.204763794E1,3.676882227E1
3.242491499E0,1.056977034E0,-4.456887817E1,1.396971607E1,4.671889414E1
3.247413655E0,6.552036762E0,-5.851435089E1,-8.514226913E0,5.949244075E1
3.252335883E0,7.435359001E0,-6.322916412E1,-2.235864067E1,6.747681507E1
3.257258034E0,2.161887884E0,-5.817323303E1,-1.933749580E1,6.134115702E1
3.262180417E0,-5.212071896E0,-4.608139038E1,-9.299585342E0,4.729844099E1
3.267102573E0,-9.848641396E0,-3.144128990E1,-2.895790040E-1,3.294896514E1
3.272025013E0,-1.047682762E1,-2.183901215E1,4.310997963E0,2.460266392E1
3.276947169E0,-9.755952835E0,-1.740496063E1,4.048594952E0,2.035933180E1
3.281869400E0,-8.532946587E0,-1.653845787E1,6.692010164E-1,1.862201912E1
3.286791521E0,-5.315101147E0,-1.934223175E1,1.781870961E0,2.013820482E1
3.291713675E0,-2.384776115E0,-1.969765091E1,4.004883766E0,2.024163290E1
3.296635824E0,3.656649888E-1,-1.875625610E1,5.234251976E0,1.947635098E1
3.301557977E0,2.446053982E0,-1.759233284E1,5.161264896E0,1.849627017E1
3.306480355E0,3.303221941E0,-1.633666039E1,3.869843960E0,1.711062360E1
3.311402511E0,3.235603094E0,-1.486900711E1,1.585325956E0,1.529933849E1
3.316324655E0,2.242394924E0,-1.315312767E1,-4.616079926E-1,1.335088703E1
3.321246884E0,1.135223985E0,-1.145409775E1,-1.931674957E0,1.167118061E1
3.326169268E0,6.153900176E-2,-1.013363743E1,-2.090117931E0,1.034712460E1
3.331091443E0,-1.111088991E0,-8.967169762E0,-1.229092002E0,9.118953856E0
3.336013903E0,-2.101232052E0,-8.015230179E0,1.453749985E-1,8.287353308E0
3.340936058E0,-2.876133919E0,-6.921788216E0,1.164517045E0,7.585472851E0
3.345858285E0,-3.328263044E0,-5.641823769E0,1.837370992E0,6.803193551E0
3.350780439E0,-3.533937931E0,-4.364712238E0,2.243753910E0,6.047632746E0
3.355702593E0,-3.458792925E0,-2.939672947E0,2.290230989E0,5.084297741E0
3.360624737E0,-2.997898102E0,-1.464949965E0,2.070697069E0,3.926990932E0
3.365547119E0,-2.265575886E0,2.339700051E-2,1.703719020E0,2.834791000E0
3.370469275E0,-1.327556014E0,1.355160952E0,1.536067963E0,2.440977460E0
3.375391463E0,-6.758790016E-1,2.508583069E0,1.418954015E0,2.960275652E0
3.380313692E0,1.710519940E-1,3.548151970E0,1.004888058E0,3.691671870E0
3.385235848E0,6.846140027E-1,4.509740829E0,6.610710025E-1,4.609064282E0
3.390158244E0,6.948649883E-1,5.412512779E0,9.358400106E-2,5.457736701E0
3.395080400E0,3.613609970E-1,6.230222225E0,-4.221540093E-1,6.254955216E0
3.400002841E0,-9.949400276E-2,6.963040829E0,-1.173650980E0,7.061961007E0
3.404924997E0,-3.141950071E-1,7.625634193E0,-1.249783039E0,7.733755427E0
3.409847227E0,-3.659279943E-1,8.132059097E0,-9.539470077E-1,8.195993128E0
3.414769366E0,-5.379980206E-1,8.604632378E0,-5.789819956E-1,8.640854146E0
3.419691520E0,-3.432860076E-1,9.019721985E0,9.197200090E-2,9.026720823E0
3.424613908E0,9.455800056E-2,9.317848206E0,6.778590083E-1,9.342950778E0
3.429535833E0,6.433219910E-1,9.666934013E0,1.000242949E0,9.739813261E0
3.434458240E0,1.349087954E0,1.007920074E1,1.072528005E0,1.022548983E1
3.439380472E0,2.054455996E0,1.060454845E1,6.865969896E-1,1.082352312E1
3.444302626E0,2.622029066E0,1.110564613E1,5.458400026E-2,1.141110827E1
3.449225019E0,2.761472940E0,1.152111912E1,-6.408510208E-1,1.186476332E1
3.454147175E0,2.587223053E0,1.167318153E1,-1.425968051E0,1.204119077E1
3.459069412E0,2.517544031E0,1.200153828E1,-2.349107981E0,1.248572214E1
3.463991797E0,2.447882891E0,1.228070831E1,-3.111105919E0,1.290298056E1
3.468913953E0,2.446156025E0,1.263740921E1,-3.549141884E0,1.335231062E1
3.473836177E0,2.365540028E0,1.294936752E1,-3.690994978E0,1.367133288E1
3.478758333E0,2.385379076E0,1.317825317E1,-3.741417885E0,1.390520039E1
3.483680486E0,2.447197914E0,1.329043293E1,-3.756416082E0,1.402622711E1
3.488602879E0,2.583538055E0,1.336014557E1,-3.659856081E0,1.409122795E1
3.493525112E0,2.717035055E0,1.324142838E1,-3.296272039E0,1.391341490E1
3.498447286E0,2.907881021E0,1.292727566E1,-2.713653088E0,1.352531482E1
3.503369440E0,3.101497889E0,1.242035675E1,-1.898704052E0,1.294177840E1
3.508291593E0,3.166814089E0,1.194099617E1,-1.161051989E0,1.240822883E1
3.513214058E0,3.097851992E0,1.149878025E1,-5.361340046E-1,1.192082522E1
3.518136214E0,2.879220009E0,1.123528194E1,6.382799894E-2,1.159851466E1
3.523058610E0,2.578939915E0,1.112922382E1,5.866850019E-1,1.143917625E1
3.527980766E0,2.262185097E0,1.094382095E1,1.035236955E0,1.122303052E1
3.532902995E0,1.944486976E0,1.076523018E1,1.354611993E0,1.102298435E1
3.537825151E0,1.543794036E0,1.065792084E1,1.536617994E0,1.087822465E1
3.542747305E0,9.762279987E-1,1.063408089E1,1.661661029E0,1.080730377E1
3.547669459E0,4.272310138E-1,1.059041595E1,1.815333009E0,1.075336554E1
3.552591822E0,-9.618899971E-2,1.052295876E1,2.007236958E0,1.071311876E1
3.557514055E0,-5.083299875E-1,1.039591122E1,2.380068064E0,1.067698897E1
3.562436223E0,-7.170820236E-1,1.026656437E1,2.862445116E0,1.068223491E1
3.567358377E0,-8.195620179E-1,1.015860653E1,3.093602896E0,1.065079093E1
3.572280531E0,-7.620549798E-1,9.947531700E0,3.204582930E0,1.047871492E1
3.577202986E0,-6.791980267E-1,9.631001472E0,3.343244076E0,1.021737639E1
3.582125142E0,-6.545010209E-1,9.326462746E0,3.547452927E0,9.999785058E0
3.587047296E0,-7.859789729E-1,9.175232887E0,3.702168941E0,9.925155734E0
3.591969664E0,-9.256700277E-1,9.016806602E0,3.812524080E0,9.833361896E0
3.596891896E0,-9.449859858E-1,8.858316422E0,3.816265106E0,9.691576120E0
3.601814050E0,-9.949929714E-1,8.680622101E0,3.864108086E0,9.553771107E0
3.606736409E0,-1.073683023E0,8.495738029E0,3.948591948E0,9.429832356E0
3.611658334E0,-1.112462997E0,8.403592110E0,3.868237019E0,9.317789003E0
3.616580793E0,-1.120622039E0,8.298797607E0,3.754967928E0,9.177451695E0
3.621502872E0,-1.080775976E0,8.241047859E0,3.592092991E0,9.054616424E0
3.626425101E0,-1.056712031E0,8.112736702E0,3.403122902E0,8.860834193E0
3.631347257E0,-1.019659042E0,7.975565910E0,3.093106031E0,8.614909232E0
3.636269731E0,-1.015197992E0,7.804778099E0,2.672991991E0,8.312043932E0
3.641191809E0,-9.638230205E-1,7.503279209E0,1.878208995E0,7.794602154E0
3.646114038E0,-8.730630279E-1,7.117520809E0,7.866479754E-1,7.213886370E0
3.651036194E0,-8.072839975E-1,6.684659004E0,-3.050230145E-1,6.740134457E0
3.655958654E0,-9.660999775E-1,6.434330940E0,-5.410490036E-1,6.528912455E0
3.660880810E0,-1.446691036E0,6.302121162E0,-2.470459938E-1,6.470755584E0
3.665802949E0,-2.399063110E0,6.364510059E0,3.675929904E-1,6.811579605E0
3.670725332E0,-3.752866030E0,6.613667965E0,2.767640054E-1,7.609284178E0
3.675647488E0,-4.678726196E0,6.749483109E0,-1.337887049E0,8.320813831E0
3.680569627E0,-5.353418827E0,6.815087795E0,-3.933310986E0,9.517113538E0
3.685491856E0,-5.758907795E0,6.715779781E0,-3.813705921E0,9.633850212E0
3.690414031E0,-5.826607227E0,6.241271019E0,-5.642060041E-1,8.556935440E0
3.695336414E0,-6.370118141E0,5.134273052E0,2.644680142E-1,8.185909127E0
3.700258570E0,-6.476354122E0,2.944062948E0,-2.874291897E0,7.672823683E0
3.705180808E0,-6.396690845E0,1.287170053E-1,-5.017010212E0,8.130474359E0
3.710102963E0,-6.933945179E0,-2.386229038E0,2.685044050E0,7.809170655E0
3.715025117E0,-7.068743229E0,-5.178486824E0,9.648722649E0,1.303386763E1
3.719947485E0,-6.657792091E0,-1.087417984E1,1.428961658E1,1.915116510E1
3.724869718E0,-5.118343830E0,-2.151745415E1,1.596883678E1,2.728006644E1
3.729792100E0,-3.768059909E-1,-3.925366974E1,6.348143101E0,3.976545601E1
3.734714236E0,6.644186020E0,-5.892318726E1,-1.296661854E1,6.069777921E1
3.739636159E0,9.571946144E0,-6.879008484E1,-1.938239670E1,7.210669336E1
3.744558538E0,5.005447865E0,-6.780303955E1,-1.384178352E1,6.938228630E1
3.749480694E0,-4.629732132E0,-5.451177979E1,-8.291563034E0,5.533279834E1
3.754403138E0,-1.126109695E1,-3.586761475E1,3.015564919E0,3.771460889E1
3.759325063E0,-1.128457355E1,-2.173974228E1,8.441762924E0,2.590794002E1
3.764247446E0,-9.241596222E0,-1.603996658E1,6.857316971E0,1.974108469E1
3.769169621E0,-8.566432953E0,-1.605449867E1,3.957402945E0,1.862234516E1
3.774091850E0,-8.127235413E0,-1.680212402E1,2.588342905E0,1.884311137E1
3.779014006E0,-5.576788902E0,-1.764019394E1,3.513526917E0,1.883140696E1
3.783936451E0,-2.001647949E0,-1.822763443E1,4.345228195E0,1.884500622E1
3.788858607E0,3.508560061E-1,-1.785359001E1,4.067028046E0,1.831432481E1
3.793780990E0,1.353039980E0,-1.735240936E1,2.455579996E0,1.757744865E1
3.798703145E0,1.816627026E0,-1.645964813E1,-2.786389887E-1,1.656193799E1
3.803625299E0,1.981572986E0,-1.537223053E1,-1.425184965E0,1.556480823E1
3.808547523E0,1.690757990E0,-1.405824375E1,-1.625848055E0,1.425258790E1
3.813469679E0,1.063235044E0,-1.247193909E1,-9.058939815E-1,1.254991543E1
3.818391833E0,1.846919954E-1,-1.091790199E1,1.161449999E-1,1.092008172E1
3.823314011E0,-8.932710290E-1,-9.357359886E0,7.238389850E-1,9.427728255E0
3.828236470E0,-1.765107989E0,-7.858053207E0,1.098747015E0,8.128459351E0
3.833158626E0,-2.046650887E0,-6.465979099E0,1.577716947E0,6.963250414E0
3.838081038E0,-1.668153048E0,-5.131177902E0,1.976361036E0,5.746105133E0
3.843003194E0,-1.343662977E0,-3.724500895E0,2.129725933E0,4.495894756E0
3.847925422E0,-8.460659981E-1,-2.511914015E0,2.182179928E0,3.433285442E0
3.852847592E0,-4.554489851E-1,-1.249366999E0,1.904713988E0,2.322990971E0
3.857769975E0,-2.149090022E-1,-2.799599990E-2,1.501518011E0,1.517078110E0
3.862692131E0,1.402399968E-2,1.300537944E0,1.279209018E0,1.824272821E0
3.867614285E0,2.334579974E-1,2.635554075E0,1.104161024E0,2.867022757E0
3.872536438E0,6.200349927E-1,3.936193943E0,1.115877032E0,4.138024613E0
3.877458672E0,1.104503989E0,5.034676075E0,8.633750081E-1,5.226213605E0
3.882380828E0,1.411928058E0,6.050653934E0,7.687180042E-1,6.260581542E0
3.887303230E0,1.415508032E0,7.067805767E0,3.376019895E-1,7.216059621E0
3.892225386E0,1.339694977E0,7.856288910E0,1.040690020E-1,7.970375676E0
3.897147614E0,1.216864944E0,8.610030174E0,7.105000317E-2,8.695885694E0
3.902069756E0,9.739180207E-1,9.357747078E0,1.250759959E-1,9.409122738E0
3.906992139E0,4.102180004E-1,1.011388302E1,3.364019990E-1,1.012778726E1
3.911914372E0,-2.466509938E-1,1.072297478E1,6.675119996E-1,1.074656210E1
3.916836744E0,-6.890670061E-1,1.125685978E1,8.972089887E-1,1.131356219E1
3.921758900E0,-9.498900175E-1,1.188811874E1,8.386520147E-1,1.195545882E1
3.926681054E0,-9.341099858E-1,1.238235664E1,6.867300272E-1,1.243651541E1
3.931603194E0,-4.862000048E-1,1.253387737E1,4.093079865E-1,1.254998030E1
3.936525423E0,2.269289941E-1,1.245297146E1,1.791699976E-2,1.245505182E1
3.941447578E0,6.976479888E-1,1.248449230E1,-4.350410104E-1,1.251153553E1
3.946369732E0,9.973930120E-1,1.252793694E1,-9.361400008E-1,1.260239480E1
3.951292115E0,1.096420050E0,1.261693573E1,-1.457831979E0,1.274811665E1
3.956214290E0,1.101027012E0,1.257120228E1,-1.921409011E0,1.276476399E1
3.961136519E0,1.094390035E0,1.264169312E1,-2.414695024E0,1.291668868E1
3.966058674E0,1.145220041E0,1.279931259E1,-2.880459070E0,1.316931950E1
3.970980837E0,1.261852026E0,1.294315338E1,-3.379211903E0,1.343638951E1
3.975903297E0,1.550477982E0,1.286463642E1,-3.708367109E0,1.347793897E1
3.980825681E0,1.859436035E0,1.252522945E1,-3.811264992E0,1.322363853E1
3.985747818E0,2.101150990E0,1.208047009E1,-3.746349096E0,1.282137764E1
3.990670049E0,2.238979101E0,1.170766068E1,-3.464422941E0,1.241308069E1
3.995592126E0,2.267036915E0,1.137829113E1,-3.003890991E0,1.198450360E1
4.000514360E0,2.254933119E0,1.108547783E1,-2.405204058E0,1.156535986E1
4.005436516E0,2.166946888E0,1.080804634E1,-1.672688961E0,1.114932343E1
4.010358888E0,2.025415897E0,1.054898453E1,-7.762950063E-1,1.076968050E1
4.015281044E0,1.979593992E0,1.036457253E1,1.501259953E-1,1.055299454E1
4.020203273E0,1.830463052E0,1.025607300E1,1.014029980E0,1.046737241E1
4.025125434E0,9.902920127E-1,1.023464775E1,1.798051000E0,1.043847116E1
4.030047588E0,2.665520012E-1,1.025593472E1,2.389760971E0,1.053404976E1
4.034969960E0,-3.565360010E-1,1.028461266E1,2.933492899E0,1.070073624E1
4.039892193E0,-8.843449950E-1,1.014801216E1,3.442739010E0,1.075251918E1
4.044814347E0,-1.268530011E0,9.982265472E0,3.882308006E0,1.078550452E1
4.049736711E0,-1.455589056E0,9.799166679E0,4.237821102E0,1.077504222E1
4.054658943E0,-1.477476001E0,9.680029869E0,4.487631798E0,1.077147867E1
4.059581097E0,-1.514425993E0,9.655931473E0,4.729739189E0,1.085821954E1
4.064503222E0,-1.521543026E0,9.590382576E0,4.915894985E0,1.088377483E1
4.069425376E0,-1.429777026E0,9.461849213E0,4.969181061E0,1.078256061E1
4.074347759E0,-1.301679969E0,9.289563179E0,4.862707138E0,1.056580690E1
4.079269914E0,-1.094414949E0,9.033013344E0,4.686449051E0,1.023503194E1
4.084192143E0,-9.730659723E-1,8.836093903E0,4.444312096E0,9.938577506E0
4.089114304E0,-9.496750236E-1,8.684602737E0,4.236188889E0,9.709248357E0
4.094036687E0,-1.026880980E0,8.535537720E0,4.028250217E0,9.494034365E0
4.098958842E0,-1.083395958E0,8.391338348E0,3.762690067E0,9.259921308E0
4.103881071E0,-1.147747993E0,8.257035255E0,3.330418110E0,8.977061961E0
4.108803456E0,-1.173349977E0,8.098480225E0,2.820349932E0,8.655432159E0
4.113725612E0,-1.212599039E0,7.870577812E0,2.136029005E0,8.244938535E0
4.118647851E0,-1.236433029E0,7.600813866E0,1.353188992E0,7.818712074E0
4.123570006E0,-1.054222941E0,7.189085007E0,4.014489949E-1,7.277052325E0
4.128492403E0,-4.135180116E-1,6.701838017E0,-7.508230209E-1,6.756431392E0
4.133414636E0,4.252910018E-1,6.284543991E0,-1.835229993E0,6.560825767E0
4.138336727E0,1.118316054E0,6.026071072E0,-2.582194090E0,6.650705953E0
4.143258956E0,1.421213031E0,5.976499081E0,-2.654791117E0,6.692256989E0
4.148181111E0,1.387617946E0,5.968813896E0,-2.374006033E0,6.571767459E0
4.153103514E0,9.699429870E-1,6.056964874E0,-2.275609970E0,6.542630482E0
4.158025670E0,-5.016599968E-2,6.126399040E0,-2.034410954E0,6.455548757E0
4.162947824E0,-1.565806031E0,5.895080090E0,-1.781362057E0,6.354287416E0
4.167870033E0,-3.413971901E0,5.444249153E0,-1.030581951E0,6.508237253E0
4.172792417E0,-4.712553978E0,5.097509861E0,8.739629984E-1,6.996898106E0
4.177714573E0,-5.575794220E0,4.499330997E0,3.940999031E0,8.177098139E0
4.182636802E0,-5.904404163E0,2.221849918E0,1.586969018E0,6.505157665E0
4.187558881E0,-6.624551773E0,-3.047728062E0,-1.034519958E1,1.265687509E1
4.192481114E0,-7.455156803E0,-8.198456764E0,-1.672384453E1,2.006192992E1
4.197403499E0,-6.688644886E0,-9.847858429E0,9.254779816E-1,1.194046882E1
4.202325665E0,-5.888652802E0,-1.078558254E1,1.755590820E1,2.142930086E1
4.207247894E0,-5.773268223E0,-1.621370888E1,2.888667107E1,3.362520999E1
4.212170050E0,-2.846935987E0,-2.801266861E1,3.031935692E1,4.137726491E1
4.217092217E0,3.653561115E0,-4.480755615E1,1.592153263E1,4.769235577E1
4.222014600E0,9.361471176E0,-6.040349197E1,-1.172844982E1,6.223966196E1
4.226936756E0,9.542501450E0,-6.729402161E1,-2.918007278E1,7.396635266E1
4.231859221E0,6.725900173E-1,-6.026349258E1,-2.400269508E1,6.487118225E1
4.236781376E0,-9.353557587E0,-3.922013092E1,-5.634180069E0,4.071181271E1
4.241703607E0,-1.092298126E1,-2.365255928E1,9.136333466E0,2.760847097E1
4.246625770E0,-1.070897865E1,-1.558746910E1,1.320740509E1,2.306701034E1
4.251547924E0,-1.073328018E1,-1.282893944E1,8.373402596E0,1.870558370E1
4.256470078E0,-9.082599640E0,-1.389317608E1,1.709658980E0,1.668642837E1
4.261392237E0,-6.044357777E0,-1.635308456E1,2.189676046E0,1.757134932E1
4.266314619E0,-2.455653906E0,-1.808758163E1,4.172935009E0,1.872442875E1
4.271236852E0,1.265829951E-1,-1.856220436E1,6.135924816E0,1.955047384E1
4.276159021E0,1.008131981E0,-1.806775665E1,6.279135227E0,1.915431282E1
4.281081403E0,9.064409733E-1,-1.729841995E1,4.116229057E0,1.780450251E1
4.286003559E0,2.933239937E-1,-1.653527832E1,2.065913916E0,1.666641738E1
4.290925788E0,-5.767710209E-1,-1.559026432E1,6.400089860E-1,1.561405194E1
4.295848173E0,-1.455811977E0,-1.463153934E1,2.495930046E-1,1.470590455E1
4.300770329E0,-2.070241928E0,-1.361203384E1,1.300253034E0,1.382982375E1
4.305692532E0,-2.608581066E0,-1.222634411E1,2.067765951E0,1.267137883E1
4.310614688E0,-2.884038925E0,-1.044903755E1,2.448045015E0,1.111274002E1
4.315536761E0,-2.606743097E0,-8.661534309E0,2.513880014E0,9.388124354E0
4.320458990E0,-1.964925051E0,-7.118060112E0,2.593823910E0,7.826597772E0
4.325381365E0,-1.276936054E0,-5.639301777E0,2.437366962E0,6.274794652E0
4.330303520E0,-7.861689925E-1,-4.105778217E0,2.107934952E0,4.681758881E0
4.335225749E0,-5.378810167E-1,-2.541610003E0,1.756971955E0,3.136247414E0
4.340147881E0,-4.510389864E-1,-9.805099964E-1,1.449506998E0,1.807181938E0
4.345070264E0,-2.344760001E-1,5.222259760E-1,1.178727984E0,1.310381099E0
4.349992420E0,1.665949970E-1,1.997501016E0,9.479889870E-1,2.217306321E0
4.354914663E0,2.712729871E-1,3.397212982E0,8.926969767E-1,3.523003402E0
4.359837048E0,3.403039873E-1,4.548783779E0,1.078667998E0,4.687298297E0
4.364759281E0,3.277060091E-1,5.542974949E0,1.258553028E0,5.693497891E0
4.369681416E0,-1.068150029E-1,6.609506130E0,1.218379974E0,6.721713360E0
4.374603569E0,-5.405740142E-1,7.585607052E0,1.327330947E0,7.719809716E0
4.379525699E0,-7.403079867E-1,8.468894958E0,1.375646949E0,8.611773468E0
4.384448082E0,-1.029114962E0,9.321614265E0,1.228700995E0,9.458397129E0
4.389370223E0,-1.522866011E0,1.002412796E1,1.074044943E0,1.019587342E1
4.394292377E0,-1.818907976E0,1.046173668E1,8.854709864E-1,1.065553469E1
4.399214605E0,-1.655156016E0,1.072847176E1,6.294590235E-1,1.087363170E1
4.404137014E0,-1.062034011E0,1.068734741E1,4.118439853E-1,1.074788009E1
4.409059170E0,-5.610020161E-1,1.078652573E1,1.656859964E-1,1.080237531E1
4.413981324E0,-2.537550032E-1,1.092164421E1,-1.258720011E-1,1.092531682E1
4.418903553E0,-7.596999872E-3,1.110286427E1,-3.574630022E-1,1.110861973E1
4.423825937E0,3.452959955E-1,1.108788109E1,-6.044170260E-1,1.110971000E1
4.428748093E0,4.284389913E-1,1.099139595E1,-6.470810175E-1,1.101875940E1
4.433670303E0,4.800229967E-1,1.116559029E1,-7.317540050E-1,1.119983448E1
4.438592459E0,4.052560031E-1,1.161053181E1,-9.398630261E-1,1.165555763E1
4.443514822E0,4.854680002E-1,1.202956581E1,-9.960989952E-1,1.208049444E1
4.448436978E0,7.404760122E-1,1.228575420E1,-1.157526016E0,1.236235930E1
4.453359136E0,1.021471024E0,1.241002178E1,-1.244994044E0,1.251407423E1
4.458281290E0,1.312765002E0,1.246653175E1,-1.497004032E0,1.262453116E1
4.463203749E0,1.664559007E0,1.244571209E1,-1.814569950E0,1.268696852E1
4.468125905E0,2.092293024E0,1.219735527E1,-1.935928941E0,1.252601240E1
4.473048134E0,2.457314014E0,1.193088531E1,-1.619506955E0,1.228849947E1
4.477970290E0,2.843425989E0,1.148461437E1,-1.099228024E0,1.188232893E1
4.482892444E0,2.770674944E0,1.113495827E1,-1.549780071E-1,1.147553717E1
4.487814826E0,2.716497898E0,1.071598911E1,8.706910014E-1,1.108917879E1
4.492737059E0,2.526243925E0,1.045447826E1,1.897475004E0,1.092146673E1
4.497659204E0,2.218467951E0,1.041060638E1,2.986785889E0,1.105546088E1
4.502581587E0,1.391551018E0,1.038153267E1,3.997651100E0,1.121132682E1
4.507503526E0,5.051289797E-1,1.012439346E1,4.708456039E0,1.117712202E1
4.512425908E0,-2.612049878E-1,9.941208839E0,5.251862049E0,1.124624009E1
4.517348055E0,-6.332839727E-1,9.960761070E0,5.505361080E0,1.139854422E1
4.522270284E0,-8.997049928E-1,9.941087723E0,5.555081844E0,1.142338078E1
4.527192440E0,-1.068529963E0,9.886895180E0,5.482340813E0,1.135554989E1
4.532114608E0,-1.166759968E0,9.829319954E0,5.373037815E0,1.126261049E1
4.537036990E0,-1.168599963E0,9.830688477E0,5.198015213E0,1.118156626E1
4.541959160E0,-1.131783962E0,9.761891365E0,4.985359192E0,1.101949474E1
4.546881389E0,-1.097201943E0,9.730869293E0,4.760809898E0,1.088847924E1
4.551803774E0,-1.112934947E0,9.697051048E0,4.610140800E0,1.079466634E1
4.556725991E0,-1.124127030E0,9.605483055E0,4.394165039E0,1.062250689E1
4.561648145E0,-1.042711973E0,9.377397537E0,4.126516819E0,1.029810535E1
4.566570528E0,-8.632630110E-1,9.170980453E0,3.651354074E0,9.908808812E0
4.571492458E0,-7.664890289E-1,8.971203804E0,3.213783026E0,9.560251276E0
4.576414841E0,-7.591260076E-1,8.804187775E0,2.853735924E0,9.286215773E0
4.581337010E0,-7.855250239E-1,8.653513908E0,2.568800926E0,9.060854856E0
4.586259239E0,-7.936300039E-1,8.244560242E0,2.442198992E0,8.635216157E0
4.591181395E0,-5.348889828E-1,7.708294868E0,2.442425013E0,8.103663119E0
4.596103812E0,-1.898169965E-1,7.230900764E0,2.528408051E0,7.662558556E0
4.601025968E0,3.743200004E-2,6.885424137E0,2.494030952E0,7.323295508E0
4.605948196E0,3.241209984E-1,6.525548935E0,2.256191015E0,6.912180642E0
4.610870342E0,6.973109841E-1,6.226511002E0,1.736703992E0,6.501678446E0
4.615792802E0,1.034772992E0,5.994591236E0,9.880260229E-1,6.162959894E0
4.620714958E0,1.371528983E0,5.777259827E0,2.843559980E-1,5.944634656E0
4.625637093E0,1.546123981E0,5.616395950E0,3.482959867E-1,5.835727284E0
4.630559475E0,1.384377956E0,5.503715038E0,6.788240075E-1,5.715608767E0
4.635481631E0,5.840250254E-1,5.522844791E0,1.152413011E0,5.671944602E0
4.640403790E0,-6.918759942E-1,5.893745899E0,2.181412935E0,6.322459609E0
4.645326019E0,-1.695528030E0,6.414737225E0,3.464833021E0,7.485234587E0
4.650248184E0,-3.587948084E0,6.703720093E0,3.882685900E0,8.537475290E0
4.655170337E0,-5.376099110E0,6.688477039E0,3.494554996E0,9.265531899E0
4.660092720E0,-6.357999802E0,6.518351078E0,3.644800901E0,9.808039349E0
4.665014872E0,-6.474758148E0,5.692018986E0,4.825841904E0,9.879793687E0
4.669937101E0,-6.553991795E0,4.442661762E0,3.950918913E0,8.848831122E0
4.674859251E0,-5.755224228E0,2.210998058E0,-3.314430118E-1,6.174218396E0
4.679781634E0,-5.391328812E0,-1.237651944E0,-8.003717422E0,9.729218944E0
4.684703867E0,-5.653185844E0,-4.166236877E0,-6.852346897E0,9.811763242E0
4.689626001E0,-5.296343803E0,-6.272272110E0,7.445052147E0,1.108248422E1
4.694548383E0,-4.943233967E0,-9.949758530E0,1.321646500E1,1.726581026E1
4.699470539E0,-3.725250959E0,-1.865564728E1,1.705491447E1,2.554957490E1
4.704392693E0,-7.165269852E-1,-3.220736694E1,1.681926537E1,3.634165081E1
4.709314833E0,3.965850115E0,-4.785035706E1,9.979619980E0,4.904056945E1
4.714237062E0,7.527388096E0,-6.101023865E1,-2.393834114E0,6.151943785E1
4.719159218E0,7.830599785E0,-6.817620087E1,-1.002309704E1,6.935254236E1
4.724081600E0,2.898669958E0,-6.576329041E1,-9.778387070E0,6.654945158E1
4.729003833E0,-7.498226166E0,-5.092507935E1,-5.180233955E0,5.173414661E1
4.733925987E0,-1.255505943E1,-3.277733612E1,1.356920004E-1,3.509988166E1
4.738848141E0,-1.135317802E1,-2.055471611E1,1.105497003E0,2.350772488E1
4.743770523E0,-9.760677338E0,-1.603521729E1,2.301297903E0,1.891282601E1
4.748692746E0,-8.681129456E0,-1.585428619E1,4.421813011E0,1.860840750E1
4.753614900E0,-5.562001228E0,-1.697462845E1,6.001121044E0,1.884376084E1
4.758537283E0,-2.418770075E0,-1.777429771E1,6.163850784E0,1.896758193E1
4.763459449E0,-2.001210004E-1,-1.807312965E1,6.635574818E0,1.925380267E1
4.768381603E0,1.370540977E0,-1.746671295E1,6.092054844E0,1.854932819E1
4.773303846E0,2.186177969E0,-1.680003357E1,4.504133224E0,1.753019447E1
4.778226231E0,2.144829988E0,-1.612125015E1,3.706837893E0,1.668039716E1
4.783148387E0,1.457756042E0,-1.505630779E1,2.567322969E0,1.534303113E1
4.788070630E0,3.705199957E-1,-1.379232216E1,2.897723913E0,1.409830626E1
4.792992709E0,-8.936830163E-1,-1.247023392E1,3.072932959E0,1.287432795E1
4.797914938E0,-2.222676039E0,-1.108153534E1,3.856987000E0,1.194223861E1
4.802837079E0,-3.380501032E0,-9.687109947E0,4.438223839E0,1.117880661E1
4.807759538E0,-4.442356110E0,-8.242177963E0,4.442787170E0,1.036370509E1
4.812681694E0,-4.896271229E0,-6.670598984E0,4.078598022E0,9.225254716E0
4.817604058E0,-4.829814911E0,-5.197557926E0,3.630192041E0,7.969944462E0
4.822526214E0,-4.302948952E0,-3.650782108E0,3.440061092E0,6.608903086E0
4.827448368E0,-3.532852888E0,-2.095082045E0,3.185461044E0,5.197843819E0
4.832370526E0,-2.831705093E0,-6.626290083E-1,3.095314980E0,4.247187983E0
4.837292754E0,-1.971063972E0,7.704439759E-1,2.625327110E0,3.372094236E0
4.842214910E0,-1.133458018E0,2.244345903E0,2.073966980E0,3.259318126E0
4.847137313E0,-5.167769790E-1,3.600665092E0,1.825217962E0,4.069799524E0
4.852059469E0,1.611530036E-1,4.716823101E0,1.695516944E0,5.014894631E0
4.856981623E0,6.292219758E-1,5.683257103E0,1.657282948E0,5.953311546E0
4.861903836E0,7.403690219E-1,6.545064926E0,1.668213010E0,6.794774155E0
4.866826221E0,3.874120116E-1,7.433498859E0,1.767580986E0,7.650577488E0
4.871748454E0,5.640999880E-3,8.185205460E0,1.798907042E0,8.380554086E0
4.876670608E0,-5.331119895E-1,8.795316696E0,2.220263004E0,9.086879112E0
4.881592990E0,-1.069273949E0,9.266769409E0,2.745529890E0,9.723903354E0
4.886515146E0,-1.576326966E0,9.641660690E0,3.210711002E0,1.028372951E1
4.891437315E0,-1.984478951E0,9.946043968E0,3.577558041E0,1.075457432E1
4.896359544E0,-2.026417971E0,1.027561283E1,3.658803940E0,1.109420728E1
4.901281700E0,-1.663771033E0,1.053695583E1,3.590101004E0,1.125541636E1
4.906203872E0,-9.861369729E-1,1.085192871E1,3.179826021E0,1.135112842E1
4.911126255E0,-2.742249966E-1,1.107896042E1,2.418281078E0,1.134313214E1
4.916048411E0,3.840200007E-1,1.113675404E1,1.633733988E0,1.126249744E1
4.920970640E0,8.916980028E-1,1.131059265E1,1.002287984E0,1.138987325E1
4.925892796E0,1.100291014E0,1.157649422E1,3.278749883E-1,1.163328675E1
4.930815298E0,1.206962943E0,1.194408607E1,-7.300779819E-1,1.202709298E1
4.935737454E0,1.309864998E0,1.238277817E1,-2.267932892E0,1.265671605E1
4.940659837E0,1.541100979E0,1.262784958E1,-3.522099018E0,1.320010450E1
4.945581987E0,1.731894970E0,1.255813599E1,-4.204529762E0,1.335605893E1
4.950504141E0,2.099332094E0,1.214803505E1,-4.416110039E0,1.309518914E1
4.955426305E0,2.474976063E0,1.165700054E1,-4.028020859E0,1.257919394E1
4.960348459E0,2.695000887E0,1.123395061E1,-3.034210920E0,1.194450133E1
4.965270678E0,2.647667885E0,1.099862576E1,-1.671159983E0,1.143558872E1
4.970193062E0,2.474462986E0,1.088536453E1,-2.435719967E-1,1.116572682E1
4.975115218E0,2.171425104E0,1.093816185E1,8.008030057E-1,1.118032902E1
4.980037452E0,1.771016002E0,1.099956894E1,1.677728057E0,1.126684454E1
4.984959608E0,1.412592053E0,1.099357033E1,2.373107910E0,1.133515090E1
4.989881767E0,1.009358048E0,1.099234962E1,2.932020903E0,1.142135283E1
4.994804149E0,5.860120058E-1,1.089756584E1,3.529858112E0,1.146997165E1
4.999726382E0,9.086900204E-2,1.084124660E1,3.978663921E0,1.154862120E1
5.004648774E0,-5.001950264E-1,1.080791283E1,4.370825768E0,1.166898850E1
5.009570930E0,-9.839310050E-1,1.068315315E1,4.717658043E0,1.171981992E1
5.014493084E0,-1.403589010E0,1.051953602E1,5.083100796E0,1.176726875E1
5.019415232E0,-1.715059042E0,1.029057312E1,5.425890923E0,1.175915027E1
5.024337386E0,-1.840934038E0,1.007037830E1,5.673402786E0,1.170423242E1
5.029259615E0,-1.808941960E0,9.887686729E0,5.848669052E0,1.162951201E1
5.034181771E0,-1.751631021E0,9.725840569E0,5.991526127E0,1.155675436E1
5.039104154E0,-1.567000031E0,9.431802750E0,6.024280071E0,1.130072310E1
5.044026401E0,-1.385058999E0,9.118506432E0,6.031729221E0,1.102031331E1
5.048948555E0,-1.197703958E0,8.855628014E0,5.883409977E0,1.069911937E1
5.053871015E0,-1.115970969E0,8.688940048E0,5.707707882E0,1.045566830E1
5.058793074E0,-1.219462991E0,8.728770256E0,5.609467030E0,1.044723124E1
5.063715302E0,-1.229334950E0,8.692592621E0,5.530980110E0,1.037613473E1
5.068637458E0,-1.201670051E0,8.551780701E0,5.558032990E0,1.026979526E1
5.073559842E0,-1.168213010E0,8.391850471E0,5.486011028E0,1.009377001E1
5.078482075E0,-1.173140049E0,8.119906425E0,5.390946865E0,9.816895947E0
5.083404151E0,-1.180685043E0,7.897943974E0,5.284262180E0,9.575748690E0
5.088326379E0,-1.233849049E0,7.677827835E0,5.157898903E0,9.331417086E0
5.093248784E0,-1.201758981E0,7.472405910E0,4.913938999E0,9.023739315E0
5.098170940E0,-1.176512003E0,7.278595924E0,4.624249935E0,8.703207833E0
5.103093169E0,-1.154729962E0,7.134291172E0,4.304887772E0,8.412108567E0
5.108015320E0,-1.141360998E0,6.912562847E0,3.793795109E0,7.967377948E0
5.112937473E0,-1.017686009E0,6.353776932E0,1.867987037E0,6.700413546E0
5.117859856E0,-7.003200054E-1,5.649456978E0,-1.038053989E0,5.786567924E0
5.122782089E0,-8.663470149E-1,5.422335148E0,-1.152850032E0,5.610823362E0
5.127704243E0,-1.376862049E0,5.365348816E0,-5.004709959E-1,5.561761253E0
5.132626625E0,-2.117963076E0,5.470464230E0,6.675999761E-1,5.904018649E0
5.137548752E0,-3.021305084E0,5.611731052E0,8.361690044E-1,6.427984787E0
5.142470906E0,-3.989289999E0,5.596700191E0,-1.314872026E0,6.997597886E0
5.147393074E0,-5.001970768E0,5.279401779E0,-4.501996040E0,8.553348061E0
5.152315303E0,-6.010702133E0,4.755691051E0,-4.341567993E0,8.808765529E0
5.157237439E0,-6.667242050E0,3.771604061E0,-2.057483912E0,7.931604743E0
5.162159822E0,-7.230566978E0,1.742293000E0,-3.703850031E0,8.308741709E0
5.167082055E0,-7.772752762E0,-6.632320285E-1,-7.589440823E0,1.088371142E1
5.172004214E0,-8.441430092E0,-2.477061987E0,-1.406057954E0,8.909016615E0
5.176926368E0,-8.392544746E0,-2.986809969E0,1.140146446E1,1.446890573E1
5.181848521E0,-8.187494278E0,-5.783318996E0,1.962754059E1,2.203910594E1
5.186770976E0,-7.711026192E0,-1.305420113E1,2.570919800E1,2.984685836E1
5.191693132E0,-4.690328121E0,-2.706360245E1,2.568750000E1,3.760698621E1
5.196615515E0,3.017635107E0,-4.826026154E1,7.051103115E0,4.886590857E1
5.201537665E0,1.062098026E1,-6.731613159E1,-1.993666077E1,7.100519162E1
5.206459894E0,9.545293808E0,-6.964753723E1,-2.728808594E1,7.540909567E1
5.211381964E0,-2.602240145E-1,-6.676636505E1,-1.838375092E1,6.925155245E1
5.216304193E0,-1.089441872E1,-4.970861816E1,-3.476450920E0,5.100706608E1
5.221226567E0,-1.486065674E1,-3.203665543E1,1.156748199E1,3.716171483E1
5.226148800E0,-1.076694298E1,-2.051456833E1,1.284420204E1,2.649052851E1
5.231070877E0,-8.536052704E0,-1.387040806E1,5.846747875E0,1.730424446E1
5.235993125E0,-9.098485947E0,-1.476903725E1,4.335733891E0,1.788031029E1
5.240915281E0,-8.513653755E0,-1.714109802E1,6.225810051E0,2.012610873E1
5.245837740E0,-5.339546204E0,-1.814706802E1,5.506894112E0,1.970159167E1
5.250759896E0,-1.709318042E0,-1.785312653E1,7.550695896E0,1.945941683E1
5.255682279E0,-2.389200032E-1,-1.596958542E1,5.477228165E0,1.688445349E1
5.260604435E0,6.666110158E-1,-1.451102734E1,3.659480095E0,1.498018956E1
5.265526674E0,1.567137957E0,-1.334321880E1,2.227027893E0,1.361826210E1
5.270448752E0,1.615807056E0,-1.212407207E1,9.953609705E-1,1.227170321E1
5.275370971E0,1.162655950E0,-1.080075645E1,9.543679953E-1,1.090499551E1
5.280293127E0,3.542689979E-1,-9.590721130E0,1.360082030E0,9.693155392E0
5.285215496E0,-7.658680081E-1,-8.445608139E0,1.563096046E0,8.623115440E0
5.290137652E0,-1.630586982E0,-7.423620224E0,1.636101007E0,7.774688267E0
5.295059865E0,-2.038970947E0,-6.405599117E0,1.854066968E0,6.973282362E0
5.299982021E0,-2.254101038E0,-5.157312870E0,2.094471931E0,6.005469191E0
5.304904404E0,-2.270874023E0,-3.868365049E0,2.347631931E0,5.062854202E0
5.309826565E0,-1.907016039E0,-2.649312973E0,2.402705908E0,4.053216634E0
5.314748793E0,-1.417214990E0,-1.366214037E0,2.261722088E0,2.998403896E0
5.319670949E0,-1.050083041E0,-1.319109946E-1,2.052385092E0,2.309190219E0
5.324593346E0,-7.881510258E-1,1.177451015E0,1.805513978E0,2.295093387E0
5.329515579E0,-3.937320113E-1,2.410412073E0,1.714725971E0,2.984191082E0
5.334437733E0,-8.411999792E-2,3.714883089E0,1.681290984E0,4.078501185E0
5.339359886E0,2.154099941E-1,4.985103130E0,1.967705965E0,5.363722723E0
5.344282269E0,4.450370073E-1,6.172560215E0,1.683326960E0,6.413434899E0
5.349204425E0,5.784249902E-1,7.102140903E0,1.277394056E0,7.239248335E0
5.354126579E0,5.529109836E-1,7.924460888E0,7.654010057E-1,7.980515624E0
5.359048808E0,1.453869939E-1,8.754308701E0,4.117000103E-1,8.765189964E0
5.363971207E0,-2.438980043E-1,9.368917465E0,3.938710093E-1,9.380364336E0
5.368893440E0,-6.812710166E-1,9.820848465E0,4.734840095E-1,9.855829842E0
5.373815608E0,-8.369500041E-1,1.021286774E1,6.160029769E-1,1.026560336E1
5.378737762E0,-9.067900181E-1,1.059983921E1,6.800990105E-1,1.066027176E1
5.383659916E0,-8.537089825E-1,1.085952663E1,9.578890204E-1,1.093506695E1
5.388582283E0,-5.525280237E-1,1.102489662E1,1.399721026E0,1.112712235E1
5.393504439E0,-3.180879951E-1,1.129910088E1,1.378795981E0,1.138735873E1
5.398426668E0,-2.328390032E-1,1.167031288E1,9.809359908E-1,1.171378044E1
5.403348823E0,-1.308719963E-1,1.192557144E1,4.882819951E-1,1.193628087E1
5.408270977E0,1.754999976E-3,1.198354816E1,-2.004300058E-2,1.198356505E1
5.413193441E0,3.980059922E-1,1.186325645E1,-5.264030099E-1,1.188159765E1
5.418115597E0,8.201659918E-1,1.143334198E1,-1.444740057E0,1.155340880E1
5.423037751E0,1.279212952E0,1.111144066E1,-2.811151981E0,1.153269590E1
5.427959905E0,1.528198957E0,1.066362381E1,-3.710083961E0,1.139355027E1
5.432882059E0,1.583616972E0,1.017443085E1,-3.991683006E0,1.104356912E1
5.437804437E0,1.578261971E0,9.737980843E0,-3.455610991E0,1.045277136E1
5.442726670E0,1.481819034E0,9.443264961E0,-2.503045082E0,9.881106996E0
5.447649053E0,1.223122001E0,9.326250076E0,-1.420930982E0,9.512834108E0
5.452571222E0,9.843299985E-1,9.427479744E0,-3.805359900E-1,9.486363239E0
5.457493451E0,7.010769844E-1,9.744761467E0,5.672119856E-1,9.786399462E0
5.462415530E0,4.006240070E-1,1.005964661E1,1.357360959E0,1.015871144E1
5.467337764E0,-7.938999683E-3,1.041795158E1,2.026844025E0,1.061328766E1
5.472259920E0,-3.789950013E-1,1.075662327E1,2.479173899E0,1.104512945E1
5.477182326E0,-7.836009860E-1,1.096677399E1,2.888525963E0,1.136783816E1
5.482104482E0,-1.250895023E0,1.106998825E1,3.202775955E0,1.159168461E1
5.487026711E0,-1.679991961E0,1.112087154E1,3.488909006E0,1.177576507E1
5.491948886E0,-1.958654046E0,1.107398701E1,3.784243107E0,1.186549661E1
5.496871040E0,-2.143251896E0,1.094036674E1,4.052348137E0,1.186198460E1
5.501793422E0,-2.215637922E0,1.079661179E1,4.371470928E0,1.185688136E1
5.506715650E0,-2.174709082E0,1.063787746E1,4.597187042E0,1.179101036E1
5.511638033E0,-2.021398067E0,1.053372765E1,4.718810081E0,1.171804748E1
5.516560189E0,-1.847623944E0,1.037906075E1,4.785244942E0,1.157744295E1
5.521482403E0,-1.656450987E0,1.028422546E1,4.836184978E0,1.148467711E1
5.526404482E0,-1.501474023E0,1.019669342E1,4.894744873E0,1.140988643E1
5.531326696E0,-1.368906975E0,1.007585812E1,4.919786930E0,1.129606686E1
5.536249081E0,-1.278524041E0,9.948085785E0,4.863186836E0,1.114673139E1
5.541171228E0,-1.197401047E0,9.758372307E0,4.762961864E0,1.092453226E1
5.546093381E0,-1.145130038E0,9.592914581E0,4.719620228E0,1.075221596E1
5.551015610E0,-1.045624971E0,9.394205093E0,4.714046955E0,1.056251199E1
5.555937756E0,-9.422299862E-1,9.195748329E0,4.729548931E0,1.038355516E1
5.560860139E0,-8.686969876E-1,9.040589333E0,4.692057133E0,1.022263616E1
5.565782295E0,-7.772660255E-1,8.904742241E0,4.604112148E0,1.005467183E1
5.570704749E0,-7.880979776E-1,8.739585876E0,4.381722927E0,9.808208579E0
5.575626905E0,-7.857249975E-1,8.608655930E0,4.020358086E0,9.533603716E0
5.580549136E0,-7.122300267E-1,8.337601662E0,3.404088020E0,9.033863422E0
5.585471280E0,-5.817210078E-1,7.873445034E0,2.581718922E0,8.306311373E0
5.590393434E0,-4.948340058E-1,7.410535812E0,1.993456006E0,7.689913430E0
5.595315603E0,-3.731270134E-1,6.959624767E0,1.732645988E0,7.181759032E0
5.600237757E0,-2.658900023E-1,6.588770866E0,1.711055040E0,6.812511165E0
5.605160140E0,-3.411670029E-1,6.349671841E0,1.950142980E0,6.651149153E0
5.610082373E0,-6.010479927E-1,6.228395939E0,2.385801077E0,6.696732146E0
5.615004526E0,-1.253803968E0,6.407946110E0,2.950665951E0,7.165209508E0
5.619926889E0,-2.293075085E0,6.773146152E0,3.283869028E0,7.868767244E0
5.624849045E0,-3.146899939E0,6.821689129E0,3.118066072E0,8.133926348E0
5.629771274E0,-3.699783087E0,6.437626839E0,2.322776079E0,7.779892218E0
5.634693678E0,-4.368690968E0,5.801083088E0,4.558219910E-1,7.276386428E0
5.639615834E0,-4.893912792E0,4.745528221E0,-1.748371959E0,7.037558172E0
5.644538063E0,-4.735084057E0,3.394495010E0,-1.907526016E0,6.130438231E0
5.649460204E0,-4.334534168E0,1.290218949E0,-3.700514078E0,5.843513997E0
5.654382281E0,-5.302262783E0,-2.184257030E0,-8.909062386E0,1.059511029E1
5.659304491E0,-7.046977997E0,-6.618877888E0,-5.340178967E0,1.104477047E1
5.664226646E0,-7.995594978E0,-1.052766132E1,4.997262955E0,1.413272193E1
5.669149024E0,-7.844217777E0,-1.707139206E1,1.463328838E1,2.381380499E1
5.674071486E0,-6.156192780E0,-2.936761856E1,2.240873718E1,3.745006317E1
5.678993641E0,-1.647057056E0,-4.599744415E1,1.732364655E1,4.917912560E1
5.683915872E0,5.378071785E0,-6.128684616E1,-3.114849925E-1,6.152315167E1
5.688838026E0,8.301680565E0,-6.733998108E1,-1.432845402E1,6.934620066E1
5.693760180E0,4.048777103E0,-6.155506897E1,-1.329194260E1,6.310384180E1
5.698682544E0,-3.781626940E0,-4.897454071E1,-4.316343784E0,4.930960519E1
5.703604699E0,-8.410841942E0,-3.519752502E1,4.343532085E0,3.644824140E1
5.708526853E0,-8.168418884E0,-2.591974258E1,7.320998192E0,2.814521517E1
5.713449067E0,-7.677834988E0,-1.968145752E1,4.241064072E0,2.154751829E1
5.718371223E0,-8.829548836E0,-1.704381180E1,7.870259881E-1,1.921124314E1
5.723293392E0,-9.437870026E0,-1.772621918E1,-3.787010014E-1,2.008570764E1
5.728215774E0,-7.695023060E0,-1.884265518E1,1.846742988E0,2.043696391E1
5.733138007E0,-4.960738182E0,-1.866827393E1,4.071650982E0,1.974061084E1
5.738060194E0,-2.179393053E0,-1.809747505E1,5.636520863E0,1.907979887E1
5.742982348E0,-6.281160116E-1,-1.705867767E1,5.661855221E0,1.798470512E1
5.747904731E0,-8.281499892E-2,-1.537059593E1,3.618268967E0,1.579094513E1
5.752826905E0,9.809599817E-2,-1.367031479E1,2.545427084E0,1.390562218E1
5.757749134E0,-5.116499960E-2,-1.192643166E1,1.718029022E0,1.204964786E1
5.762671519E0,-4.960309863E-1,-1.023917961E1,1.739667058E0,1.039775396E1
5.767593752E0,-1.366953015E0,-8.846220970E0,2.079272985E0,9.189535470E0
5.772515905E0,-2.728391886E0,-7.846763134E0,2.613285065E0,8.708907669E0
5.777438059E0,-3.796889067E0,-6.914012909E0,3.148324013E0,8.493049227E0
5.782360208E0,-4.226359844E0,-5.850036144E0,3.533701897E0,8.035676046E0
5.787282362E0,-4.303917885E0,-4.523460865E0,3.917630911E0,7.371108418E0
5.792204750E0,-3.949248075E0,-3.090150118E0,4.338622093E0,6.630929782E0
5.797126906E0,-3.687241077E0,-1.629220009E0,4.392142773E0,5.961629201E0
5.802049104E0,-3.302896023E0,-2.533090115E-1,4.123801231E0,5.289520223E0
5.806971260E0,-2.800661087E0,1.101973057E0,3.630183935E0,4.715536295E0
5.811893414E0,-2.146065950E0,2.347758055E0,3.132643938E0,4.464417654E0
5.816815797E0,-1.797232032E0,3.473994017E0,2.374414921E0,4.575644613E0
5.821738029E0,-1.356583953E0,4.571421146E0,1.782300949E0,5.090658896E0
5.826660412E0,-7.455530167E-1,5.606247902E0,1.366469979E0,5.818342121E0
5.831582578E0,-2.916100025E-1,6.496854782E0,1.146862030E0,6.603745223E0
5.836504807E0,-5.168600008E-2,7.154395103E0,1.026257992E0,7.227810609E0
5.841426963E0,-9.301500022E-2,7.827599049E0,9.385200143E-1,7.884210707E0
5.846349106E0,-2.848109901E-1,8.489917755E0,9.345780015E-1,8.545949732E0
5.851271489E0,-5.159429908E-1,9.021595955E0,1.263514042E0,9.124245639E0
5.856193660E0,-8.125699759E-1,9.520793915E0,1.908931017E0,9.744219023E0
5.861115814E0,-1.200237989E0,9.997723579E0,2.633217096E0,1.040811608E1
5.866038043E0,-1.402840972E0,1.032430553E1,3.309370041E0,1.093211680E1
5.870960203E0,-1.189355016E0,1.045227337E1,3.851211071E0,1.120251805E1
5.875882586E0,-8.538939953E-1,1.069489002E1,4.082004070E0,1.147922318E1
5.880804742E0,-2.545560002E-1,1.096813202E1,3.910593987E0,1.164720842E1
5.885726975E0,4.591949880E-1,1.113293457E1,3.446782112E0,1.166333568E1
5.890649359E0,9.333710074E-1,1.128491974E1,2.740417004E0,1.165034250E1
5.895571592E0,1.042547941E0,1.146376991E1,1.857643962E0,1.166000720E1
5.900493722E0,1.102915049E0,1.165358829E1,1.119037032E0,1.175902996E1
5.905415876E0,1.043570042E0,1.200905609E1,2.161969990E-1,1.205625181E1
5.910338030E0,9.961479902E-1,1.233802414E1,-6.534100175E-1,1.239540621E1
5.915260412E0,8.866220117E-1,1.259366608E1,-1.329218984E0,1.269461882E1
5.920182568E0,8.079689741E-1,1.270699501E1,-1.844082952E0,1.286550341E1
5.925104802E0,8.430550098E-1,1.253465080E1,-2.052900076E0,1.272959588E1
5.930026958E0,9.375439882E-1,1.217757607E1,-1.860468030E0,1.235450075E1
5.934949112E0,9.590290189E-1,1.185410786E1,-1.448055983E0,1.198067093E1
5.939871480E0,9.182029963E-1,1.152630329E1,-8.862540126E-1,1.159673275E1
5.944793713E0,8.834969997E-1,1.127142715E1,-1.848459989E-1,1.130751100E1
5.949715867E0,6.988419890E-1,1.111158562E1,5.547810197E-1,1.114735381E1
5.954638230E0,4.676539898E-1,1.102604675E1,1.309152961E0,1.111333833E1
5.959560462E0,1.997119933E-1,1.096508694E1,1.939453959E0,1.113707763E1
5.964482616E0,-7.601200044E-2,1.088100910E1,2.423079967E0,1.114780039E1
5.969404985E0,-3.920449913E-1,1.075448608E1,2.781936884E0,1.111538767E1
5.974326910E0,-8.048689961E-1,1.053897762E1,3.003020048E0,1.098799312E1
5.979249383E0,-1.421550035E0,1.029591274E1,3.173327923E0,1.086722751E1
5.984171462E0,-1.973271966E0,1.008394241E1,3.448730946E0,1.083851660E1
5.989093922E0,-2.261605024E0,9.870549202E0,3.712629080E0,1.078546306E1
5.994016088E0,-2.303684950E0,9.692567825E0,3.919574976E0,1.070588172E1
5.998938317E0,-2.261956930E0,9.543191910E0,4.162903786E0,1.065451683E1
6.003860472E0,-2.134653091E0,9.338811874E0,4.384430885E0,1.053533983E1
6.008782626E0,-1.994624019E0,9.134697914E0,4.643130779E0,1.043934358E1
6.013704780E0,-1.888473034E0,8.966785431E0,4.950554848E0,1.041525634E1
6.018627198E0,-1.833328962E0,8.820776939E0,5.114944935E0,1.036001267E1
6.023549431E0,-1.784461021E0,8.682338715E0,5.207856178E0,1.028051909E1
6.028471584E0,-1.651816964E0,8.439023972E0,5.377324104E0,1.014205302E1
6.033393733E0,-1.488309979E0,8.167222023E0,5.559215069E0,9.991168818E0
6.038316116E0,-1.394341946E0,7.914712906E0,5.583898067E0,9.786050658E0
6.043238344E0,-1.298604965E0,7.607264042E0,5.575785160E0,9.520830910E0
6.048160498E0,-1.139575958E0,7.314354897E0,5.551362038E0,9.252893677E0
6.053082641E0,-1.019163013E0,6.963667870E0,5.433835983E0,8.891453027E0
6.058004795E0,-8.103420138E-1,6.537037849E0,5.268663883E0,8.434947370E0
6.062927178E0,-5.130739808E-1,6.117696762E0,5.049105167E0,7.948768557E0
6.067849344E0,-2.231770009E-1,5.784803867E0,4.762735844E0,7.496493612E0
6.072771498E0,1.410669982E-1,5.514320850E0,4.463763237E0,7.095971856E0
6.077693740E0,4.822460115E-1,5.287480831E0,4.155881882E0,6.742504651E0
6.082616125E0,7.037439942E-1,5.137600899E0,4.037748814E0,6.572184879E0
6.087538358E0,5.992370248E-1,5.042082787E0,4.258821964E0,6.627159902E0
6.092460483E0,1.223540008E-1,4.975129128E0,4.640912056E0,6.804773696E0
6.097382865E0,-6.936669946E-1,4.871572971E0,4.606318951E0,6.740294607E0
6.102304790E0,-1.694213986E0,4.601636887E0,3.620130062E0,6.095142716E0
6.107227183E0,-2.579530954E0,4.055378914E0,1.325103998E0,4.985577066E0
6.112149339E0,-3.237612963E0,3.239523888E0,-1.472995043E0,4.811067149E0
6.117071573E0,-3.888672113E0,2.439404964E0,-2.376348019E0,5.169090567E0
6.121993728E0,-4.869363785E0,1.157418966E0,-2.083024025E0,5.421190960E0
6.126915882E0,-6.142728806E0,-2.098118067E0,-5.264282227E0,8.357504649E0
6.131838265E0,-8.061570168E0,-7.880828857E0,-9.890342712E0,1.499717493E1
6.136760498E0,-8.593160629E0,-1.420714092E1,-6.878920078E0,1.797233441E1
6.141682652E0,-7.431924820E0,-1.920579910E1,7.362990856E0,2.187029630E1
6.146605034E0,-4.777553082E0,-2.550298691E1,2.319618607E1,3.480359755E1
6.151527267E0,-6.255109906E-1,-3.529486847E1,2.779473114E1,4.492956803E1
6.156449421E0,4.463403225E0,-4.605330658E1,2.002126884E1,5.041507931E1
6.161371798E0,9.636418343E0,-5.479437256E1,8.844500035E-2,5.563534529E1
6.166293724E0,9.889724731E0,-5.858862305E1,-2.037251091E1,6.281299712E1
6.171216115E0,-1.153940037E-1,-5.065985870E1,-2.311621094E1,5.568477178E1
6.176138271E0,-1.070046616E1,-3.568875885E1,-1.031239223E1,3.865918931E1
6.181060500E0,-1.385144520E1,-2.423905945E1,3.406723976E0,2.812472765E1
6.185982656E0,-1.207406425E1,-1.726972198E1,1.225848484E1,2.437820288E1
6.190905038E0,-1.101992702E1,-1.393410587E1,1.349700356E1,2.231069706E1
6.195827204E0,-7.969961166E0,-1.510046196E1,9.121293068E0,1.935825973E1
6.200749433E0,-4.948600769E0,-1.702243805E1,4.249736786E0,1.822943525E1
6.205671589E0,-2.530806065E0,-1.814116669E1,2.690325022E0,1.851336698E1
6.210593976E0,-1.302258968E0,-1.829956818E1,2.768364906E0,1.855354193E1
6.215516209E0,-1.121263027E0,-1.771822357E1,3.838115931E0,1.816380498E1
6.220438363E0,-2.013015032E0,-1.663178253E1,4.476865768E0,1.734101343E1
6.225360730E0,-3.451468945E0,-1.532249832E1,4.039071083E0,1.621745010E1
6.230282886E0,-4.467421055E0,-1.365814877E1,2.703180075E0,1.462224542E1
6.235205030E0,-5.009736061E0,-1.214393330E1,1.875138998E0,1.326984241E1
6.240127184E0,-5.375390053E0,-1.090260792E1,1.829120994E0,1.229257342E1
6.245049393E0,-5.712119102E0,-9.652733803E0,2.251691103E0,1.144000382E1
6.249971778E0,-5.679686069E0,-8.625118256E0,2.752176046E0,1.068765511E1
6.254893934E0,-5.183764935E0,-7.349092960E0,3.124839067E0,9.520777565E0
6.259816083E0,-4.387341976E0,-5.837113857E0,3.370376110E0,8.042394104E0
6.264738312E0,-3.066385031E0,-4.314312935E0,3.468914986E0,6.328458298E0
6.269660468E0,-1.711822033E0,-3.017891884E0,3.415679932E0,4.868765294E0
6.274582928E0,-8.953130245E-1,-1.746950030E0,3.244707108E0,3.792300625E0
6.279505083E0,-6.719840169E-1,-5.642380118E-1,3.143649101E0,3.263810155E0
6.284427466E0,-7.046399713E-1,6.109709740E-1,2.869620085E0,3.017370122E0
6.289349602E0,-8.310679793E-1,1.845250010E0,2.665251970E0,3.346519035E0
6.294271756E0,-9.391989708E-1,3.059084892E0,2.593936920E0,4.119296521E0
6.299193901E0,-1.213683009E0,4.180214882E0,2.762229919E0,5.155301837E0
6.304116055E0,-1.537999034E0,5.107518196E0,2.865205050E0,6.054880934E0
6.309038287E0,-1.821972013E0,5.965060234E0,2.748627901E0,6.815899130E0
6.313960672E0,-2.052380085E0,6.834071159E0,2.607083082E0,7.596951680E0
6.318882905E0,-2.093852997E0,7.635312080E0,2.281086922E0,8.239269900E0
6.323805069E0,-2.074294090E0,8.311387062E0,2.046118021E0,8.807295262E0
6.328727451E0,-2.052017927E0,8.771482468E0,1.978634000E0,9.223051272E0
6.333649607E0,-2.069421053E0,9.208749771E0,2.073529959E0,9.663493278E0
6.338571850E0,-1.950273991E0,9.480051994E0,2.288203955E0,9.945392491E0
6.343494006E0,-1.391459942E0,9.387703896E0,2.528831959E0,9.821412132E0
6.348416160E0,-9.123380184E-1,9.480695724E0,2.511518955E0,9.850059875E0
6.353338547E0,-5.255140066E-1,9.732877731E0,2.292924881E0,1.001312031E1
6.358260703E0,-1.163439974E-1,9.987279892E0,2.051985979E0,1.019656521E1
6.363182932E0,-4.956899956E-2,1.036552715E1,1.752980947E0,1.051282799E1
6.368105316E0,-1.744669974E-1,1.074816322E1,1.434211969E0,1.084483358E1
6.373027247E0,-2.682180107E-1,1.096381474E1,1.126548052E0,1.102480317E1
6.377949398E0,-3.170489967E-1,1.113784218E1,8.871909976E-1,1.117761854E1
6.382871778E0,-2.412919998E-1,1.117903996E1,5.902010202E-1,1.119720918E1
6.387793934E0,-1.214229986E-1,1.124347019E1,3.623929918E-1,1.124996419E1
6.392716163E0,-9.092000313E-3,1.147752380E1,9.964200109E-2,1.147795992E1
6.397638542E0,1.186520010E-1,1.170399380E1,-3.119700029E-2,1.170463679E1
6.402560775E0,2.756969929E-1,1.181247807E1,-1.235119998E-1,1.181634047E1
6.407483158E0,4.474659860E-1,1.169294167E1,-9.915699810E-2,1.170192047E1
6.412405305E0,6.358060241E-1,1.140593147E1,1.616329998E-1,1.142478215E1
6.417327458E0,7.685409784E-1,1.102875996E1,5.069119930E-1,1.106712073E1
6.422249617E0,8.562620282E-1,1.063908958E1,1.023272991E0,1.072242974E1
6.427171771E0,4.776439965E-1,1.019389439E1,1.751096010E0,1.035422444E1
6.432093925E0,1.651950032E-1,9.807106018E0,2.571053982E0,1.013986866E1
6.437016168E0,-2.324360013E-1,9.593046188E0,3.398142099E0,1.017978052E1
6.441938552E0,-7.763429880E-1,9.540530205E0,4.128781796E0,1.042455103E1
6.446860708E0,-1.315925002E0,9.572880745E0,4.675611019E0,1.073466547E1
6.451782905E0,-1.773300052E0,9.496395111E0,5.049148083E0,1.090045914E1
6.456705134E0,-2.189148903E0,9.328722000E0,5.521381855E0,1.105907250E1
6.461627309E0,-2.376566887E0,9.299591064E0,5.710375786E0,1.116865506E1
6.466549768E0,-2.632589102E0,9.287882805E0,5.811789989E0,1.126819397E1
6.471471924E0,-2.761831999E0,9.242321014E0,5.895055771E0,1.130486162E1
6.476394283E0,-2.768196106E0,9.170687675E0,5.969330788E0,1.128704267E1
6.481316439E0,-2.737673998E0,9.098526001E0,6.049194813E0,1.126369354E1
6.486238592E0,-2.635421991E0,9.004493713E0,6.174365997E0,1.123161393E1
6.491160746E0,-2.574884892E0,8.939043045E0,6.320129871E0,1.124635783E1
6.496083009E0,-2.473015070E0,8.770614624E0,6.387762070E0,1.112847648E1
6.501005165E0,-2.210679054E0,8.432289124E0,6.316950798E0,1.076542935E1
6.505927548E0,-2.037368059E0,8.147519112E0,6.031123161E0,1.033960265E1
6.510849698E0,-1.955193996E0,7.885351181E0,5.667475224E0,9.905645977E0
6.515771852E0,-1.975437999E0,7.722571850E0,5.244646072E0,9.541843831E0
6.520694071E0,-2.082993984E0,7.635415077E0,4.779047966E0,9.245416529E0
6.525616456E0,-2.141706944E0,7.539688110E0,4.340937138E0,8.959773472E0
6.530538689E0,-2.159054041E0,7.367279053E0,3.937331915E0,8.627913861E0
6.535460847E0,-2.056406021E0,7.016033173E0,3.634547949E0,8.164769807E0
6.540383230E0,-1.638968945E0,6.413974762E0,3.463885069E0,7.471532053E0
6.545305381E0,-9.846799970E-1,5.789034843E0,3.298794031E0,6.735321906E0
6.550227535E0,-5.044270158E-1,5.416605949E0,3.045627117E0,6.234573856E0
6.555149764E0,-7.661899924E-2,5.150772095E0,2.866281986E0,5.895073881E0
6.560071914E0,2.035990059E-1,4.901900768E0,2.825264931E0,5.661466738E0
6.564994068E0,3.202399909E-1,4.611823082E0,2.950576067E0,5.484283446E0
6.569916451E0,1.629099995E-1,4.303029060E0,3.399658918E0,5.486372164E0
6.574838607E0,-3.617939949E-1,3.933747053E0,3.977826118E0,5.606100374E0
6.579760835E0,-1.200008035E0,3.449969053E0,4.144266129E0,5.524241803E0
6.584682991E0,-1.841953039E0,2.590920925E0,3.120213985E0,4.454368368E0
6.589605379E0,-2.265959024E0,1.461320043E0,2.916390002E-1,2.712025050E0
6.594527612E0,-2.859141111E0,3.346770108E-1,-1.359894037E0,3.183709847E0
6.599449994E0,-3.446760893E0,-1.129271984E0,2.832283974E0,4.601874441E0
6.604372155E0,-4.575827122E0,-2.921356916E0,5.615972042E0,7.810996227E0
6.609294384E0,-6.093028069E0,-6.337005138E0,2.035756111E0,9.023687058E0
6.614216443E0,-7.533692837E0,-1.290045834E1,-6.881704807E0,1.644798511E1
6.619138672E0,-7.746363163E0,-1.793459892E1,-1.036554146E1,2.211561508E1
6.624061047E0,-7.172973156E0,-1.986483765E1,6.067080975E0,2.197436666E1
6.628983203E0,-5.298354149E0,-2.402750778E1,2.474768066E1,3.489758423E1
6.633905432E0,-1.581333041E0,-3.203277969E1,2.708334732E1,4.197746170E1
6.638827602E0,2.512746096E0,-4.218506241E1,1.969334412E1,4.662318292E1
6.643749756E0,5.360266209E0,-5.153628922E1,-7.053100318E-2,5.181434680E1
6.648672138E0,5.600576878E0,-5.786575317E1,-2.105102348E1,6.183006907E1
6.653594049E0,-1.368384004E0,-5.457303619E1,-2.853527069E1,6.159829890E1
6.658516509E0,-1.137469864E1,-4.094288635E1,-1.616389847E1,4.546400033E1
6.663438894E0,-1.254024124E1,-2.736146927E1,-9.052590132E-1,3.011191035E1
6.668361039E0,-9.807640076E0,-1.908138275E1,1.215210819E1,2.465689975E1
6.673283270E0,-7.779335022E0,-1.484630966E1,1.630500603E1,2.338341689E1
6.678205429E0,-5.767308235E0,-1.419140816E1,1.201181507E1,1.946642266E1
6.683127812E0,-4.204751015E0,-1.503529167E1,7.976985931E0,1.753203443E1
6.688049958E0,-3.203514099E0,-1.553116512E1,5.265982151E0,1.670958290E1
6.692972111E0,-2.344415903E0,-1.601702499E1,4.915447235E0,1.691753520E1
6.697894265E0,-2.155493975E0,-1.638518906E1,4.959401131E0,1.725445549E1
6.702816499E0,-3.091188908E0,-1.636008644E1,4.313417912E0,1.719922822E1
6.707738655E0,-4.652612209E0,-1.582001972E1,3.568356991E0,1.687166251E1
6.712661038E0,-5.953958035E0,-1.492504597E1,3.048825979E0,1.635548695E1
6.717583227E0,-6.501762867E0,-1.374588585E1,2.807910919E0,1.546307414E1
6.722505456E0,-6.910027981E0,-1.252197647E1,3.306781054E0,1.467934543E1
6.727427612E0,-7.342171192E0,-1.117491436E1,4.370996952E0,1.406740215E1
6.732349994E0,-7.341790199E0,-9.888105392E0,5.403530121E0,1.344896462E1
6.737272150E0,-6.757882118E0,-8.236392975E0,6.178523064E0,1.231589571E1
6.742194303E0,-5.767509937E0,-6.556144238E0,6.536666870E0,1.090757590E1
6.747116518E0,-5.012482166E0,-5.030161858E0,6.023383141E0,9.311747969E0
6.752038674E0,-4.434872150E0,-3.649245024E0,5.138137817E0,7.706201429E0
6.756961057E0,-3.446055889E0,-2.538274050E0,4.540317059E0,6.239600575E0
6.761883213E0,-2.740390062E0,-1.501603007E0,4.008384228E0,5.082488898E0
6.766805366E0,-2.486469030E0,-2.049349993E-1,3.322292089E0,4.154774521E0
6.771727605E0,-2.244420052E0,1.147533059E0,2.858089924E0,3.810896417E0
6.776649990E0,-2.218456030E0,2.416431904E0,2.627614021E0,4.202980579E0
6.781572146E0,-2.475560904E0,3.543782949E0,2.416722059E0,4.952508949E0
6.786494378E0,-2.725181103E0,4.421457767E0,2.292581081E0,5.677308240E0
6.791416763E0,-2.873915911E0,5.154510975E0,2.503740072E0,6.410701241E0
6.796338919E0,-2.943816900E0,5.828553200E0,2.837204933E0,7.119538059E0
6.801261134E0,-2.830463886E0,6.364224911E0,3.460024118E0,7.777316467E0
6.806183213E0,-2.749263048E0,6.722669125E0,4.076068878E0,8.328689271E0
6.811105407E0,-2.596663952E0,7.204914093E0,4.689229965E0,8.980107373E0
6.816027792E0,-2.257738113E0,7.614492893E0,4.905893803E0,9.335184916E0
6.820949977E0,-1.934656024E0,8.016271591E0,4.625133991E0,9.454912405E0
6.825872131E0,-1.463680029E0,8.160379410E0,4.078938007E0,9.239690829E0
6.830794360E0,-9.962570071E-1,8.375796318E0,3.498538971E0,9.131608123E0
6.835716779E0,-7.363330126E-1,8.593202591E0,2.715409994E0,9.042055547E0
6.840638704E0,-8.422539830E-1,9.035598755E0,1.915333986E0,9.274693575E0
6.845561087E0,-1.304450035E0,9.672796249E0,1.125434995E0,9.825028300E0
6.850483305E0,-2.003321886E0,1.041493034E1,4.738709927E-1,1.061643190E1
6.855405687E0,-2.372783899E0,1.092079353E1,1.054430008E-1,1.117608845E1
6.860327843E0,-2.486414909E0,1.119104195E1,3.937200084E-2,1.146399708E1
6.865250058E0,-2.465794086E0,1.141870689E1,2.433020025E-1,1.168444280E1
6.870172214E0,-2.330391884E0,1.153332233E1,5.066230297E-1,1.177730518E1
6.875094586E0,-2.159249067E0,1.159664059E1,6.861079931E-1,1.181588649E1
6.880016742E0,-1.971570015E0,1.163973427E1,6.150010228E-1,1.182153664E1
6.884938915E0,-1.827415943E0,1.160840034E1,6.247310042E-1,1.176795209E1
6.889861069E0,-1.539571047E0,1.153346539E1,5.257099867E-1,1.164763812E1
6.894783529E0,-1.181337953E0,1.128925800E1,7.588959932E-1,1.137623966E1
6.899705454E0,-8.123450279E-1,1.093023300E1,1.235136986E0,1.102975346E1
6.904627836E0,-5.104439855E-1,1.056123924E1,1.870049000E0,1.073766318E1
6.909549992E0,-3.865360022E-1,1.023187447E1,2.512696028E0,1.054297427E1
6.914472448E0,-5.543299913E-1,9.844289780E0,3.009402037E0,1.030891961E1
6.919394604E0,-8.759419918E-1,9.435524940E0,3.541781902E0,1.011635430E1
6.924316757E0,-1.286046982E0,9.364966393E0,4.083498001E0,1.029715826E1
6.929238952E0,-1.659651995E0,9.274630547E0,4.702425003E0,1.053024299E1
6.934161108E0,-2.053294897E0,9.121565819E0,5.385122776E0,1.078974190E1
6.939083491E0,-2.399055958E0,8.972514153E0,6.025557041E0,1.107108023E1
6.944005657E0,-2.644200087E0,8.802805901E0,6.594523907E0,1.131233536E1
6.948927885E0,-2.688364983E0,8.707356453E0,7.036615849E0,1.151344107E1
6.953850041E0,-2.650659084E0,8.606833458E0,7.401466846E0,1.165698448E1
6.958772209E0,-2.389592886E0,8.369610786E0,7.644598961E0,1.158449102E1
6.963694363E0,-2.172437906E0,8.151638031E0,7.805443764E0,1.149319979E1
6.968616759E0,-2.141571999E0,8.063181877E0,7.950394154E0,1.152432210E1
6.973538915E0,-2.101315022E0,7.964974880E0,8.010473251E0,1.149017108E1
6.978461375E0,-1.975247025E0,7.760965824E0,7.950274944E0,1.128454975E1
6.983383512E0,-1.825536013E0,7.470327854E0,7.750800133E0,1.091848353E1
6.988305743E0,-1.778560996E0,7.234516144E0,7.469634056E0,1.054973630E1
6.993227896E0,-1.864856005E0,7.092648983E0,7.124582767E0,1.022462895E1
6.998150031E0,-2.025795937E0,6.984132767E0,6.849772930E0,9.990062506E0
7.003072414E0,-2.252254963E0,6.893829823E0,6.618763924E0,9.818634219E0
7.007994584E0,-2.405107975E0,6.746850967E0,6.480539799E0,9.659292854E0
7.012916738E0,-2.521658897E0,6.618562222E0,6.321259022E0,9.493284210E0
7.017838891E0,-2.611998081E0,6.502690792E0,6.085429192E0,9.281162102E0
7.022761144E0,-2.675885916E0,6.394853115E0,5.769180775E0,9.018755935E0
7.027683529E0,-2.809716940E0,6.062133789E0,4.950469017E0,8.315715174E0
7.032605685E0,-2.983264923E0,5.361336231E0,2.989593983E0,6.825061756E0
7.037527839E0,-3.137603998E0,4.865235806E0,2.201169968E0,6.193563394E0
7.042450298E0,-3.313137054E0,4.607532978E0,2.366765976E0,6.148806264E0
7.047372454E0,-3.313216925E0,4.353500843E0,2.443830013E0,5.991884605E0
7.052294671E0,-3.367611885E0,4.232008934E0,2.605166912E0,6.003132854E0
7.057216825E0,-4.006402016E0,4.386405945E0,2.367705107E0,6.395142039E0
7.062138963E0,-5.001311779E0,4.521843910E0,1.022011995E0,6.819435488E0
7.067061117E0,-5.961420059E0,4.418554783E0,-2.241539955E0,7.751558351E0
7.071983271E0,-6.905725956E0,3.999336004E0,-6.738558769E0,1.044470745E1
7.076905654E0,-7.228499889E0,3.473251104E0,-7.904613018E0,1.126044363E1
7.081827829E0,-7.016338825E0,2.652590036E0,-2.636346102E0,7.950821667E0
7.086750057E0,-7.278372765E0,7.897220254E-1,2.200260013E-1,7.324396386E0
7.091672213E0,-7.923876762E0,-1.942378044E0,-2.802610099E-1,8.163283754E0
7.096594587E0,-8.598649979E0,-4.545838833E0,5.325631142E0,1.108890343E1
7.101516820E0,-8.344912529E0,-6.872738838E0,1.593196678E1,1.925356252E1
7.106439202E0,-7.494368076E0,-1.240590954E1,2.308847237E1,2.726077219E1
7.111361363E0,-5.816643238E0,-2.356966209E1,2.686549950E1,3.620935477E1
7.116283592E0,-1.578870058E0,-4.141786575E1,2.168680191E1,4.677873247E1
7.121205748E0,5.162108898E0,-6.091835785E1,9.541239738E-1,6.114412518E1
7.126127873E0,7.314247131E0,-7.025401306E1,-1.440898705E1,7.208844200E1
7.131050027E0,-6.595599651E-2,-6.366866684E1,-1.627605820E1,6.571615903E1
7.135972428E0,-1.068427277E1,-4.844701385E1,-7.601686001E0,5.019016304E1
7.140894584E0,-1.441006088E1,-3.414544678E1,2.881602049E0,3.717344510E1
7.145816813E0,-1.244896603E1,-2.461187363E1,9.378870010E0,2.913218634E1
7.150738974E0,-1.066361904E1,-1.941934013E1,8.046363831E0,2.357047970E1
7.155661128E0,-9.869037628E0,-1.895037651E1,3.779786110E0,2.169795973E1
7.160583510E0,-8.813076019E0,-2.063051605E1,3.788254976E0,2.275168955E1
7.165505709E0,-6.881888866E0,-2.148006439E1,6.326340199E0,2.342597151E1
7.170428092E0,-4.712566853E0,-2.105233383E1,8.383270264E0,2.314494041E1
7.175350247E0,-2.346612930E0,-2.030317307E1,8.762147903E0,2.223737090E1
7.180272471E0,-6.887360215E-1,-1.926457024E1,7.879620075E0,2.082513952E1
7.185194627E0,1.848620027E-1,-1.767504120E1,5.477446079E0,1.850523361E1
7.190116781E0,1.485680044E-1,-1.577516270E1,3.001251936E0,1.605880891E1
7.195038954E0,-3.412519991E-1,-1.392638016E1,1.251333952E0,1.398664913E1
7.199961336E0,-9.661189914E-1,-1.222670841E1,9.878690243E-1,1.230453858E1
7.204883516E0,-1.535140038E0,-1.069258022E1,1.437690973E0,1.089747136E1
7.209805745E0,-2.290425062E0,-9.158672333E0,2.016463041E0,9.653675417E0
7.214727901E0,-3.031459093E0,-7.664278030E0,2.570370913E0,8.633522374E0
7.219650284E0,-3.560460091E0,-6.299121857E0,3.163233042E0,7.896952292E0
7.224572439E0,-3.899673939E0,-4.997089863E0,3.571568966E0,7.275607796E0
7.229494668E0,-4.103854179E0,-3.631994009E0,3.692204952E0,6.607978285E0
7.234417034E0,-4.107368946E0,-2.268903017E0,3.556107044E0,5.887639414E0
7.239339190E0,-3.960906982E0,-9.845690131E-1,3.314188004E0,5.257566204E0
7.244261418E0,-3.666755915E0,2.567549944E-1,3.081899881E0,4.796783187E0
7.249183565E0,-3.377818108E0,1.421561956E0,2.921777010E0,4.686925907E0
7.254105948E0,-3.184357882E0,2.581579924E0,2.892030001E0,5.016824448E0
7.259028088E0,-2.971304893E0,3.576200008E0,3.148866892E0,5.615444949E0
7.263950317E0,-2.702627897E0,4.495840073E0,3.248385906E0,6.169990803E0
7.268872472E0,-2.603306055E0,5.447900772E0,3.280144930E0,6.871402768E0
7.273794626E0,-2.489639997E0,6.197512150E0,3.438302994E0,7.511949923E0
7.278717009E0,-2.727897882E0,7.024497986E0,3.414968967E0,8.273270929E0
7.283639165E0,-3.244750023E0,7.827961922E0,3.248919010E0,9.075288717E0
7.288561319E0,-3.161514997E0,8.451526642E0,3.277693987E0,9.600351948E0
7.293483547E0,-3.137424946E0,8.980614662E0,3.281980038E0,1.006311423E1
7.298405932E0,-3.232119083E0,9.469244003E0,3.271259069E0,1.052683769E1
7.303328151E0,-3.267827988E0,9.832770348E0,3.455845118E0,1.092267998E1
7.308250305E0,-2.877492905E0,9.879495621E0,3.790887117E0,1.096609430E1
7.313172706E0,-2.375782013E0,1.004594898E1,3.799520969E0,1.100008140E1
7.318094862E0,-1.788023949E0,1.022846699E1,3.639739990E0,1.100301203E1
7.323017101E0,-1.272150040E0,1.043011570E1,3.269048929E0,1.100419739E1
7.327939180E0,-8.886219859E-1,1.061129093E1,2.805614948E0,1.101183997E1
7.332861447E0,-5.438399911E-1,1.073131943E1,2.364272118E0,1.100212531E1
7.337783603E0,-3.553020060E-1,1.089064980E1,1.944053054E0,1.106850644E1
7.342705756E0,-2.145410031E-1,1.105444622E1,1.553583026E0,1.116514350E1
7.347627910E0,1.499400008E-2,1.114897537E1,1.158144951E0,1.120897749E1
7.352550370E0,1.205189973E-1,1.132816315E1,8.751119971E-1,1.136255368E1
7.357472754E0,3.189609945E-1,1.139804840E1,6.633669734E-1,1.142179054E1
7.362394929E0,5.824639797E-1,1.138195896E1,4.143480062E-1,1.140438242E1
7.367317083E0,7.884309888E-1,1.125376892E1,1.948309988E-1,1.128303583E1
7.372239312E0,8.105670214E-1,1.102106762E1,-8.697900176E-2,1.105117712E1
7.377161478E0,7.891520262E-1,1.072286129E1,-2.595889866E-1,1.075499426E1
7.382083860E0,6.877089739E-1,1.038619614E1,-2.444829941E-1,1.041180992E1
7.387006001E0,4.700730145E-1,1.015289116E1,9.742499888E-2,1.016423431E1
7.391928155E0,1.597030014E-1,9.961067200E0,6.853839755E-1,9.985895854E0
7.396850384E0,-2.179089934E-1,9.841893196E0,1.350599051E0,9.936521716E0
7.401772540E0,-7.878779769E-1,9.733684540E0,2.050158978E0,9.978402591E0
7.406694694E0,-1.410918951E0,9.695219040E0,2.817331076E0,1.019437683E1
7.411617067E0,-1.999873996E0,9.645652771E0,3.473912954E0,1.044539059E1
7.416539223E0,-2.498287916E0,9.597979546E0,3.986490965E0,1.068900202E1
7.421461452E0,-2.922574043E0,9.430625916E0,4.299238205E0,1.076854648E1
7.426383822E0,-3.184927940E0,9.240233421E0,4.516605854E0,1.076686622E1
7.431306054E0,-3.341578007E0,9.115877151E0,4.710165024E0,1.079124712E1
7.436228208E0,-3.457596064E0,9.018741608E0,4.860232830E0,1.081270243E1
7.441150372E0,-3.540520906E0,8.901567459E0,5.059806824E0,1.083396680E1
7.446072526E0,-3.598316908E0,8.841761589E0,5.218706131E0,1.087931644E1
7.450994985E0,-3.529217005E0,8.796176910E0,5.271302223E0,1.084503241E1
7.455917136E0,-3.489667892E0,8.750512123E0,5.348429203E0,1.083304848E1
7.460839290E0,-3.501883984E0,8.690556526E0,5.363011837E0,1.079587237E1
7.465761444E0,-3.571389914E0,8.582992554E0,5.378766060E0,1.074028451E1
7.470683598E0,-3.610460997E0,8.337016106E0,5.440220833E0,1.058948860E1
7.475605980E0,-3.543585062E0,7.993288040E0,5.458148003E0,1.030732887E1
7.480528222E0,-3.469482899E0,7.683442116E0,5.446732044E0,1.003690611E1
7.485450376E0,-3.315016985E0,7.423058987E0,5.374184132E0,9.745409043E0
7.490372759E0,-3.215826035E0,7.187681198E0,5.345370770E0,9.517210030E0
7.495295007E0,-3.112552881E0,6.892940998E0,5.368266106E0,9.274637568E0
7.500217160E0,-2.945724010E0,6.631473064E0,5.368107796E0,9.026090308E0
7.505139314E0,-2.854841948E0,6.375943184E0,5.333300114E0,8.789019521E0
7.510061468E0,-2.865360975E0,6.166471004E0,5.327298164E0,8.638041670E0
7.514983851E0,-2.960913897E0,6.004250050E0,5.361089230E0,8.576672285E0
7.519905987E0,-3.122528076E0,5.824213028E0,5.307799816E0,8.476106292E0
7.524828215E0,-3.009041071E0,5.407293797E0,3.949079990E0,7.340871007E0
7.529750371E0,-2.529360056E0,4.598449230E0,6.405150294E-1,5.287121818E0
7.534672754E0,-2.415927887E0,4.095403194E0,2.608630061E-1,4.762046240E0
7.539594910E0,-2.788418055E0,3.768434048E0,-3.915200010E-2,4.688059652E0
7.544517064E0,-3.521168947E0,3.309695005E0,1.438779980E-1,4.834605740E0
7.549439514E0,-4.116205215E0,2.375775099E0,-2.613568068E0,5.423853864E0
7.554361670E0,-4.498606205E0,1.378146052E0,-7.504096031E0,8.857098937E0
7.559283900E0,-5.090568066E0,7.572050095E-1,-2.883035898E0,5.899079475E0
7.564206050E0,-6.520820141E0,-1.146750003E-1,6.261950970E0,9.041364699E0
7.569128203E0,-7.647863865E0,-1.606207013E0,8.367015839E0,1.144887229E1
7.574050552E0,-8.368015289E0,-5.212986946E0,4.751985073E0,1.094441752E1
7.578972785E0,-8.192602158E0,-9.943728447E0,1.694583058E0,1.299492506E1
7.583894939E0,-6.707438946E0,-1.428496742E1,6.431550026E0,1.704156293E1
7.588817340E0,-4.551085949E0,-1.958561707E1,1.307294941E1,2.398355239E1
7.593739265E0,-1.760385990E0,-2.724016953E1,1.420927620E1,3.077384157E1
7.598661648E0,2.338860035E0,-3.633839417E1,1.014482594E1,3.780035251E1
7.603583905E0,5.763218880E0,-4.484524918E1,-3.209510148E-1,4.521519739E1
7.608506059E0,4.842759132E0,-5.082120895E1,-1.133158970E1,5.229390520E1
7.613428441E0,-1.006726027E0,-5.403528976E1,-1.288923454E1,5.556040321E1
7.618350674E0,-7.670454025E0,-5.362979889E1,-5.708798885E0,5.447551357E1
7.623272828E0,-1.286991882E1,-4.233678818E1,1.058109045E0,4.426237723E1
7.628195211E0,-1.145240498E1,-2.932283592E1,4.661678791E0,3.182322321E1
7.633117376E0,-9.693200111E0,-2.294741058E1,4.118022919E0,2.524876024E1
7.638039530E0,-8.570032120E0,-2.102269363E1,2.838272095E0,2.287913649E1
7.642961477E0,-6.780366898E0,-2.034350777E1,4.399137020E0,2.189027387E1
7.647883937E0,-4.027614117E0,-1.933630753E1,6.907516003E0,2.092434567E1
7.652806093E0,-2.279000998E0,-1.792367554E1,7.636316776E0,1.961543587E1
7.657728252E0,-1.644212008E0,-1.669058609E1,6.194890022E0,1.787891942E1
7.662650634E0,-1.492288947E0,-1.568959045E1,4.347776890E0,1.634910820E1
7.667572895E0,-1.844099998E0,-1.480856895E1,2.823174953E0,1.518765078E1
7.672495049E0,-2.450525045E0,-1.377417755E1,1.614727020E0,1.408333709E1
7.677417432E0,-3.129993916E0,-1.271077538E1,7.711060047E-1,1.311317189E1
7.682339664E0,-4.176062107E0,-1.155392075E1,8.082129955E-1,1.231201801E1
7.687261818E0,-5.200019836E0,-1.031764317E1,1.494626045E0,1.165023063E1
7.692183972E0,-5.858483791E0,-8.838266373E0,2.571204901E0,1.091090644E1
7.697106107E0,-6.022776127E0,-7.352070808E0,3.717742920E0,1.020531185E1
7.702028490E0,-5.810538769E0,-5.929659843E0,4.366703987E0,9.380369415E0
7.706950640E0,-5.643184185E0,-4.638783932E0,4.467009068E0,8.562593890E0
7.711872794E0,-5.256001949E0,-3.386509895E0,4.382624149E0,7.635535358E0
7.716795042E0,-4.640319824E0,-2.098587036E0,4.081440926E0,6.526468850E0
7.721717198E0,-4.061438084E0,-8.469380140E-1,3.564089060E0,5.469489385E0
7.726639581E0,-3.844703913E0,3.467479944E-1,3.068152905E0,4.931079455E0
7.731561741E0,-3.702182055E0,1.487035990E0,2.992485046E0,4.987223150E0
7.736483970E0,-3.254410028E0,2.465641975E0,3.033504009E0,5.086523524E0
7.741406432E0,-3.104203939E0,3.286905050E0,2.992055893E0,5.421459709E0
7.746328583E0,-2.770852089E0,4.220836163E0,2.965356112E0,5.855460364E0
7.751250736E0,-2.330892086E0,4.955851078E0,2.911761999E0,6.202570093E0
7.756173119E0,-2.200453043E0,5.597257137E0,2.834671974E0,6.648807882E0
7.761095025E0,-2.255522013E0,6.183301926E0,2.621812105E0,7.084807758E0
7.766017177E0,-2.298307896E0,6.886273861E0,2.263606071E0,7.604399997E0
7.770939552E0,-2.226504087E0,7.452539921E0,2.135340929E0,8.065813822E0
7.775861784E0,-2.290844917E0,8.154665947E0,2.122502089E0,8.732214052E0
7.780783953E0,-2.679421902E0,8.766511917E0,2.104747057E0,9.405370439E0
7.785706107E0,-3.062346935E0,9.278714180E0,2.285423040E0,1.003472292E1
7.790628490E0,-3.059470892E0,9.672540665E0,2.447329044E0,1.043589117E1
7.795550660E0,-2.620737076E0,9.906230927E0,2.567383051E0,1.056376494E1
7.800472888E0,-1.985589027E0,9.972429276E0,2.630585909E0,1.050294681E1
7.805395273E0,-1.583915949E0,1.017182922E1,2.444150925E0,1.058058473E1
7.810317497E0,-1.384246945E0,1.036672115E1,2.171670914E0,1.068181640E1
7.815239651E0,-1.204156041E0,1.056378365E1,2.010929108E0,1.082069095E1
7.820162033E0,-1.075206995E0,1.074219418E1,1.806249022E0,1.094592807E1
7.825083953E0,-1.102177978E0,1.091564274E1,1.723415017E0,1.110568377E1
7.830006336E0,-1.088559985E0,1.106741428E1,1.666651964E0,1.124501447E1
7.834928473E0,-1.194004059E0,1.132981205E1,1.583623052E0,1.150209323E1
7.839850702E0,-1.209766984E0,1.152764893E1,1.567422986E0,1.169645419E1
7.844772853E0,-1.252714992E0,1.172523880E1,1.506602049E0,1.188782442E1
7.849695235E0,-1.299051046E0,1.198232746E1,1.432055950E0,1.213731804E1
7.854617391E0,-1.342419982E0,1.215013218E1,1.367557049E0,1.230032584E1
7.859539559E0,-1.288288951E0,1.224950886E1,1.203325033E0,1.237570793E1
7.864461788E0,-1.250378966E0,1.229032135E1,1.013213038E0,1.239524292E1
7.869384172E0,-1.192644954E0,1.217724419E1,9.129639864E-1,1.226952245E1
7.874306405E0,-1.132079005E0,1.198057556E1,1.053030014E0,1.207992822E1
7.879228559E0,-1.179880977E0,1.170619488E1,1.436563969E0,1.185288293E1
7.884150947E0,-1.318966031E0,1.139835072E1,2.042068958E0,1.165470360E1
7.889073102E0,-1.492149949E0,1.102721977E1,2.751645088E0,1.146288088E1
7.893995350E0,-1.774114966E0,1.059693909E1,3.412750959E0,1.127339661E1
7.898917506E0,-2.210402966E0,1.019697475E1,3.996867895E0,1.117314317E1
7.903839889E0,-2.718946934E0,9.901809692E0,4.494169235E0,1.120874947E1
7.908761833E0,-3.138914108E0,9.603580475E0,4.960721016E0,1.125567824E1
7.913684215E0,-3.494313955E0,9.278595924E0,5.349123001E0,1.126568636E1
7.918606371E0,-3.742921114E0,9.073483467E0,5.635463238E0,1.131795064E1
7.923528831E0,-3.849436998E0,8.880678177E0,5.812850952E0,1.129043162E1
7.928450987E0,-3.781559944E0,8.641919136E0,5.892291069E0,1.112214260E1
7.933373217E0,-3.782639980E0,8.409678459E0,5.936903954E0,1.096712750E1
7.938295357E0,-3.750412941E0,8.195932388E0,5.948379993E0,1.079917263E1
7.943217740E0,-3.755359888E0,8.050228119E0,5.861623764E0,1.064272211E1
7.948139896E0,-3.725963116E0,7.882371902E0,5.680543900E0,1.040591980E1
7.953062050E0,-3.666990042E0,7.673139095E0,5.436347961E0,1.009345128E1
7.957984203E0,-3.577528000E0,7.495366096E0,5.173653126E0,9.784983709E0
7.962906446E0,-3.462713003E0,7.308972836E0,4.860112190E0,9.435685230E0
7.967828602E0,-3.351181984E0,7.112258911E0,4.595464230E0,9.106752385E0
7.972750990E0,-3.257230043E0,6.955193043E0,4.366295815E0,8.834523018E0
7.977673146E0,-3.233273029E0,6.830348969E0,4.203978062E0,8.647609673E0
7.982595299E0,-3.191926956E0,6.694750786E0,4.075991154E0,8.462965772E0
7.987517523E0,-3.194502115E0,6.599975109E0,3.973130941E0,8.339681330E0
7.992439908E0,-3.191159964E0,6.511845112E0,3.831836939E0,8.201865824E0
7.997362127E0,-3.307249069E0,6.231914997E0,3.097090960E0,7.704974585E0
8.002284280E0,-3.565742016E0,5.262903214E0,-7.081149817E-1,6.396412525E0
8.007206663E0,-3.300035000E0,4.261888027E0,-3.582406044E0,6.472059457E0
8.012128804E0,-2.903901100E0,3.837256908E0,-2.720145941E0,5.527782206E0
8.017050958E0,-2.561422110E0,3.690983057E0,-2.261614084E0,5.029824790E0
8.021973112E0,-2.365353107E0,3.388087034E0,-2.726814985E0,4.950711973E0
8.026895331E0,-2.613347054E0,2.782495975E0,-4.664968967E0,6.027752661E0
8.031817487E0,-3.554107904E0,1.897434950E0,-4.489980221E0,6.032567013E0
8.036739870E0,-5.525284767E0,1.268280983E0,-1.348567009E0,5.827172675E0
8.041662040E0,-7.754341125E0,1.108464956E0,6.106887817E0,9.932400499E0
8.046584269E0,-9.239508629E0,6.486179829E-1,9.161293030E0,1.302760588E1
8.051506419E0,-9.777061462E0,-1.473427057E0,6.786464214E0,1.199241488E1
8.056428802E0,-1.030465126E1,-7.453980923E0,-1.051458955E0,1.276139628E1
8.061350958E0,-1.039855194E1,-1.429838276E1,-5.407948971E0,1.848836240E1
8.066273168E0,-8.048765182E0,-2.039664650E1,3.420507908E0,2.219246908E1
8.071195324E0,-4.012119770E0,-2.759105492E1,1.750611305E1,3.292153415E1
8.076117706E0,1.035704017E0,-3.722619629E1,2.398535156E1,4.429626917E1
8.081039616E0,5.662652969E0,-4.672660065E1,1.696369362E1,5.003206720E1
8.085961999E0,8.259599686E0,-5.331514740E1,-1.852149963E0,5.398292683E1
8.090884232E0,5.685011864E0,-5.640614700E1,-1.594546700E1,5.889168615E1
8.095806386E0,-5.365196228E0,-5.039919662E1,-1.930427933E1,5.423577741E1
8.100728768E0,-1.502014256E1,-3.602126694E1,-1.211563301E1,4.086471482E1
8.105650992E0,-1.469089890E1,-2.461006927E1,-5.723959804E-1,2.866715293E1
8.110573069E0,-1.128228664E1,-1.840399361E1,8.774326324E0,2.330205517E1
8.115495298E0,-9.066017151E0,-1.646122932E1,1.086825943E1,2.170907186E1
8.120417439E0,-7.159938812E0,-1.693198204E1,6.761365891E0,1.958756770E1
8.125339898E0,-5.107055187E0,-1.799657249E1,4.566510201E0,1.925647033E1
8.130262054E0,-3.283521891E0,-1.843948936E1,4.744805813E0,1.932121803E1
8.135184432E0,-2.293346882E0,-1.828957367E1,3.737766981E0,1.880794638E1
8.140106587E0,-2.179825068E0,-1.812417793E1,3.855406046E0,1.865748158E1
8.145028727E0,-3.189527988E0,-1.759366417E1,3.294550896E0,1.818142385E1
8.149950881E0,-4.418920040E0,-1.671080780E1,2.397337914E0,1.745064987E1
8.154873115E0,-5.380080223E0,-1.572413254E1,2.067378998E0,1.674716881E1
8.159795271E0,-5.918779850E0,-1.482921696E1,1.949939013E0,1.608539377E1
8.164717662E0,-6.276529789E0,-1.376121902E1,2.152631998E0,1.527742779E1
8.169639818E0,-6.327783108E0,-1.246381569E1,2.499272108E0,1.419978527E1
8.174562047E0,-6.088677883E0,-1.096413136E1,3.015832901E0,1.289881478E1
8.179484194E0,-5.600098133E0,-9.456774712E0,3.413477898E0,1.150841077E1
8.184406348E0,-4.871726036E0,-7.827499866E0,3.781765938E0,9.965200567E0
8.189328807E0,-4.023169994E0,-6.371685982E0,3.952440977E0,8.509175561E0
8.194250929E0,-3.306068897E0,-5.017871857E0,3.968862057E0,7.201457877E0
8.199173312E0,-2.819258928E0,-3.716084003E0,3.998253107E0,6.143576250E0
8.204095468E0,-2.678036928E0,-2.268243074E0,4.043912888E0,5.354441136E0
