Time (s),Linear Acceleration x (m/s^2),Linear Acceleration y (m/s^2),Linear Acceleration z (m/s^2),Absolute acceleration (m/s^2)
0.346883144,0.1344484715857143,0.018540075752380994,-0.4857658303728571,7.544240674904762
0.363692582,0.08401899115714287,0.0484044551333334,-1.0385765361271428,7.873180655142859
0.380499366,0.09278038572857145,-0.017581110961904695,-0.6881423350319047,7.784050028476191
0.3973056,-0.3933326573190476,0.6093639759428572,-0.721005577317619,7.694306820095237
0.414110745,-0.7942721218857143,1.1380283605142858,-0.5296188322223809,7.697637250380952
0.430919717,-1.1933667943142858,1.0298207259904761,-0.3241750866509524,7.803279903428572
0.447727181,-1.8802942035523809,0.6053849741333334,0.0948347351109524,8.46675375647619
0.464534707,-2.230526078090476,0.6280714783238096,0.3098481170966667,8.627868912095238
0.481338633,-2.2900810750333336,0.914279699209524,0.4022331679061905,8.424592697285714
0.498148182,-2.027684149047619,1.0798714386857144,0.4603916592442858,8.316283852238096
0.514954071,-1.6332604088095235,1.038084200352381,0.4958022451014286,8.109936610952381
0.531762534,-1.2912040606190476,0.9407455012095239,0.41214811955238095,7.849754593476191
0.548566153,-1.1743948968571427,0.9028207573523811,0.40802480788571427,7.744281477285715
0.565374624,-0.8010103643809524,1.1944767178761906,0.5654814216,7.988748818619048
0.582169182,-0.642929145095238,1.1518627347333334,0.20157803536190477,7.801115393333333
0.598988415,-0.6841645891857142,0.8356622059238096,-0.5076279553523809,7.61591694095238
0.615775413,-0.899274630052381,0.4637257257333334,-0.7408993838761905,7.192690092761904
0.632613498,-1.208553217547619,0.33072187779523815,-0.5590142549714286,6.951438243428571
0.649399203,-1.1444166613380953,0.2073871521095239,-0.29152784163809525,7.145233633380952
0.666217095,-1.2038986454142857,0.09139842074285723,-0.8064328970190476,7.37272202495238
0.683023706,-1.388801585890476,0.07206112993333343,-0.4828357724000001,7.512120281285715
0.699830214,-1.3696299051285714,-0.18585409444761897,0.14734694798095233,7.551068718
0.716647465,-1.5506871794666663,-1.293735958352381,0.9410599952666667,8.246549159904761
0.733442469,-1.364509641895238,-3.3774787130190482,1.0562726741714286,9.84719012004762
0.7502561,-0.9830521371333334,-5.1796388854,0.9385631410666667,10.877939302238095
0.767058366,-0.7207230128523809,-6.172745727590477,0.8762538801885714,11.091675164047619
0.783866512,-0.47568759156190477,-5.848349276257143,0.6491603368552381,10.759532805428572
0.800672787,0.08125414458095241,-4.6841617085904765,0.1272211046171429,10.121650341904763
0.817480069,0.3334959263428572,-3.8052250773523815,-0.218855815287619,10.108331682857143
0.834286404,0.3733102452952381,-3.237860248619048,-0.2747733820209523,10.558871198380952
0.851093942,0.30093715879523814,-2.776461783476191,-0.2868238091638095,11.009044234333333
0.867900165,0.2638069675714286,-2.3503420245238096,-0.17212237633523803,11.402032591095239
0.884710397,0.3926603738095238,-1.8951979145238096,-0.07124020231619042,11.843107815238096
0.901515188,0.6416408732380953,-1.439073131952381,-0.10831015877809519,12.29000303990476
0.918304728,0.6349679118571429,-1.344033355761905,-0.3442275566971428,12.33038866895238
0.935128103,0.6594742991428572,-1.0037813651428575,-0.2780386451161904,12.66170110242857
0.951935955,0.7057138483285714,-0.6020212639523812,0.14804034426476195,12.812940506238094
0.968743664,0.7365738579761906,-0.16292712900000017,0.28118508626476196,13.234409229190476
0.985548514,0.7292978650619049,0.36900361280952365,0.5960178020361906,13.389650915380953
1.006553997,0.5670431625857143,0.9769722156666665,0.3527041233600001,13.577299851809522
1.023356904,0.5892692407285716,1.5675877606666664,0.6390053275028572,13.665254910047619
1.040175864,0.6278236366809524,2.2147541036666665,0.3721709634695239,13.851829290714287
1.056983432,0.6515092849666667,3.1706552498095237,0.21647897080285722,13.870574721666665
1.07379001,0.6340183274952382,4.956842421714286,0.07631213185047624,13.129202189761903
1.090596073,0.45568054911428585,7.339372406952381,-0.10458130067333327,11.787949389761906
1.107404149,0.10609816083809534,9.201923778333333,-0.0703762570733333,10.795254434857142
1.124208094,-0.12280086395714275,10.072587920904763,0.07663321356666672,10.489833105761905
1.141021947,-0.05962736553333323,10.22026507,0.3915517713761905,10.644029945666666
1.157812219,0.46006884741904774,7.291642324714287,0.05101467747142863,12.884509695857142
1.174629816,1.1840919058476191,3.2283257070952387,0.02154278051904762,15.957651178238095
1.191435369,1.9024000195619049,-0.2739869981428567,-0.2975667501761905,18.443240163000002
1.208248469,2.140878149361905,-2.564975738619047,-0.48646092836190474,19.619456241095236
1.225043676,2.103709794147619,-3.8072669167142847,-0.40454020523809525,19.680736442047618
1.241854683,1.965583017804762,-4.49161788395238,-0.2385526525904762,19.23699852042857
1.258649563,1.787108636961905,-4.759468214857142,-0.1291741217333333,18.96018556147619
1.275469328,1.6569899206238097,-4.816415604857142,-0.06905026943333335,18.890222989571427
1.292282733,1.6096353558333338,-4.823000634857142,-0.05138702900000001,18.87899192814286
1.309085367,1.636411096309524,-4.732837131523809,-0.1838210168095238,18.970392175285713
1.325892892,1.7766917574333334,-4.480940500571428,-0.5831497822380952,19.29411154480952
1.342703227,2.0261816438428575,-4.209820792571428,-0.812028195152381,19.613968131761904
1.359508433,2.2393266160809526,-4.0195545013333325,-0.7395884593095238,19.810723799142856
1.376303955,2.3687700912714287,-3.913304510285714,-0.48762463954761903,19.934387742000002
1.393118499,2.4511864085409525,-3.8564731959999996,-0.2907262785142857,20.01086758485714
1.409929496,2.512980975526667,-3.851864951238095,-0.24518961851428567,20.01811246152381
1.4267358,2.5640869700885713,-3.8903091979047613,-0.28004739684761903,19.97080166247619
1.443540946,2.590412349207619,-3.9474599024761896,-0.31948911862857143,19.907796549285713
1.460349501,2.5931477255647617,-3.937340782190476,-0.33631408217619047,19.91634970842857
1.477153851,2.5375543144552384,-3.7657912576190467,-0.4481579008952381,20.055317063809525
1.493964735,2.365592161121905,-3.4029396151904754,-0.6153991903714287,20.256200830857143
1.510770004,1.83686121236,-0.37446557952380877,0.01111625481904764,18.065566598380954
1.527577235,1.1207407534552383,3.6361351463333333,0.18422047288571433,14.927809884809525
1.544379734,0.39668119455047635,7.051932425142858,0.4369947512190477,12.364610109571428
1.561195563,0.14363149737428582,9.242454528380952,0.4702331508380952,11.110455229571429
1.577986902,0.1345119583409525,10.371980167428571,0.24099752440952385,10.950994794333333
1.594799718,0.16431348599904771,10.934426670857142,0.043253381952380966,11.264366797380953
1.611616564,0.16788619408476202,11.084637823666666,0.10289293804761906,11.424258906809525
1.628406469,0.19267078744190488,11.019659133285714,0.26196044395238094,11.404630560619047
1.64522008,0.22086717618476198,10.64080767395238,-0.012978636109523782,11.164456864095238
1.662035073,0.24675796928000007,10.046039694909524,0.02818788799523811,10.654749779285716
1.678841653,0.4246412196609524,8.410188697766667,0.6761283647095239,10.837624428333333
1.695645393,0.8440859170895239,3.5780086291952387,2.910187198947619,14.702452894047621
1.712450897,1.2588948146609522,-0.9013899617571424,1.7875672805904765,18.076786103095237
1.729262359,1.5097288425657145,-3.699045703185714,0.7027806386380956,19.892332723095237
1.746058797,1.5600897961057143,-5.045769350328571,0.8764140778285717,20.189781335
1.762873452,1.5629505330961901,-5.634525275661905,0.9642280683047622,19.87033164252381
1.779669221,1.5750180199361905,-5.7793163563761905,0.8747033081857145,19.721467113714283
1.79648935,1.65622147496,-5.709582872757142,0.7870328116333337,19.794497147380955
1.813295359,1.80106010326,-5.560289063947618,0.7273058496095242,19.95247020504762
1.83010189,1.9741665352123812,-5.359672318233333,0.7401472672809527,20.162329687333333
1.846911012,2.2170899936409527,-5.11203665837619,0.762232485471429,20.428886668
1.863718314,2.5329927376885712,-4.865943680233333,0.5956030234714289,20.708820276666668
1.880513676,2.9020215897838093,-4.690923007995237,0.32151293773809553,20.981157189761905
1.897330335,3.1701391084028576,-4.557638666328571,0.3153666884523812,21.14259019738095
1.914136742,3.248177309850476,-4.488417169566667,0.501891198814286,21.191530780714285
1.930945022,3.2129212078933334,-4.477717715757142,0.689007310861905,21.19319628261905
1.947751814,3.14467089234,-4.51559438985238,0.771987421414286,21.164772937666665
1.96455811,3.094749425144762,-4.564472741947618,0.7312129057000003,21.11272117804762
1.981365717,2.983408527744762,-4.581453140233332,0.6525571973190479,21.074736787238095
1.998173843,2.820906182173333,-4.301435491804761,1.0472050567000004,21.248425297714284
2.082205637,2.6247726310304764,-3.828599724190476,1.1176782139285717,21.63833576252381
2.099022011,2.203134959697143,-2.4397481041904756,0.8470888395952384,21.142389093000002
2.115817219,1.4896487989828573,2.186076733428572,-1.1012279218333332,17.034902665857143
2.132609334,0.8574986202685715,6.495542414047619,0.023699065257142958,13.483926458238097
2.149434509,0.5930719347733334,9.06002814552381,0.8169179161619049,11.42439465795238
2.166240814,0.6802744837257143,9.315759773619046,-0.4782272549333332,11.654305266047619
2.183050984,1.0836844529876193,6.9434193441904775,-0.626805194838095,13.920097673761905
2.199848176,2.046557049061905,2.927464940619049,1.0943601071857145,17.733394020190477
2.216663942,2.6459506777761903,-0.0610312493809517,0.6896010634714289,19.762719252095238
2.233454743,2.6779242327761907,-2.0505687155714276,-0.0881480719285712,20.749230474
2.25027637,2.5360346208857143,-3.6073626550952373,-0.02956270630952356,20.980994649238095
2.267070873,2.273321954885714,-4.716182889285713,0.12054506907142881,20.71482868938095
2.283890719,1.9511569936000002,-5.346876007238094,0.27586900588095264,20.089614424761905
2.300702945,1.6492266483571432,-5.541610399190475,0.4225201490238098,19.80089948052381
2.31750574,1.5204966464523808,-5.55477260347619,0.46583377150000027,19.754098248142856
2.334309931,1.6330810188,-5.468161945857142,0.3908896102666669,19.856231828619045
2.351119429,1.843512747847619,-5.311316898714285,0.3276626088700003,20.025444075285716
2.367929978,2.0804658871809525,-5.055841355095238,0.3292090939176194,20.292641811666666
2.384730717,2.3647396762285715,-4.772988001571427,0.1757180169652384,20.590711797
2.401541246,2.6504808578000003,-4.528478304809523,-0.019506239796666377,20.84080486542857
2.418348475,2.870544975609524,-4.364744277714284,-0.166528848295714,20.98264520004762
2.435152267,2.9948711280809523,-4.320961816285712,-0.1705561014052378,21.01872930195238
2.451961137,3.079297638980953,-4.319715954380952,-0.16166611973857115,21.012243677190476
2.468770118,3.133810732942857,-4.349729674857142,-0.1710281191195235,20.974424366238093
2.485569934,3.1772282690238094,-4.359782673714285,-0.11426989697190448,20.96651227257143
2.502381447,3.0940883385666664,-4.24857689147619,0.11111949279000026,21.075766766761905
2.519191863,2.8896451903761906,-3.2511978610952377,1.1858064288376193,20.44962829857143
2.535987873,2.4209393205190475,-0.357247625761904,1.2607242334566668,18.446826276238095
2.552799213,1.3851487919,3.768274170238096,-0.3487660303528571,14.757029551666665
2.569612478,0.6545598961380952,6.6832763117142875,0.12481591951380963,12.654679320333333
2.586415721,0.46370152066190473,8.565736133619048,0.825697116894762,11.564530519380954
2.603223318,0.45715028900476185,9.994840984095239,0.5905195431804762,11.206883038904762
2.620032697,0.5113670826238095,10.831514402809525,0.23646665894238103,11.192719279809523
2.636838635,0.5304202636238095,10.872333116761904,-0.879499570105238,12.124742316809524
2.653630912,0.4446281393428572,10.735388890904764,-0.7792800620952381,11.991876102380953
2.67045214,0.36895502467809527,10.25230725504762,-0.27832566119047625,11.861607200380952
2.687260927,0.90060732744,6.3455200183809515,0.7629914499666667,14.72167140038095
2.704065544,1.7602736522495235,1.6005655002857144,1.4678415283633333,18.332775323714287
2.72085943,2.1055045496780953,-1.484435354952381,0.514237568125238,20.165427639904763
2.737679142,2.0301918443923808,-2.998798598285714,0.2387798112680953,20.271611994666664
2.754481398,1.843356402125714,-3.6975175319095235,0.11748813412523813,19.740927574571426
2.771290238,1.719626724693095,-3.895877021147619,-0.03908296104238089,19.55841672914286
2.788102818,1.701509447297857,-3.8898742768619052,-0.21358704245666663,19.577295245809523
2.804907914,1.7287390004740475,-3.8030604863857143,-0.4345297440757142,19.679115341523808
2.821721238,1.7624415357607142,-3.6823602401952384,-0.6261308615042858,19.801029032
2.838521957,1.7791222418749997,-3.5539873667190474,-0.690730727485238,19.919978471857142
2.855327113,1.7783125667321427,-3.4698587142428567,-0.6537715107709523,20.010478817
2.872133226,1.794692530513095,-3.473930676480952,-0.5348365388185714,20.049439899
2.888946164,1.8078488309892855,-3.4585036320523805,-0.41485907596142857,20.105824123714285
2.905748116,1.804274902417857,-3.4004373547190476,-0.36163322377095236,20.174417801619047
2.922555246,1.795200600465476,-3.3614812576238093,-0.3495193375519047,20.214899335809523
2.939363696,1.7721313322749996,-3.3594342181000005,-0.29851311126619046,20.211235820095236
2.956170145,1.7487335971083329,-3.3722383857190477,-0.28683756040904757,20.19776549342857
2.972978211,1.7628081043178572,-3.2780962892904766,-0.24390063926619046,20.27993524238095
2.989784231,1.8378006361464285,-2.923383893814286,0.7992821977004761,19.69250126990476
3.006587372,1.962099401703571,-2.7737692418142856,0.829953518909524,19.82933620090476
3.02340273,1.9871318595540477,-2.413512320147619,0.4350128190523811,19.833935812
3.040205162,1.3353417063635713,1.339634623614286,-0.5107123496142856,16.80692072590476
3.057020478,0.36537510174452364,5.916591872185715,-1.163736358947619,13.013934151619047
3.07381835,-0.08479606254119061,8.797085762661904,-0.2100743948523809,10.962835170190477
3.090627433,-0.16823039449357158,10.125249182185716,0.20887676457619048,10.648208464000001
3.107434665,-0.17730072847452394,10.433057922,0.07093563114761907,10.897236260904762
3.124239403,-0.17774547562733348,9.94349211809524,-0.20013018304285715,10.898151769
3.141052606,-0.12622311851304774,8.729209628095239,0.06030252581428571,11.035603325666667
3.157855087,0.23459246331552364,5.381138665714287,0.9841088639095238,13.324104725666668
3.17465833,0.5891342475431427,1.580431484285715,1.1251906540285714,15.930952772809524
3.191469019,0.788751363776476,-0.9792154399999993,0.7374678439142857,17.353755567095238
3.208277075,0.8497933603479046,-2.5030263719047614,0.6960539463428571,17.78879681757143
3.22508166,0.8736930915336187,-3.3821184975714282,0.5773592776285713,17.721392434761906
3.241870104,0.8815635159145712,-3.9159961881904755,0.3251419706619047,17.27754301652381
3.258698768,0.8757742530098094,-4.202548549333333,0.08914557109047613,16.9982855767619
3.275491095,0.8563330627717141,-4.267829418095237,-0.06580891628095242,16.953089101380954
3.292309414,0.845615023676476,-4.198012829047618,-0.14830097261428574,17.03731140995238
3.309117876,0.8614310196479045,-4.072442032380952,-0.16927769770952383,17.163108192809524
3.325923878,0.9579257000098094,-3.940183389999999,-0.11765276666666669,17.29456448852381
3.342730671,1.127081286324095,-3.762892882428571,-0.08919185390476192,17.497099437190474
3.359537688,1.2627174911002854,-3.597578344238095,-0.09666291862857145,17.682042072952385
3.376344442,1.3108586981050474,-3.4799787662380943,-0.0908070120571429,17.80340449147619
3.393152476,1.2770730086593332,-3.410825525714285,-0.03899975610476194,17.879587381857142
3.40995995,1.1826625380974283,-3.384378729047618,0.038198209990476156,17.919047312809525
3.426767518,1.0589068219545712,-3.4046681499999987,0.0884993190380952,17.908436921380954
3.443572682,0.9373015959545712,-3.4514478733333323,0.07793318660952377,17.862901441857144
3.460380087,0.842040640916476,-3.257584595238094,0.42025381329999995,17.922925618380955
3.477189404,0.7359355744542855,-2.704177652761904,0.8380049467571428,17.969367284761905
3.493987318,0.5488761833590474,-1.5662945119999994,0.7272144598904762,17.755362652857144
3.510797997,0.03661627993047599,1.6532161569523816,-0.021351546023809585,15.33858416095238
3.527610712,-0.4674997443552383,5.312301158142858,-0.05960226056190482,12.605247773333334
3.544413506,-0.826378334164762,7.746336731904764,0.2850114575809523,11.090270363809523
3.561224106,-1.0338290305457145,9.186235495380954,0.18759446346666658,10.589015103809524
3.578030115,-1.2129811899885716,9.859027544047619,-0.4344201724857143,10.730173939952381
3.657861326,0.9651939527257143,6.793364751095239,-0.7329404962809524,14.444236754380952
3.674666989,1.9068276880590478,5.409250962714287,-1.2321940360428572,15.745177832714287
3.691473112,2.1568618954876193,4.472180433857143,-0.9822768808047618,15.810905065714286
3.708285724,2.151141552582857,3.6417992677142865,-0.577108903804762,15.591656119000001
3.725085122,1.979747510992381,3.020828360128572,-0.2603974326142857,15.206382389571429
3.741898183,1.6569265637066666,2.72617862274762,-0.30856248432380956,14.98492143995238
3.75870223,1.3373523892780952,2.608575320842858,-0.4084349144809524,14.864885519000003
3.775520884,1.0924870285638095,2.603149549890477,-0.49504696026190487,14.84609742757143
3.792316957,0.9838960737495238,2.741817791795239,-0.6761133938333334,14.987616138523808
3.809123119,0.9868042638409523,2.95035589274762,-0.7741403591809525,15.184127053761905
3.825930696,1.0475097283552381,3.1025323865571437,-0.8197096541333334,15.323511442333334
3.842738364,1.1239265656885715,3.1951483313190487,-0.8451028506571429,15.405887903761906
3.859546196,1.2118975264076188,3.243072055128572,-0.8244625001333334,15.45210658852381
3.876350293,1.3192155374790475,3.2651781803666675,-0.7312825163952381,15.479365634714286
3.893160373,1.4432732987219048,3.2873099186523818,-0.613304763804762,15.502073252333332
3.909970687,1.5626600793638095,3.3055702840809533,-0.5067943559380952,15.520905481380954
3.926773156,1.6830528021209525,3.32408886822381,-0.4158960323095238,15.532955352333333
3.943579064,1.8086923599685714,3.34003330374762,-0.3185149017476191,15.533535445190475
3.960387466,1.9555194900495239,3.3547431395095244,-0.2389683210333334,15.519102901857142
3.983484143,2.1093155866733335,3.377494039414286,-0.2616605252666667,15.502760109000002
4.000301626,2.2786517466733334,3.610392411128572,0.18646899797142846,15.39467144090476
4.017114543,0.12323736699714287,7.217430818414287,0.47010708930476186,12.070175131333334
4.033922206,-0.7467947589504762,8.869978836033335,1.0239109447,11.006859184190475
4.050726219,-0.8812730640361905,9.847197782223809,0.7757477441285714,10.968920364190476
4.067531791,-0.7236368473219048,10.521161465176192,0.40305997293809526,11.028370378666667
4.084339027,-0.44273538694095244,10.760739598714286,-0.11032718487142856,11.18488245447619
4.178879842,-0.13158593736952381,9.713129338476191,-0.6105544320142856,11.633736661238094
4.19568512,-0.02018824521714285,9.30053050152381,-0.7943207403,11.369304313714286
4.212492199,0.00084836264000001,9.175636132,-0.9990059855380952,11.306586980857142
4.229301484,-0.010917702117142856,9.037548087714287,-1.0713278659666667,11.190357168
4.246101706,-0.037052862924761905,8.920309634380953,-1.110902554357143,11.073907086095238
4.262916485,-0.025759807881904757,8.970963909619048,-1.0622056731190475,11.131829498
4.279707441,0.03644738711809524,9.076040881047621,-1.1282682455809525,11.234331171333334
4.296529493,0.09714325668476191,9.198009695333335,-1.2503826584190474,11.352160354666667
4.313333631,0.1277286350895238,9.310180913904762,-1.3361532824285713,11.453882274666666
4.330141708,0.1294872275561905,9.379758176285716,-1.3577004693809525,11.518223076571429
4.346947921,0.11927860682380953,9.415205887238095,-1.3918534483333334,11.54565230895238
4.36375977,0.09013926406190477,9.426867825571428,-1.4203932364761904,11.553011314190476
4.380561447,0.045894775976190495,9.418291250761905,-1.4281312022857142,11.547781133238095
4.397370092,-0.012644024199999987,9.392497221714287,-1.3985447054761904,11.535208658
4.414176519,-0.07448863706190474,9.362691765809524,-1.3138448781761904,11.521687813238096
4.430983751,-0.13924374758571428,9.340053580952382,-1.244103424742857,11.506511437619048
4.445689134,-0.1797932160047619,9.35796526509524,-1.2731549443142858,11.530581545285715
4.462497408,-0.22167155577142855,9.376004923190477,-1.3300471264714286,11.558596123380953
4.479304618,-0.2576901969952381,9.427459739380952,-1.3244600028047617,11.60758677004762
4.496112704,-0.2795068707285714,9.59729242304762,-1.1867906325238096,11.76053239657143
4.512913974,-0.17839622501428573,9.860327493285714,-0.7705005536666666,11.891949888285714
4.529727669,-0.09844766349047618,10.67631026652381,-0.43750711423809513,11.315024619619047
4.546532835,0.1660271201190476,10.443818773285715,-0.321173357142857,11.326849295857143
4.563338336,0.6274919168809523,8.672734351380953,0.3125551470476192,12.157249571571429
4.580136571,0.9917846406904761,4.466134570904763,1.7629515711428572,15.393713081095237
4.596954183,1.0948946929952381,0.432182130428572,1.3382547794047621,18.19634740347619
4.613764486,1.0193985218095236,-1.7474070957619043,0.5794422382619049,19.071262888238095
4.630566952,0.8955730966190477,-2.87154524647619,0.5529989498242859,18.804692283238097
4.64737375,0.7839911069380952,-3.4069875307619046,0.5583087217480953,18.269383165619047
4.664178722,0.7253360833666667,-3.620379515809523,0.40478646304333354,18.07186075542857
4.680990695,0.729355289847619,-3.6257472034285714,0.2013923963290478,18.071390847809525
4.697793428,0.8323848162714285,-3.517173607714285,0.03968220785285729,18.18248310257143
4.714605517,1.0187284662761904,-3.280304204380952,-0.11035823133761889,18.426834246380952
4.731408018,1.2280823106095238,-2.9995146929523804,-0.31494483938523793,18.71682607019048
4.748218738,1.4190472364666666,-2.7726678619999996,-0.48078167886142836,18.936242797333335
4.765020008,1.5379938880714288,-2.636590843761904,-0.5054362205757141,19.056380138285714
4.781820364,1.593482894580952,-2.567173344619047,-0.4068535497709522,19.13020429342857
4.79863767,1.5853818626761904,-2.555922803666666,-0.20990544158047603,19.159900046285717
4.815445246,1.5487682393428575,-2.572934718428571,0.01801464789571445,19.15655220295238
4.832250383,1.4837368471285715,-2.6237629255714285,0.21071771899095257,19.10671621342857
4.8490586,1.3510720361,-2.7370478993333327,0.2065404211242859,18.99900533961905
4.865871319,1.0739250154809523,-2.7891852287142855,0.05513802712428587,18.92583430390476
4.882671923,0.8380297451,-2.4510152225714283,0.21931032455285726,19.096117344952383
4.899478213,0.5357218214809524,-1.865701289333333,0.3091466268385715,19.273548714809525
4.916287005,0.09661704872380954,-0.10006325599999948,-0.11508875116142846,18.371896338619045
4.933096647,-0.22527987329523805,4.02703655304762,-1.4317966175423809,15.02674226861905
4.949887633,-0.25232455558095235,7.9624104949523815,-0.840825987828095,12.145846798142859
4.966709308,-0.025697852866666683,9.723979563333335,-0.3153217619709523,10.904211478333334
4.983512125,0.17162241541904763,10.025130611904764,-0.48649812459523795,10.733658901380952
5.000321726,0.29021567676666665,9.56772172957143,-0.22595741639523806,11.01824342047619
5.017128809,0.38978524719523805,6.305995123190477,0.969680445557143,13.644793567809524
5.033924149,0.5335485622904762,2.3256473536666675,2.0853908174142854,16.650741631142857
5.050743633,0.560429116052381,-0.3203568234761892,1.2566378568428571,18.23155112685714
5.067536149,0.398797690847619,-1.8629228958571415,0.6544153802714285,18.547807754
5.084354184,0.11023767503809526,-2.8499494282380944,0.404941206747619,18.243188067714282
5.101151227,-0.17401653529523808,-3.4734004338571416,0.38826904398571427,17.76763095209524
5.187293502,0.12779453819523812,-3.2893294833809508,0.3042979466380952,18.012717715904763
5.204108973,0.3755302883047619,-3.0983368552857136,0.16392938284761902,18.217411035904764
5.220908575,0.532174144447619,-3.0250996176666654,0.08573626327619045,18.27383694542857
5.2377267,0.5784673690619047,-2.9810231976666657,0.06863202356190472,18.306547444952383
5.254519669,0.5450913054428571,-2.9561722614761896,0.07448415518095233,18.338171806857144
5.271336128,0.47820425596666666,-2.9531820381904756,0.06524006372857138,18.35680594447619
5.286040895,0.4396015064904762,-2.9956595096666656,0.13617669533285712,18.320902201238095
5.302847592,0.4124652033476191,-3.037758463238094,0.2687577476661904,18.28160837338095
5.319654946,0.3934972399666667,-3.0573372152857132,0.41515919842809523,18.270139625666665
5.336460599,0.3706614516761905,-3.0657426281428557,0.5528357553328571,18.26777944804762
5.353267907,0.36185764696190476,-3.0450409019523796,0.6039143672185714,18.28539081804762
5.370077967,0.34677812595714286,-3.0320731562380945,0.4421347833233333,18.278366774714286
5.386885309,0.2802880547666667,-3.0163324891428562,0.2630084752280952,18.352628335857144
5.403687896,0.10458891158571428,-2.7476404498095226,0.18531986070428572,18.37944972695238
5.420502045,-0.0759033759857143,-2.2514551697619036,-0.05840775520761906,18.153189613714282
5.437300721,-0.25641116074761905,-0.8810729516666655,-0.5390960775885716,16.702616544190477
5.454110856,-0.2760599170333334,-1.6914603359523799,-0.21275880806476183,17.571374561809524
5.470916124,-0.3034418934619048,-2.66245755595238,-0.06913214092190476,18.443541724190474
5.487725252,-0.2530374015857143,-3.0093738454761896,0.23194851726857138,18.609447172761904
5.504531333,-0.0994092793552381,-3.1672990425238083,0.6893848347447619,18.549899975190478
5.521345218,0.09389410131619044,-3.2070333379571423,0.7044430059352381,18.413273934476187
5.538145145,-0.14875748611238096,-3.6690018282428563,0.5678626636161904,17.94000342742857
5.554940632,-0.24004657496952383,-3.8633504815761897,0.43677417974,17.749781574571426
5.571759551,-0.20404816244571433,-3.824739205861904,0.3080652495019048,17.793012320285715
5.588565851,-0.004535442345714309,-3.6971728682428564,0.2328819601161905,17.925667387428568
5.605373189,0.35076185060666665,-3.4432895515761897,0.29643575321142857,18.208459190761904
5.622170803,0.7789588938923809,-3.14323995157619,0.32042824199238096,18.533209191238093
5.638988007,1.0960075797495237,-2.882706346433333,0.18612947748333336,18.807113187809524
5.655807155,1.2423227513685715,-2.7574884093857137,0.12894004414523813,18.915972051380955
5.672600812,1.2807583098304762,-2.698712098957142,0.14338634809761908,18.971017065285714
5.689408623,1.2608292981638096,-2.687933580861904,0.20081290290714288,18.996883021000002
5.706218055,1.171963893135238,-2.7276478489571425,0.35359541973571434,18.98899804480952
5.723021746,1.025576100378095,-2.7939564156238093,0.5109072438214286,18.95395751195238
5.739829802,0.7981499234257141,-2.632196630385714,0.8997440477261904,19.019547280142856
5.756638599,0.70078122894,-2.315502893004761,1.20277091125,19.207306347190475
5.773443231,0.6482755541304762,-2.0524886672904756,1.1374691977809523,19.474731892333335
5.790247568,0.5669484904161904,-0.161204723766666,0.468480141304762,18.32087874352381
5.807060572,0.2490878416542857,4.491950739090477,-0.8198794524761904,14.331465245333334
5.823868072,0.0008160697971428503,7.9501155899,0.049276295190476126,11.747517862
5.840673559,-0.18418396382666666,9.603803293709523,0.48078568780952374,11.04054996295238
5.857477184,-0.3310698584380952,10.352043083423812,0.33481348133333333,11.01891981904762
5.874285401,-0.47923122430000004,10.518937360380953,0.3042443990952381,11.195052406952382
5.891099072,-0.7192164859190475,9.496857643047619,0.5514797426666667,11.582118519238096
5.907887281,-0.15508095706190483,5.523126829238096,1.726001540952381,14.693523167333334
5.92472425,1.1569286271285713,1.1901912235238101,1.9585401956190476,18.051641061142856
5.94151398,1.6622571690809522,-1.0182900202857137,0.9115711562904759,19.322656315904766
5.958321648,1.492427914033333,-2.528349331714285,0.6072242201952379,19.282102295428572
5.975129526,1.0463816070809522,-3.7769098284761897,0.5959324381333332,18.95752177638095
5.991923258,0.7267740881285712,-4.73817294,0.6674937462761903,18.54016266433333
6.008743337,0.5954928087476189,-5.231469790095238,0.6011697648523808,18.11945237895238
6.025550771,0.5908237527142856,-5.32765483842857,0.4433964233761903,18.01756591685714
6.042344219,0.6950503022047617,-5.243185316047618,0.353328276090476,18.078780590190473
6.059170442,0.9728277242523807,-5.043313253666666,0.3439020683285713,18.28175600352381
6.075962708,1.5614272017285713,-4.587923595095238,0.31753994442380934,18.824860232095237
6.092775045,2.191151079680952,-4.166566531047618,0.11526419709047604,19.361169049238097
6.109574954,2.5598669335857145,-3.8553728832380947,0.053616580409523676,19.690771578761904
6.126392591,2.7372432492761902,-3.6112304871428567,0.22443102640952367,19.91442191204762
6.143185381,2.824469396038095,-3.3927529654285706,0.40834140764761895,20.106184640857144
6.160004424,2.8921528316571425,-3.25042706447619,0.41804896919047607,20.224826933333333
6.17681345,2.9519206682761903,-3.221819150999999,0.3230632457190475,20.22454893047619
6.193616423,3.0031610443714283,-3.2750980738095232,0.27156850823333323,20.15560667909524
6.210429173,3.0099584035142857,-3.212526639095237,0.3620950890619047,20.208584407666667
6.22723263,2.988942486942857,-2.9868748526666655,0.539070986442857,20.399555761238094
6.244041219,2.9816030434666665,-1.8673149744761899,0.5538440600619046,20.103619864142857
6.260848192,2.116447039942857,1.9676456451904767,-0.37011113079523816,16.875202265380956
6.277654944,0.501022883895238,6.05879311352381,-0.4232002953190477,13.322275808904763
6.2944628,-0.33578080239047636,7.996429125571429,0.7209589083952381,11.820034321714285
6.311268181,-0.5628382252952383,9.183177357809525,0.9997258016333332,11.532075467428571
6.328076896,-0.5322629612476193,10.112597647333335,1.0508732398571428,11.51615560504762
6.344886035,-0.42843030765238116,10.680495080666665,1.0846344289285714,11.50862502904762
6.361687911,-0.3762259712142859,10.293905576285713,0.9497136502142858,11.756942615666667
6.37849805,0.11684173611904747,7.541058540333332,1.258289104452381,13.727584651095238
6.395304453,1.756820309533333,2.798529716047619,2.463588720547619,17.815018167285714
6.412109803,2.4553358384380948,-0.04775624061904742,1.612037846452381,19.536957051571427
6.42891537,2.1332884231999993,-1.946479388714285,0.8287240043571429,19.667898340619047
6.445725897,1.550803434438095,-3.3357925868095233,0.8064623677380952,19.15154391538095
6.462530702,1.1284530731999998,-4.196902320380952,0.8271699863571429,18.54680481709524
6.479339367,0.8970671155571426,-4.618987537428571,0.6399381959285714,18.196719874142858
6.496144971,0.8363217570809521,-4.776721590999999,0.4762948698333333,18.049682889380954
6.512952771,0.8553433589857141,-4.770477658142856,0.4343914294095239,18.050696196047618
6.529748151,0.917776411633333,-4.653041884809523,0.4423663549047619,18.159986771285713
6.546568982,1.1095496559190472,-4.43703415247619,0.5219297994857144,18.376615213619047
6.563370369,1.5527551714428567,-4.1338347474761905,0.5867036712761905,18.724818081380953
6.580181497,2.104789322442857,-3.782891908857142,0.5290793071095239,19.133716501
6.596975641,2.507529573871428,-3.468696185142857,0.4135879254095239,19.438276135714286
6.613793908,2.7519653611095234,-3.2263222190952376,0.27858908728095244,19.629269297333334
6.63060173,2.916284530080952,-3.052509852666666,0.15269774451428578,19.74283871190476
6.647408651,3.0425564364142854,-2.9575063161428568,0.022640606876190524,19.781778255761907
6.664214788,3.1485679292714286,-2.931105477571428,-0.08270738129523804,19.76750386347619
6.681022402,3.23088829017619,-2.9378183910952376,-0.1323479232714285,19.738141692047616
6.697832154,3.2042616011047613,-2.784400667571428,-0.06346370099047614,19.894791575190474
6.714637951,3.1940692976666663,-2.016940480333333,0.17584356350476196,19.95833944419048
6.731446409,2.723046112733333,0.7773130962380954,-0.07180200479047612,18.023526190238094
6.748250135,1.0484002915,5.428087189095239,-1.3157768297666665,13.842002212619047
6.765059248,0.1955373371666665,8.098756154809523,-0.5767472776857142,11.910273871190476
6.781865486,0.15554527721428554,9.63935307147619,0.13715992442857156,11.313656795
6.867988094,0.272310566290476,5.572907311952382,1.0090257871904764,15.424700057380951
6.884808254,0.5040437805761903,3.35460031647619,0.03197119410952388,17.72898591757143
6.901610064,0.7016926918399997,2.397546541619048,0.2016913443000001,18.106701574809524
6.918425636,0.8473418695204759,2.0489324620000007,-0.07786466898571416,17.972878596761905
6.935227171,0.9022282021204762,1.775649570619048,-0.2784484320380951,17.752963294857143
6.952035206,0.9110213773395236,1.538165637619048,-0.3255083086190475,17.515329606857144
6.968844318,0.8354603307538093,1.376450039047619,-0.3828425443666666,17.34241021495238
6.985647887,0.6135925764204759,1.2545329952380955,-0.46994820458095227,17.158059247809526
7.002455271,0.42669983989666643,1.1606913971428574,-0.43854263788095227,17.001479984952383
7.019251526,0.6118404950395236,1.204596564761905,-0.35811645865714276,17.11675386542857
7.036069722,1.0151674718966663,1.3063966204761908,-0.337835498595238,17.34885907304762
7.052868083,1.2854946596395236,1.3707090104761908,-0.3038946036238094,17.460984677809524
7.069684785,1.3986192005442857,1.4389114380952386,-0.2796858521619046,17.53104534304762
7.086479697,1.4234386257204759,1.5155412582380956,-0.3089966519380951,17.605175721523807
7.103297009,1.4142656752442857,1.5847134818571433,-0.36656365800476176,17.674747606285713
7.117991464,1.3970823032919046,1.6170945393809528,-0.4186375986380951,17.707302454047618
7.139040337,1.3990038151490474,1.6024049576666672,-0.423229412747619,17.692215706
7.155819561,1.3998353453585712,1.5672907147619053,-0.4128494497666666,17.657394189999998
7.1726289,1.4100035287771426,1.5184849783809529,-0.4005076424809523,17.608944030285713
7.189436934,1.3975810182199997,1.4672171726190482,-0.3720620665619046,17.55979458304762
7.206230453,1.3010278401438096,1.3716000597619054,-0.36193642948571414,17.45475253542857
7.223048598,1.2894030100342857,6.464665957380953,-1.1083239316095237,13.357309685904763
7.239858464,1.248521552267619,9.183419817428572,-0.32190452865714264,11.297097939714286
7.256664399,1.161754145575238,9.994269188809524,-1.0073948189904758,11.201226610190478
7.273469945,1.0434961631804758,9.969346568142859,-0.6344991212428569,10.996011636333334
7.290280168,0.8253645272947617,8.833227792857144,0.46319291447142874,11.904977707285715
7.307083045,0.5218625409519045,5.439263706809525,2.166252479933333,15.002465581
7.32388436,0.839106366775714,1.6559491834761917,1.509508590157143,17.880997324809524
7.340700046,1.0666248230614284,-0.8439961846190466,0.8121971662285713,19.328387440047617
7.35750778,0.7395139875852379,-2.4959352589047605,0.9404835818380952,19.641247286714286
7.374311959,-0.04125899360523831,-3.7973496127142843,0.8524014130571428,19.431086845285716
7.391121784,-0.8192364375100002,-4.738008318285713,0.5789352886476192,19.051001425761903
7.407929488,-1.137881432319524,-5.233462697619047,0.3964981497285715,18.599651895809522
7.424735391,-1.0045061396052384,-5.397200448761904,0.271489719952381,18.487523211761907
7.44154249,-0.5960498197338098,-5.357178461619047,0.21170947704285717,18.64310938604762
7.458348541,-0.020720663590952745,-5.107520240666666,0.3478095194666667,19.047199425571428
7.475157395,0.6114048046471425,-4.790206228761904,0.3808257434619048,19.530028328904763
7.491962348,1.0520196695519044,-4.569351424095238,0.21669652031428574,19.865080437666666
7.508769121,1.203295128323333,-4.405526162047618,0.23244778140000003,20.042051675714287
7.525577939,1.183560463280952,-4.298492886619046,0.3333739777095238,20.162878547809523
7.542382647,1.1111083154571424,-4.240605309904761,0.43827303218571434,20.24514356885714
7.559189364,1.0125396602476187,-4.211861247999999,0.5144426194714287,20.29322187266667
7.575998029,0.8726943968523806,-4.238662175619047,0.6011135610238095,20.284859801714283
7.592793313,0.7313176176666664,-4.167848042809522,0.7850494076314286,20.334769303619048
7.609613041,0.6849867059047616,-3.83005814395238,1.3210763395838097,20.188457989333333
7.626413802,0.6601609285714284,-3.5094510494285704,1.235126325455238,20.475817018285714
7.643224573,0.7645221902380949,-2.2546154665238087,0.3635107904838095,19.65119267795238
7.660020804,0.9511509747142852,1.192311830952382,-1.2027236165161903,16.643194544333333
7.67684045,0.49455516785714254,4.950463612142858,-0.4653729255638094,13.768633571
7.69363495,0.07593672723809487,7.341314088333333,0.2841815891504763,12.221688686714284
7.710454128,0.10972931376190437,8.819341750238097,0.14455313908857154,11.712371964809524
7.727261609,0.3865248713333329,9.852658589761905,0.2522871806314287,11.561013740523808
7.744065609,0.6016394308095234,10.476237433380954,0.46668075091714295,11.509167631190476
7.760884102,0.5635072798571424,10.588763940952381,0.2800639214885715,11.728248076904762
7.777681024,0.16094625104761867,10.087176618190476,0.3424867987314286,11.510982794428571
7.794489236,-0.04237307147619086,7.105127766285715,0.9244394557790476,13.27613628204762
7.811298267,0.8812219485238091,2.2135238424761914,1.6066396718742857,16.78031836061905
7.828103154,1.058080487571428,-0.431666805142856,0.918605640017143,17.897113930142854
7.844913726,0.7961269407142852,-1.9150394932380943,0.707981649112381,18.03783894442857
7.861720225,0.5409144748095233,-3.195638542285713,0.6797048763847618,18.14465138204762
7.878524415,0.3901011152380947,-4.3587250703809515,0.6059406827180952,18.241502325380953
7.895330476,0.33892393147619,-5.169953368238094,0.33663141176571426,18.03809244419048
7.9121376,0.44579505957142807,-5.559524308380951,-0.05639263542476194,17.79651848247619
7.928950319,0.7107656232857138,-5.614242098999999,-0.3688038301866667,17.79681745104762
7.945753034,1.0192702388095232,-5.508049555666665,-0.43912711579428565,17.91654746057143
7.962558745,1.2745639600476184,-5.3100382935238075,-0.2770791392704761,18.108377367238095
7.979367354,1.5125893755714281,-5.067718277999998,-0.09272722955619046,18.345129849238095
7.996175184,1.8060515839047615,-4.808288482809522,-0.030902606965714268,18.602611014333334
8.01297972,2.1441534137142853,-4.555100758380951,-0.09804008106095238,18.847300829857144
8.029774719,2.4916988331428565,-4.352930295761904,-0.17331833485142856,19.056085451285714
8.04659702,2.718016704333333,-4.195863178619046,-0.17538927832761902,19.21129707604762
8.063385615,2.7817582747761898,-4.082356634333332,-0.2004981848133333,19.316140259380955
8.080209128,2.7899233163952375,-4.012431326238094,-0.2815670397590476,19.377984542238096
8.097014919,2.804850101919047,-3.907572428095237,-0.19372915350666664,19.471344559666665
8.113822241,2.832724321919047,-3.6577059196666655,0.1935591983314286,19.531119075809524
8.130631543,2.9589174593476186,-3.0957033743333318,0.28549654161238097,19.763643346238094
8.147422702,2.70183227225238,-0.2513235405714274,-0.16000581905428565,17.75621296885714
8.180973666,1.2305859812523805,4.311567420476192,-0.961842533887619,13.765777755238094
8.197861098,0.4812446010714282,6.5870505064285725,-0.3490237991257142,12.11054271504762
8.214652739,0.3843120990380949,7.825606641476193,-0.09974372107809511,11.61924472847619
8.231472478,0.5744715220380948,8.83647208004762,-0.3604753330266665,11.324137165809523
8.24827978,0.929171599180952,9.535701956476192,-0.9133903441695237,11.21502582152381
8.265090448,1.2240466873714282,9.79175524527143,-0.8598878072171426,11.069942703809524
8.281885646,1.2044806509666663,9.389612652414286,-0.09913581031238083,11.352909328857143
8.298697653,0.803593445490476,6.990775244938096,1.8834607007352384,13.475049756952382
8.315507707,0.6866697840142854,3.130160059700001,2.8961213063066666,16.27088378647619
8.332312945,0.8857932120142854,0.09103952160476358,0.7110491568780952,18.80447328552381
8.349122566,0.986123496680952,-1.8909170512523794,0.01570195006857159,19.581197349809525
8.365929995,0.7884196469714282,-3.2394718893476173,-0.1499349185980951,19.570814209809523
8.382734998,0.4418381197809521,-4.289836973966665,-0.2867784806933332,19.270368178523807
8.39954462,0.19480454644761871,-5.064475013490474,-0.36717069378857126,18.685631850761904
8.416348896,0.2842255235428568,-5.5248322254428555,-0.5131442513123808,18.319178009857144
8.433159082,0.7173771546714283,-5.6709609254904745,-0.5602356317838094,18.328205066047616
8.449964147,1.2550562932904759,-5.614410626919047,-0.5246052254142856,18.529537832714283
8.466772359,1.6882953672428567,-5.442999112633332,-0.4954716870095236,18.776943752714285
8.483579346,2.0590634601476188,-5.122748828823807,-0.46228130889523794,19.142231247952378
8.500385697,2.4120660991952376,-4.708906945490475,-0.703591070895238,19.60484102261905
8.517191366,2.7374261021952377,-4.541022981633332,-1.0665425653238094,19.872680864285716
8.534000312,2.9278680313380954,-4.495791162680951,-1.1059175781571429,19.94180418885714
8.550805372,2.9678325454571426,-4.455517859585713,-0.9395251666333332,19.993131403809524
8.567631487,2.8580984757285712,-4.4145723523476175,-0.7420980527761903,20.03952728090476
8.584418948,2.6894327260619044,-4.308524767442855,-0.38364752649047607,20.075181678619046
8.601215346,2.3758605690619046,-3.959609440299998,0.3129221206523812,20.018130022904764
8.618033445,2.0454826270142856,-3.474522999238094,0.5760149450333335,20.336907154666665
8.634834258,1.8813544597047616,-2.7165228978571414,0.23056938003333355,20.28750440038095
8.651658107,1.9743602758476189,-0.2778766721428558,-1.4790389422047618,18.155358473238092
8.668445922,1.7891310311809523,3.480905759761906,-2.3944365521857143,15.24337937847619
8.68526324,1.359373526942857,6.371207327857144,-0.2859805111761904,12.555482834190476
8.70205681,1.047447286942857,8.16150424561905,0.176365713252381,11.590563350857142
8.718879248,1.0097975929857141,9.13630941904762,-0.3286678080809523,11.561086593238095
8.735685345,0.8823967178904761,9.48676029809524,-1.2043071329857142,12.154405540714285
8.752492002,0.6727752430333331,9.44920800952381,-0.8173082468142855,12.480625422333333
8.769294014,0.39176211755714274,8.746870562904762,0.17288983185238113,13.23497241990476
8.78610477,0.5464636230809522,6.400537922,0.3448685950142859,14.594946548476193
8.80291907,1.2639605403190473,2.6712187581904763,-0.16803662793333315,17.188109142761906
8.819718418,1.2568894085571425,0.32111356342857195,-0.43846233363809506,18.133858218952383
8.836527959,0.8320422711761902,-1.2906714165714281,-0.3021663792571426,18.133769834190478
8.853331924,0.314366984890476,-2.6095024970476186,-0.07776945791904744,17.718177771809525
8.870140188,-0.05644702068095263,-3.598679020190476,0.14030023170000017,17.40404604214286
8.886951396,-0.2405861985809526,-4.331481819761905,0.21978558851428592,17.140802876666665
8.90375319,-0.2508644604238098,-4.777234735642857,0.1232445087666669,16.68835044517619
8.920560594,-0.0923029298523812,-4.872082982452381,-0.07291647751904738,16.596457277033334
8.937370251,0.16216438719523787,-4.7300747459285715,-0.32077181156666645,16.749973336271427
8.954172471,0.45434199624285687,-4.5281490142619045,-0.6440737853761903,16.925380349128574
8.970986456,0.7740136270999998,-4.355447223880952,-1.0103696566142855,17.072895955319048
8.987784411,1.169995688242857,-4.245119775595238,-1.4128931742333333,17.229006860557142
9.004601678,1.4883878287666665,-4.200806344642857,-1.7443178476142853,17.339054163890477
9.02140426,1.612270885953809,-4.188618386547619,-1.8274479461571427,17.337678942461906
9.038210946,1.640959299668095,-4.202846571309524,-1.7839237915476187,17.3220955077
9.055016743,1.6556357456680952,-4.180482681452381,-1.5928213322142852,17.338863333414288
9.071816793,1.626473253620476,-3.983602635833333,-0.9206567445952378,17.200455974366665
9.088626333,1.7752667012395236,-3.482159181690476,0.12221986207142888,16.70308865674762
9.105439423,1.8727334198109522,-2.8850720027857144,-0.1804760196999997,16.731808061414284
9.122224876,1.8144706175252376,-1.943744771547619,-1.0577544215047618,16.12951138655714
9.139053977,1.1380490091442856,0.38077919964285706,-1.188979565362857,14.606791380414284
9.15584891,-0.13965345852238117,3.953409582309524,-0.714930826058095,11.717944448509522
9.172668028,-0.579401700284286,6.088722479928571,-0.48377021299190465,10.484575951366665
9.189473284,-0.5494065880938097,7.390076842785714,-0.6529759637157141,10.13359644279524
9.206281818,-0.4074969774271431,8.366489570404761,-0.5658420565776188,10.172717029938095
9.223090229,-0.3594989691414288,9.191746599261906,-0.29230101476809506,10.2570451677
9.239883463,-0.4784715260509526,9.702276775880954,-0.4177355354871427,10.327428059080953
9.256701863,-0.7495415068604764,9.424478713619047,-0.8482755025490475,10.841551718666667
9.273508295,-0.9020749699557145,7.8743546133809526,-0.6859361444538093,11.669707345333332
9.290319458,-0.642300137479524,4.480764957666667,0.2518570535938096,14.034983182476187
9.307123663,-0.34688945900333357,1.208136128142858,0.4016169990176192,16.06252342533333
9.323933178,-0.16226415128904786,-0.986308982333333,0.10417169039857163,17.084116467238097
9.340739697,-0.2764860647652383,-2.7178413518571425,0.10528158563666681,17.584176596761903
9.357545498,-0.5280824928604764,-4.074181941857143,0.2368546950176192,17.803881598666667
9.374351595,-0.7032125564285716,-5.032492841333333,0.24513643401761923,17.803247429142854
9.391160225,-0.777865358761905,-5.598767802238094,0.20145415396047633,17.494842875047617
9.407967289,-0.7378739345714289,-5.767378011809523,0.0802909702223811,17.314644239333333
9.42477368,-0.5744956675238099,-5.686830088952381,-0.1242749975871427,17.385739599333334
9.44158057,-0.30668720747619077,-5.515319891809524,-0.24908136194428554,17.549910410285715
9.458387685,0.048237403238095014,-5.200358231190475,-0.2381581296014284,17.87464946795238
9.475195647,0.5005669934285712,-4.768177826714285,-0.11886950908238078,18.35632425614286
9.492000005,0.9711011477619045,-4.396866411714285,-0.12161125533238079,18.78764242847619
9.508807292,1.3206320036190475,-4.181242101999999,-0.1274596942990475,19.034722019904763
9.525622702,1.5474716368095238,-4.109136694380952,-0.12135536194619034,19.110599469904763
9.542422416,1.6610501437095238,-4.122017928190476,-0.21866222088904747,19.087430753238095
9.559228212,1.6892762241380952,-4.181527160047619,-0.4189388795557142,19.013238446571428
9.576035707,1.6723091773285712,-4.17718035795238,-0.6416371082699999,18.982723039095237
9.592842649,1.7375193778047615,-4.010516120904761,-0.5204248557033332,19.103399763380953
9.609638736,1.9335425298047617,-3.329148564666666,-0.04765720746523796,18.99443018052381
9.626456597,1.9718899103238094,-1.6927627379047612,-0.024807062989047494,18.241800303333335
9.643256056,1.5662107411714283,1.597914650714286,-0.7384297237985712,15.743377014
9.660072616,1.1290701571809523,4.717927797000001,-0.7006414405557141,13.533653235904762
9.676868657,0.7693853436047616,6.775784084142858,-0.2064947585842855,12.334140554952382
9.758810564,0.5063811995571426,7.968428702990477,0.08292263315857164,11.307147913952381
9.775618416,0.41243791017619025,6.0252017525142865,1.3327607808252384,13.452607335857143
9.79242636,0.5956878378666665,2.405955769133333,3.2042565870157143,17.42912414109524
9.809234332,1.0764133419619046,-0.23979414043809535,0.9954670114538094,20.762422208523812
9.826038959,1.3738604102952379,-1.9768916537238095,0.9634634129061906,21.877325175666666
9.84284852,1.4631078697714284,-3.0830176213428575,1.1304345457633334,21.84360897947619
9.859657511,1.3780946788666666,-3.7582107724,1.1137117246919048,21.25894198914286
9.876460999,1.2381702264380952,-4.311036450495238,1.0105931177252383,20.69235101747619
9.893263346,1.0658344428190474,-4.684451716209524,0.7751601806776192,20.279375940809523
9.910080375,0.9939445655333332,-4.828090599542857,0.6154484351666667,20.136610610809523
9.926883841,1.1843858333428567,-4.738153026209524,0.5159853554952382,20.305760493666668
9.943691305,1.4806192602952377,-4.477908066209524,0.49689812249047627,20.65578365890476
9.960496472,1.7006251528714285,-4.244507040019047,0.5249699375666668,20.922118779380952
9.97728701,1.8495136670142855,-4.081813516733333,0.6625964606619048,21.08194928414286
9.994098666,1.9211245207904761,-3.952275843590477,0.7879181554238096,21.208541031619045
10.01090559,1.9456267130285714,-3.8306613419714286,0.8420036683809525,21.32990701142857
10.02772594,1.947588665171428,-3.738368283876191,0.8744264437142858,21.425086577142856
10.04451642,1.8905190286523808,-3.6761023882571426,0.8959544663333334,21.497536546714286
10.06133962,1.7789432775666665,-3.6477212678285715,0.9348252550952383,21.545195182714288
10.07814666,1.638132452985714,-3.6354871703047618,0.9832866242380953,21.57945916747619
10.09495069,1.5057697182761902,-3.6577459289238097,1.048270474647619,21.58687497509524
10.11176444,1.4807692596095234,-3.284490971295239,1.1017485453333333,21.894802097
10.12856456,1.458733535990476,-0.16987103515238106,0.08290929976190484,19.315481228
10.14537697,1.265752156633333,4.2307340758,-1.8654066046666666,15.228216902904762
10.16218337,0.8318275270619045,7.300018015371429,-0.11033164961904755,12.270685081476191
10.17898908,0.5572580497238092,9.144666376752381,-0.26784740252380945,11.310920357190478
10.19579067,0.47591282077142827,10.223981334847618,-0.4062493819999999,11.314336815285714
10.21259606,0.6614196925333331,10.877356597333334,-0.13096925833333325,11.937922651333333
10.22941075,1.0552975110095235,10.663532983644762,-0.2007417799857142,12.192475375857143
10.24621573,1.3279314268666664,9.377200716978095,0.8573588578714286,13.009640160142856
10.26302252,1.3520538693428568,7.62369301174,1.466409404252381,13.48718180347619
10.27983023,0.9737280663904758,4.180729002692382,1.4504647757761906,15.27976791395238
10.29663746,0.5203985827428568,0.19023495554952435,0.41320988936190484,17.72832890966667
10.31344609,0.3219561803999996,-2.2117189234980943,0.18754725771428576,18.696632945857143
10.33025098,0.2768159196523806,-3.6312213182599993,0.05546093528571433,18.85087088204762
10.34706134,0.2512433188285711,-4.601006781402856,-0.16637630714285712,18.675397828571427
10.36386336,0.20471572873333296,-5.416889782117142,-0.28094332867142857,18.399910041238098
10.3806747,0.21878138039999961,-5.957209542731428,-0.44650137167142856,17.95421324652381
10.39747985,0.39211686449523775,-6.149966013826666,-0.6968863722428571,17.780575043666666
10.41428756,0.6848659628761902,-6.083251545255237,-0.9222981847190477,17.860414428428573
10.43109475,0.9449213232095234,-5.917505174302857,-0.9776459906714285,18.016876827
10.44790291,1.198827811638095,-5.699134872826666,-1.0186490135285713,18.21650470795238
10.46469633,1.5001062324952377,-5.425871985969524,-1.0495525118619047,18.465161281809525
10.4815168,1.8013928163523805,-5.075807027350475,-1.208645006242857,18.76518160033333
10.49830435,2.0132954063619044,-4.765876089731428,-1.1834274730999998,19.014639016857142
10.51512899,2.087804595590476,-4.567416464540952,-0.7378745222714285,18.992782596380952
10.53192241,2.0209732565952376,-4.499078115921905,-0.4699421810333333,19.019752369238095
10.54663488,1.8299703654523807,-4.571011453302857,-0.32009040474761896,18.96210761257143
10.56344702,1.4456377085952379,-4.739616531302856,-0.4616936305095237,18.744292786380953
10.5802591,0.8198216925952378,-4.298099700519048,-0.3036473196523809,18.72684408185714
10.59706494,0.27402968059523775,-3.0641187949476185,-1.295485957852381,17.844975480333332
10.61387703,-0.06787115907619083,-1.499872299280952,-1.7945042296142857,17.106328666523808
10.63068218,-0.09822417160000035,1.7204862316714291,-1.6845912281523812,14.969714882238096
10.6474836,0.010285567619047272,5.471308571671429,-0.6359065135471428,12.182487111761905
10.66429535,0.10872820158095205,7.676101638814286,-0.40008655220428563,10.996845171285713
10.68110186,0.2305436673285711,8.981537546433335,-0.39419600115666664,10.745307392238097
10.69792257,0.38196496451904727,9.866261391480952,-0.2782264688519047,10.837913301904763
10.71472357,0.44836034945238057,10.487252167338097,-0.23527502690428567,10.912082808857141
10.73152314,0.4276051776904759,10.63633521404762,-0.38113547747571425,11.086582151857144
10.74833001,0.2236159784523806,10.102676187285715,-0.2575369984042857,10.997073052761905
10.76513769,-0.2551859872619051,7.080134868714286,0.8047322465957143,13.062751520857143
10.78194272,-0.31990251935714326,1.8913142568095238,1.4933348304528573,16.99376604847619
10.79875125,0.11080627511904731,-1.4891916231904756,0.32778103364333333,19.277928483714284
10.81556347,0.271676588785714,-3.292492480809523,-0.06253676969,19.76414868942857
10.83236407,0.17681074441428535,-4.394386904666666,-0.006897985251904762,19.462772658380953
10.84917053,0.01708347188095203,-5.162049815857142,0.0593640158195238,19.021096546666666
10.86597994,-0.054773935109524156,-5.608194146857142,-0.0648423227709524,18.66287123847619
10.88278534,0.05348369920952346,-5.706891082476189,-0.3206702435804762,18.602024505142857
10.89959513,0.26520007863809486,-5.590721652714284,-0.5375704787233333,18.718149325619045
10.9163993,0.52012925787619,-5.386234078999999,-0.629947732642381,18.90432118990476
10.93320662,0.7925971776380949,-5.12122637895238,-0.5835510428804762,19.15655884204762
10.95000193,1.059485239780952,-4.822814827857142,-0.3536091965376191,19.478984306904763
10.96681576,1.2216877484523805,-4.6113053501904755,-0.17979781763285715,19.709296949761903
10.98362798,1.22534720967619,-4.517639818761904,-0.08314752233285716,19.80740602404762
11.00043631,1.1172953363095235,-4.492121673999999,-0.025222267890476206,19.83149424690476
11.01723356,0.9231933384999997,-4.441657815904761,0.009580143395238074,19.870423011666666
11.03404855,0.6780437941666664,-4.417967183523809,0.061050989347619024,19.877426949285713
11.05084561,0.4759655425476187,-4.425222147333333,0.04776303425238092,19.87066340642857
11.06766349,0.4399128443761901,-4.352961131761904,-0.03353688664285716,19.953705747666667
11.08447151,0.4724707235523806,-4.079187030142856,0.14360755846190476,20.09895286985714
11.10127687,0.6205459181428568,-3.4399820966190466,0.16163749731095237,20.255002102761903
11.11806989,1.0243550681904758,-0.5268230895238085,-0.7495463993366667,18.055554903666664
11.13488596,1.039263813333333,4.548583484285715,-1.413071736717619,14.007111275571427
11.15169894,0.547654001428571,7.817836988095239,-0.273578055627143,11.602981693190475
11.16850537,0.2591644326095234,9.44437749,0.08695467374904749,10.924980620333335
11.18531562,0.18531052545714247,10.355296407190476,0.18301753831095227,11.034361026142857
11.20212098,0.24586041474285678,11.013770602666668,0.3123098958585713,11.373414222619047
11.21891563,0.3122901773666663,11.235617387523812,0.6624374906680951,11.590432821190475
11.23573356,0.2798866288095234,10.854057697676192,0.5100510750966665,11.504689923809524
11.25254127,-0.04455307847619088,9.513730889104762,0.6534086330285713,11.67797597095238
11.26934932,-0.3588533658095242,5.107615947200001,1.3136809644714285,14.80025821
11.28615514,-0.23265941095238135,0.5440234452952388,1.3807573977571426,17.948462489523806
11.30296288,0.2019967665238091,-2.3046373870857138,0.44767279628095225,19.49534994095238
11.31976992,0.33235244252380913,-3.963227567561904,-0.20413303595714294,19.922395385238094
11.33657769,0.13536356758571383,-5.190618447085714,-0.5575577837190477,19.952697057142856
11.35338374,-0.16314514461904805,-6.077236607085713,-0.6914928264809526,19.81071730490476
11.37019186,-0.28912099752380993,-6.502276556847619,-0.7398955957095239,19.482911144
11.38699924,-0.15505969504285755,-6.562767573990476,-0.6477978237095239,19.423523613047617
11.40380466,0.31822657038571384,-6.33470212875238,-0.4851267203476192,19.743612702095238
11.42061177,1.0875320324333329,-5.705803326609522,0.03219856174761896,20.64036206647619
11.43742028,1.635995047923809,-5.149313427657143,0.014095930071428444,21.321903981238094
11.45422567,1.85366124247619,-4.848975590942857,-0.1728463798014287,21.683631525047616
11.47102299,1.7864333963857137,-4.679135050895237,-0.2819422086776192,21.843750004619046
11.48784001,1.641965219480952,-4.645845277561905,-0.3523086153966668,21.86704660604762
11.50463855,1.480372338623809,-4.670270148514286,-0.34064036472047626,21.851473746523805
11.52146124,1.3344635742047615,-4.665250052323809,-0.3300007908728573,21.874777007000002
11.53824944,1.2427677943952375,-4.665047419466666,-0.3399667158728572,21.89267108080952
11.55505564,1.1503575762523806,-4.71019708627619,-0.30798628082523816,21.87768475652381
11.57186311,1.0223636746761902,-4.55227618075238,-0.392219780539524,22.004834668999997
11.65801974,0.8814488031047615,-4.051771868619047,-0.004852861230000187,22.186198236857145
11.68112901,1.1052129615571422,-2.9655189749047617,-0.6948180949238097,22.17022726828571
11.69793342,1.2410822147952376,0.8692706192857147,-2.431884318257143,19.474823726857146
11.71472936,0.8406183498428567,5.004253455047619,-2.4519810857809525,15.951043725619048
11.73154522,0.23045745387619,5.546435468857143,-1.010026836257143,15.369541028952383
11.74834453,1.4298608986857138,1.0671842436190484,1.2711618561238092,20.14213636704762
11.76516015,3.0252516728285705,-2.132846083047618,0.3368923825523807,23.69729285180952
11.78194879,3.8908895429714283,-3.0950062387619037,-0.591064118971429,24.943979504047622
11.79877065,4.272821188495237,-3.3918353034285698,-0.5514628894857146,24.954154565380957
11.81556266,4.293373755585713,-3.4744676406666652,-0.36748530824761944,24.94905600871429
11.8323854,3.9800268360142854,-3.624232882571427,-0.3126765326761908,24.73133027395238
11.84918123,3.4082650461095234,-4.042842683047618,-0.6722371472000004,24.048051954904764
11.86599965,3.0490983215857135,-4.214473996380951,-0.47310107167619087,23.774293025380953
11.88280714,2.96753071625238,-3.9608217416190463,-0.23892668953333368,23.980054001095237
11.89962317,3.0538117717714277,-3.595884822095237,-0.2830993284857146,24.354363025857143
11.91642098,3.1649731740571423,-3.2719550806666655,-0.37769295419523846,24.681797115380952
11.93322658,3.329015294914285,-3.0825437354285703,-0.41252116861428606,24.86105415061905
11.95003774,3.4408782296714278,-2.92065806495238,-0.4290833693428575,25.004508172999998
11.96684415,3.523815918719047,-2.8657273778095225,-0.3429183952952385,25.057476006809523
11.98364903,3.6583172652428564,-2.8654375970476185,-0.5291528240571433,25.017130775857147
12.00045611,3.776603778385714,-2.898425237095237,-0.7608380764857147,24.93988652414286
12.01726482,3.862809612814285,-2.983701704619046,-0.7828478898428576,24.834873771809526
12.03407042,3.788054591314285,-2.8880509862857133,-0.023271433176190865,24.511532198809526
12.0508831,3.758150952361904,-2.546293121142856,1.153759237871428,23.863866345714285
12.06768445,3.816119841361904,-2.3818596872380944,1.0824944770142853,23.975204255571427
12.08449216,3.748932259614285,-0.36309600861904656,0.39730302445714244,22.69211539357143
12.10128405,2.192877292947619,5.524919873952381,-1.3433338962333339,17.23099471842857
12.11810581,0.6888791834714281,9.769440697,-0.08828005256666711,13.465548534380952
12.13491613,0.09097303666190426,11.508298783666667,0.9644378941476187,12.253681696761905
12.1517201,-0.11148484544761954,12.16249002809524,1.1715082277857138,12.545344383
12.16852877,0.04829074088571381,11.98931149157143,0.9471588255238091,12.37911059147619
12.18533447,0.10228117307619,10.886528788238095,-0.12284663676190515,12.812335735761906
12.20214156,-0.06950441997142905,8.79402383252381,0.132911092428571,13.64697586052381
12.2189507,-0.0727183137333338,3.6201245906190476,0.7395147601904758,17.280638946714287
12.23574534,0.07565301940952336,-0.16949558176190443,-0.23000006942857176,19.28293197195238
12.25256348,0.06150306974285667,-2.282995722714285,-0.17276390885714324,19.425671187190478
12.26937145,-0.0026160137952385607,-3.508479571809523,-0.011438794714286079,18.863684129285716
12.2861783,-0.06609267846190522,-4.266616729823809,-0.3164614714904766,18.428004544
12.30297337,0.009532806447618584,-4.858277933490475,-0.9663697187952385,18.375314454476193
12.3197909,0.13015482259047573,-5.219250292728571,-1.584903273319048,18.293727888761904
12.33658732,0.21378841292380907,-5.295339743014285,-1.7463633209857146,18.27158022157143
12.3534032,0.38703694801904714,-5.169788973299999,-1.6452380494380956,18.401311714238098
12.37021602,0.6797627040666662,-4.883438859109524,-1.3880186688666671,18.75530000704762
12.38701944,1.1206973393999995,-4.609458173538095,-1.3833930192000006,19.096125586238095
12.40382696,1.5939076742095233,-4.433153855728571,-1.512478457771429,19.361313519333333
12.42063406,1.9213994457809518,-4.317475840633333,-1.6080361871666669,19.508129668809524
12.43744202,2.0691925174,-4.192492371157142,-1.6517782421476193,19.623109990333333
12.45424569,2.0920454831619044,-4.0894698865857135,-1.6271634865476197,19.721546160714286
12.47105828,2.038216471685714,-4.038349355823809,-1.5955372109285717,19.78609272190476
12.48786683,1.9462805304952375,-4.045854046204761,-1.5748297683095243,19.801490418095238
12.50467031,1.7967827944142853,-4.0866062302523805,-1.7883898287042863,19.74312451095238
12.52147765,1.4052561634619043,-3.867974485871428,-1.8986158411090481,19.904387295333333
12.53828455,1.1044215417476184,-2.88724097777619,-1.0919772767280957,19.35726682295238
12.55509688,0.9521399054619043,-0.9904188203476184,-1.4431430254804765,18.355241724857144
12.57188606,0.5865128436999993,3.8377198489380957,-2.1591830633328577,14.40050464152381
12.58870463,0.054579967509523285,7.085261594557142,-1.2076139944900004,11.898621530095237
12.605515,-0.3266881023476196,8.607374713461905,-1.3840395422995242,11.287071911523809
12.62232258,-0.6030456850000006,9.184556529557144,-1.860268943156667,11.50025257847619
12.63913029,-0.8566798199523814,9.356819266285713,-1.4254413997280955,11.532778312666668
12.65593617,-1.2534079268571434,8.980790229,-0.56863285101381,11.406974742666666
12.67274022,-1.5579726867142862,6.644919304428573,0.8028399616052375,13.238596360285715
12.68954941,-0.39511675514285793,2.1145702088571428,2.316299235176666,17.282964077000003
12.70635451,0.9318702843809519,-0.8923614592380951,1.6101530203433327,19.63249756747619
12.72315658,1.4636886060476186,-2.4558197659047614,0.5439106889623803,20.22540019890476
12.73996976,1.1601617731095235,-3.4892292931904763,0.31045831210523744,19.802868624095236
12.75677701,0.5797339675380948,-4.160229910238095,0.26739593739095174,19.314593044333336
12.77358295,0.08955213549047573,-4.489186400619047,0.0004397669766660022,19.168790306190477
12.79039283,-0.14825450827142905,-4.588391644619048,-0.3404593683900007,19.217066045714287
12.80719827,-0.14367523665238144,-4.544376486999999,-0.5904426194900007,19.296386952857144
12.82399419,0.011777769780951892,-4.396054336047619,-0.783135137728096,19.433690692380953
12.84081201,0.25717457120952336,-4.134328638047618,-0.770077241632858,19.676476587142854
12.85762838,0.5521916773999995,-3.8559206782857145,-0.6360849656190484,19.951056415714287
12.87442364,0.8269853703999995,-3.6105251541428567,-0.508089304285715,20.17073815904762
12.89123399,1.0660155044952375,-3.4218408722380955,-0.3279445230952388,20.327843092857144
12.90803983,1.2593439872761902,-3.294212954428571,-0.1553511906285721,20.432885755238097
12.92484995,1.3999490736571425,-3.203842049428571,-0.02580101177619116,20.50089907190476
12.94165447,1.5298970538952377,-3.1213835531428575,0.011893266428570734,20.53993806809524
12.95845131,1.7190947019904756,-3.030509108238095,0.16987855061904691,20.505946491904762
12.97527037,1.935414524133333,-2.822068690904762,0.4267393403809517,20.436725145238093
12.99206173,2.141883038180952,-2.529179958714286,0.15145648057142794,20.568317600619046
13.0088873,2.4573264120285705,-1.8289497235714285,-0.161715235380953,20.48690056847619
13.02568838,2.7104359125447615,0.697920867857143,-1.1203239476190483,18.54376996947619
13.04249735,1.4770404383447615,5.213585240857143,-2.4333127169047626,14.42748257990476
13.05930464,-0.028838328036190998,8.07018164242857,-1.7536467198442862,11.91789249952381
13.07611249,-0.8397111324647626,9.342231591714286,-0.8921818562728577,10.967569416
13.09291643,-0.8650492826695244,9.90397065042857,-1.0348133643204767,10.986904567095237
13.10972658,-0.7543229375266672,10.179025400428571,-1.0794923362252387,11.028700634761904
13.1265332,-0.7937681788123815,8.770026161761905,-0.24170341365380996,11.903474446238096
13.14333887,-0.9052683057647625,4.353219759095238,1.504362339250952,15.489497497666667
13.16014528,-0.6755061489552387,0.45006938242857164,0.9384767954414283,18.27735203147619
13.17695893,-0.4193300575790482,-1.8344310575714284,-0.0628471770347623,19.610373668619047
13.25468817,-0.42814027691238155,-2.030694370904762,-0.2147200219871432,19.414078964809523
13.2714915,-0.2670721552933339,-2.1243061337619045,-0.4666626225109528,19.36924999957143
13.28830186,0.04671780275428513,-2.0574168251904763,-0.6299005688919052,19.539161007190476
13.30510444,0.3763158435638089,-1.8672799156666668,-0.8290053548442862,19.80608249433333
13.32191212,0.6190037160209518,-1.6852191289999998,-1.179702145606191,20.023444736238098
13.33872305,0.77769389611619,-1.6950875694761907,-1.2887558652252384,19.993494948142857
13.35552831,0.8473471034590471,-1.718534969952381,-1.1845246949871433,19.98709358814286
13.37233584,0.8457383741257137,-1.715563411857143,-0.9429534218442861,20.01349958528571
13.38914372,0.7737999616019041,-1.691373553809524,-0.588365832844286,20.071128748142858
13.40594851,0.6688083893638089,-1.6465579909047623,-0.41990230183952415,20.118927561
13.42275922,0.527404742659047,-1.5945289716190476,-0.35922486001571463,20.193369090285714
13.43956451,0.3449789258095232,-1.5245263703809524,-0.35624663732047657,20.298477208809523
13.45636995,0.1567992171523804,-1.4545989731428572,-0.4450134619395241,20.422129593619047
13.47317712,-0.010995101276191046,-1.4358446952380952,-0.5654460318095241,20.50725579447619
13.48998454,-0.16458130727619102,-1.4536002944761905,-0.5834805609428575,20.538514148285714
13.50679253,-0.3277714450380958,-1.2209609363333331,-0.019018989133333695,20.707075219619046
13.52361066,-0.2687241434380958,-1.050031073,-0.19951135618095275,20.93593424647619
13.54040567,-0.13971835939047678,0.4261669644285713,-0.9326176061333337,19.996309836000002
13.55721442,-0.05470830767619103,4.577023754523809,-2.278127260209524,16.093163092476193
13.57401778,-0.5190562605809529,6.906044300238095,-1.0110566264000003,13.825251818190477
13.59081549,-0.37643851267619105,4.4263719140476185,1.4530505235999995,16.174605643904762
13.60763451,0.5914634779904755,0.5455187154761896,1.3187187466476185,19.13900297104762
13.62444208,0.741343637466666,-1.2169919473809532,0.7016285442190472,19.84037664104762
13.6412474,0.34319339779999924,-2.38544502752381,0.6583131903619043,19.410964765809524
13.65805865,-0.19608038643809594,-3.487117154761905,0.74994475615619,18.82031641114286
13.67486545,-0.6214567562476198,-4.354851973142858,0.9048710760514282,18.235013086142857
13.69167044,-0.9082445159619055,-4.662451653761905,0.6796302721466663,18.046633706904764
13.70848143,-1.0195872441142864,-4.67789354804762,0.24809699228952334,18.08500165261905
13.72528134,-1.0247407638761912,-4.619916370904763,-0.04249264685333376,18.12772519119048
13.74209245,-0.9310731885904767,-4.5299605866190475,-0.26122619312000045,18.15822139214286
13.75890049,-0.6853932651142864,-4.365011169476191,-0.20949377222000043,18.307771553571428
13.77570815,-0.21521545568571498,-4.143163226761905,-0.04826469961523855,18.57385426261905
13.79251295,0.21011429764761833,-3.9258012770476194,-0.030889295691429012,18.794780212619045
13.80932066,0.5004490275523802,-3.7423254649047624,0.056110723789523385,18.93003729261905
13.82612704,0.7348618395857136,-3.5704635891428573,0.23402337345619,19.034318586428572
13.84293535,0.9223148796476183,-3.395391236809525,0.28225101573238054,19.158667375190475
13.85974096,1.018043714123809,-3.3053617925714294,0.11907390016095196,19.172436083761905
13.87654803,0.9888211349047612,-3.1823480236190482,0.5029883254466662,19.189546599
13.89335697,1.082743085809523,-3.0091950773333345,0.7217530846799995,19.272220961809523
13.91435567,1.2621812453809516,-2.753673984238096,0.6040744537561901,19.436291385809525
13.93749855,1.5904395213666658,-1.29295187852381,0.0010004596609519214,18.775643607238095
13.95428108,1.2144346892238087,3.2978309681428573,-1.4585119441961911,14.924657547238095
13.97108917,0.24131338665238028,7.119614624333333,-1.3420034773390481,11.904377130571428
13.98788592,-0.1631200908619054,8.713286604714288,-0.5804455918342862,10.963405622666667
14.00472452,-0.0685653373380959,9.315377235952381,-0.7849875702152386,10.936465178095236
14.02151378,0.0694345605571422,9.628262747442857,-1.1612291803904766,10.991848837666666
14.03831898,0.1162416112714279,9.634269624109525,-0.9298178453809529,11.032210128619047
14.0551247,0.022576556414285073,7.454768749014285,0.18363576999999948,12.88392151452381
14.07193115,0.6416012987476184,3.0553618161571423,0.7220538586666662,16.299929179285716
14.08874177,1.4552850809857136,0.05651176568095229,-0.08660578590476237,18.463133012619046
14.10554567,1.7113833059857135,-1.3347326233666668,-0.018544573209524302,18.742880989761904
14.12234693,1.4758604681285707,-2.2647237550333332,0.06942169859999951,18.44887072514286
14.1391705,0.8629788757476182,-3.176167646842857,-0.04736085881904811,18.070193585428573
14.15596928,0.2976117674619041,-3.9938211211761905,-0.31108740829523857,17.81000774057143
14.17277773,-0.014486468823810196,-4.576405184223809,-0.75361068482381,17.681684985333334
14.18958256,-0.09849238666666735,-4.882562523557143,-1.1335329555857148,17.521885687619047
14.20639089,0.0018495379380945667,-4.967985493557143,-1.3663925330619051,17.45341959857143
14.22319577,0.26401875712857076,-4.8937865892714285,-1.4525440591380956,17.551097448571426
14.24000314,0.6421185392238089,-4.6986485207,-1.39733554642381,17.813452474761906
14.25681216,1.0162909713190469,-4.519888491557143,-1.49092694132381,18.05354522242857
14.27361802,1.1279220525571423,-4.450202237604762,-1.4764774527523814,18.12454798957143
14.2904258,1.0340071974761897,-4.455426465509524,-1.2146177519904766,18.132565374333332
14.30723148,0.8597514858095232,-4.452877248842857,-0.9637127605142862,18.15424582052381
14.32403754,0.6253566175714278,-4.451241334080952,-0.829096266371429,18.16949554242857
14.34084886,0.3930445513714279,-4.453463576890476,-0.9327884687333337,18.20850239795238
14.35765284,0.057139033514284995,-4.190093539842857,-0.7063697124476195,18.314307458238098
14.37446087,-0.14204990280952454,-3.786537351904762,-0.38390810168571476,18.43065955904762
14.39126891,-0.198675598285715,-3.2414680661428568,-0.5355570687190481,18.648408050714288
14.40805535,-0.06189801566666739,-0.8354287827142854,-1.3635868603380956,16.936822177857145
14.42488361,-0.6682646047142865,3.563179970142857,-1.541028207576191,13.462565193095237
14.44166902,-1.4932909010952389,6.505771319190475,-0.5683074651285718,11.234730924047618
14.45849707,-1.7694108655714291,7.832856223952381,-0.5939815414333337,10.894120581190476
14.47531121,-1.645148629176191,8.577708108333335,-0.7024444427666671,10.996837970809525
14.49211022,-1.324850309385715,8.953342665095239,-1.507300783014286,11.404630802904762
14.50892295,-1.1687029315761912,9.077076594333333,-1.2769074187285716,11.126535881857142
14.52571312,-1.1658206780523817,8.116319247857142,-0.4009941166333337,11.63513047947619
14.54253175,-0.640648955338096,4.665679114333332,0.9788531148904758,14.550095623857143
14.55933834,0.2583957742333326,1.1800102957619043,0.5477514975571425,17.223195687666664
14.57614864,0.38043983799523734,-0.639402707571429,0.08818002815714247,17.869066661476193
14.59295026,0.13960470494761829,-1.9067364651904768,-0.0048029906428575285,17.651893517666664
14.60976361,-0.16973364900476268,-2.8908139189047626,0.08789985794761866,17.274433692190478
14.62656735,-0.3423692781000008,-3.5336689274285713,0.04597654499523772,16.924787704
14.6433743,-0.4295392716238103,-3.8881385900476197,-0.35086098467142895,16.747885403619048
14.66018248,-0.45825533629047693,-4.058740616428572,-0.7908737234809526,16.691139638428574
14.67698959,-0.4101046265761913,-4.090427217666667,-1.044681960719048,16.688319915095242
14.69379567,-0.28015578348095316,-3.99749161,-0.9985043918095242,16.741689782714285
14.71060532,0.03811228856666594,-3.819640841476191,-0.8275326178571434,16.86267389557143
14.72741174,0.6455020565190469,-3.643659637952381,-0.8640433408571433,17.101672411285715
14.74421628,1.1423944179476184,-3.4302049372380954,-1.0106924602523815,17.33860827509524
14.76102414,1.3575247640904755,-3.2928304225714293,-1.062545765061905,17.439830880333336
14.77783231,1.394643874519047,-3.238464174476191,-1.0421078546333338,17.48858187652381
14.79464183,1.3488991261857135,-3.223218100666667,-0.9545834235571432,17.528530764142857
14.81144438,1.2434513627095232,-3.241633324476191,-0.8187887896333338,17.56060682652381
14.82825489,1.0835424606476185,-3.2483208520476192,-0.7633328552047622,17.599236235809524
14.84506131,0.9038884641428565,-2.9602112089523818,0.014870090231428315,17.280273176809523
14.86187041,0.9262405805714279,-2.487424260142858,-0.0053761657209526375,17.585792869380953
14.87867397,1.0297629721428565,-1.1190064293809527,-0.5327103108638097,17.052203319380954
14.89546962,0.489015715619047,2.4894596736666665,-1.7031380194352383,14.168683550190478
14.91228815,-0.5339299837619055,5.954462369571428,-1.180376487197143,11.456628918761904
14.92910337,-0.8717073486047626,7.6689303719523805,-0.617795175101905,10.68367556352381
14.94589113,-0.7588528565095244,8.563387712285714,-0.678028450197143,10.501332857333333
14.96268865,-0.6208880628904768,8.804465135380951,-1.3463056512638096,10.827169947095237
15.0362425,-0.4830977008380959,7.479507469619047,-1.8070712742638098,12.193151497190478
15.05303598,-0.37904928979047686,6.789357163476191,-1.5983010360495238,12.46073402804762
15.06985279,-0.3978907948380959,6.247454621333334,-1.33179917224,12.28977111842857
15.0866557,-0.511504161933334,5.783435799619047,-1.46563941524,12.190978088809524
15.10346972,-0.6127359526952387,5.41772663095238,-1.8815417800542857,12.137773759285714
15.12026433,-0.7927071026952387,5.192141511047619,-2.2418376037209526,12.015661756904763
15.13707925,-1.2028946876952387,5.1393916505714285,-2.3237289928161906,11.870827443095239
15.15389642,-1.4556508462190483,5.143930095809524,-2.158267339054286,11.80928304595238
15.1707002,-1.350595621885715,5.218777453428571,-2.088927825292381,11.909799497857144
15.18750576,-1.0723031873619056,5.306511448666667,-2.1419558979114286,12.009602742142857
15.20430634,-0.8846697467619054,5.294880118666667,-2.0511950764828573,12.011037354047618
15.22112396,-0.768182862476191,5.323277678666666,-2.0649737971019047,12.008798660238094
15.23792208,-0.7012120486666673,5.38937607352381,-2.2156897328828573,12.038470127857142
15.25473738,-0.6960266262380959,5.440609864523809,-2.401183239033333,12.11698199542857
15.27153932,-0.745959628333334,5.439181305809524,-2.5530903651285715,12.178615618761906
15.28834821,-0.798731219333334,5.417031811095238,-2.4176874898190475,12.161793896285715
15.30515371,-0.8657721850000006,5.403344495619048,-2.1467414866761905,12.178406715476191
15.32196129,-0.9683221807142863,5.3699385559047625,-1.9109890573904762,12.20134165309524
15.3387699,-1.1167602483952388,5.298751400142858,-1.8722570736761908,12.166804021666668
15.35557351,-1.4288709903000008,5.449132738380952,-1.7821373825428573,12.288045406428571
15.37238322,-1.6417456866809528,6.039832888047619,-1.1668313912761905,12.127582866428572
15.39544517,-1.6359428509476197,7.926878611904762,-1.0161297775142857,11.18368173404762
15.41229994,-1.4782529049000006,8.797240189619048,-1.4079450396809523,11.132207256428572
15.42911017,-1.3454161883761913,9.239607198380952,-1.633707026585714,11.181640443285714
15.44591535,-1.3015863272333341,8.686395940857143,-1.2466495405857143,11.375928393857142
15.46272151,-1.0690188465666675,5.3202271466666655,0.142508980747619,14.176107628142859
15.47953021,-0.694220344328572,1.178163052285714,1.4780127405571426,17.54687224195238
15.49633805,-0.4462836868523816,-1.1195038153333332,1.2867883130809523,18.748589175761904
15.51314275,-0.45110750210952444,-2.497636499142857,0.820341799842857,18.916098586238096
15.52995516,-0.6642347064428578,-3.4794379863333327,0.5474447834142856,18.589779433095238
15.54675873,-0.8797090849190483,-4.102090903019048,0.22352589589047606,18.202502720285715
15.56356796,-0.8337432714714291,-4.37190952692381,-0.349979937157143,18.088065767285713
15.5803715,-0.6713611285666674,-4.531276974733333,-0.7737260802047621,18.007523070857143
15.59717406,-0.49371321999523876,-4.6185474389714285,-0.8376299739476193,17.92054656195238
15.61398586,-0.2988826150285721,-4.624746140399999,-0.5975847670428573,17.857698871
15.63079443,-0.11397977104761974,-4.548563502542857,-0.2130213323761906,17.861944045761906
15.64760036,0.008000192142856457,-4.437734376209524,-0.04148281197142866,17.97591391490476
15.66440749,0.09232670347618979,-4.318708918542858,0.004715624219047566,18.082242897285713
15.68121569,0.18870249809523743,-4.1951712190190475,-0.004988897542857214,18.172547607285715
15.6980228,0.28646864204761835,-4.086381593257142,-0.027143966685714366,18.25009414395238
15.71482871,0.3483593690476184,-4.012454395161905,0.008138849504761826,18.315773428714287
15.73164637,0.35615840409523747,-3.9479826056380953,0.11734821671428562,18.38297797585714
15.74844425,0.2210038616428565,-3.839623586638095,0.5988003184761904,18.341628317285714
15.76524998,0.02034393945238029,-3.590791179114286,1.091377525,18.361141837761906
15.78204934,-0.03220126745238162,-3.258521056495238,1.3929936515761905,18.576095063333334
15.79887097,0.08405636035714219,-2.143118335542857,1.3025735615714287,18.527618848095237
15.81565686,-0.008183933476191148,1.5345708082666671,0.25566115261904765,15.732691452380953
15.83247723,-0.3118924300095245,5.7346094909809535,-0.9161586704761904,12.330280248571428
15.84929431,-0.560544377285715,7.9355281426,-0.641604605142857,11.014800048571427
15.86609935,-0.4676689647428579,9.01681339212381,-0.30835928233333315,10.574938689285712
15.882906,-0.3245278766952388,9.336143789242858,-0.6939916608571427,10.750751866238094
15.89970773,-0.3297083037047626,9.324424993833334,-0.582137993190476,10.642335431285712
15.91651549,-0.5212913013238102,8.546880654404763,0.2626312577619049,10.969104089047619
15.93332175,-0.7532895519428578,5.5432431360238095,1.3417006451428573,13.28158102404762
15.95012771,-0.6692937442285721,1.2301546283571432,1.145138956666667,16.72684481580952
15.96693548,-0.49508946852857205,-1.0382437925952377,0.7208827794761906,18.067008817238094
15.98374553,-0.3811590785095246,-2.0658405387857135,0.559609583861905,18.02125025152381
16.00055055,-0.36454989796190546,-2.630521274119047,0.15928469429047634,17.641934459285714
16.01734735,-0.34358428205714353,-3.0807675629761895,-0.5209445607571427,17.535553898809525
16.0341642,-0.33529097124761975,-3.5179346854047613,-1.2163296648047617,17.48088558214286
16.05097313,-0.33544968424761973,-3.8372557275952373,-1.6716556202809525,17.311144735523808
16.06777989,-0.28229404633809596,-3.9699785369761895,-1.8550515566619044,17.17627156814286
16.08458736,-0.16605926699523876,-3.9662887707857135,-1.8804808792809524,17.17256369957143
16.10139322,0.03130953648095168,-3.872839268880951,-1.7816895865666669,17.285156849095237
16.11820154,0.31843436329047553,-3.7595633779285706,-1.7891146393761905,17.41571140147619
16.13500863,0.5544081755761897,-3.679789792690476,-1.8618522480142854,17.503429134809522
16.15181709,0.6088290043904755,-3.6818369226904752,-1.7795390595285712,17.497907003857144
16.16862658,0.5257289636523803,-3.684364568404761,-1.6189746369571427,17.49977594195238
16.18543039,0.3830211729952374,-3.663555531119047,-1.423409765195238,17.524149907666665
16.20223587,0.22811177793809448,-3.671710808928571,-1.332357654505238,17.540937764809524
16.21904276,-0.08851591753809593,-3.6056238582142854,-1.2915086074433333,17.618726140333333
16.2358523,-0.3706120537285721,-3.1899437449047614,-0.8027890165480952,17.536519347
16.25265762,-0.5489403407666673,-2.7675888196666656,-0.6675187672861903,17.83793471395238
16.26945231,-0.6801828657666673,-1.808412392904761,-1.0829635332385712,17.55722061166667
16.28627145,-0.8223956880523817,1.224898679142858,-1.7712461252385712,15.269184336428571
16.30307947,-1.2767407326714293,5.470399606809525,-1.475423598505238,11.855888362619046
16.3198875,-1.8453403881476198,7.54850764504762,-2.2212564732195235,11.237384401666665
16.33667819,-2.261157512671429,8.196735949809524,-2.470899889843333,11.16578094752381
16.35350096,-2.448347965885715,8.355275381238094,-1.7316470729385713,11.555473956904763
16.37029654,-2.4766426654095244,8.250927630005714,-0.8211749751766665,11.504651410666666
16.38711286,-1.8583893433619054,6.661175614339048,0.6561290291090478,12.79875902257143
16.40392486,0.10612441282857077,2.1010548955771435,1.3876476610138098,17.120940344428572
16.42072688,1.2572260702523805,-0.5629989759942851,-0.08265198617666633,19.641931644190475
16.43753888,1.4292814509571425,-2.1353190059942855,-0.6223187353671426,20.21431932990476
16.45434052,1.1201816631952377,-3.3869656383752376,-0.7066021837480948,20.182912698952382
16.47115252,0.5531222030523806,-4.394441127803809,-0.5654356783671425,20.053094211333335
16.4879559,0.051930337242856804,-5.121776876184761,-0.5287972680490473,19.78331920857143
16.50476749,-0.17662160685714326,-5.420421804708571,-0.789077161910952,19.642957484666667
16.52157595,-0.11998546642857183,-5.407362597565713,-1.1128555527680948,19.70687158657143
16.53837844,0.21767673085714245,-5.285050732803809,-1.4584754696728568,19.89592559038095
16.55518754,0.7503720016190473,-5.033087707565714,-1.6440089180295234,20.21875141942857
16.57199299,1.2630730361904756,-4.739692846851428,-1.582917029510476,20.54235703890476
16.58880142,1.684576398380952,-4.447831131041904,-1.5487914885723808,20.825068912714283
16.60560729,1.9848992999999997,-4.229343437041903,-1.4585672282152378,21.00513300352381
16.62241705,2.2154702918119047,-4.082936763803809,-1.3503209415009518,21.112789684380953
16.63922217,2.4360221260119044,-3.93400498823238,-1.3114332477390473,21.188126377714287
16.65603038,2.6589967102023806,-3.7956394244704756,-1.2083777450438091,21.231303316761903
16.67283569,2.914728497202381,-3.597583907470476,-0.047691334372380656,20.528365937714284
16.68964451,3.099411275154762,-3.2600857193752377,0.1834318292085717,20.60033116042857
16.70645042,3.1801606165833327,-2.921877134994285,-0.4204891526485711,20.51028642757143
16.72325817,3.1158219892499996,-2.4519692835714277,-0.8811596039723807,20.56477075285714
16.74006496,2.4111481538690476,-0.5271320802380945,-1.8114627658914284,19.21577905714286
16.75686747,0.36559991901190436,4.240321204190477,-2.1695463773247616,14.956892477857142
16.77366766,-0.8890762073690481,6.919125102285715,-0.5713031575819046,12.457780345714287
16.79048557,-1.1818229215595242,8.37300818252381,-0.16743097415333322,11.778244287095239
16.80729294,-1.0420169347976194,9.428445179666667,-0.3764326004390475,11.60274791857143
16.8240953,-0.5988035514642861,10.12917550347619,-1.2150836673438095,11.786018502857143
16.84092155,-0.31654360470238135,10.461085137333335,-1.713641087504762,11.964001816571429
16.85770248,-0.3374246898452385,10.032082466333334,-1.5856482872190474,11.888330909857142
16.8745219,-0.63294110127381,8.655230249190478,-0.9439695452190475,12.308409949857142
16.89133067,-0.869846267321429,5.241745266809525,0.3796672592095239,14.601074760333333
16.90813586,0.2850392291071425,0.9139667682380954,0.7205329393523809,17.71403873366667
16.92494447,1.1221087860119043,-1.2342594703333327,-0.1145216031333332,18.93438385938095
16.94174917,1.0345871081071425,-2.473440716523809,-0.5260424702523808,18.89336672652381
17.03628421,0.958526534869047,-2.437151682714285,-0.7179147831571427,18.92662332509524
17.05309645,1.0994361214857138,-2.3053673798571426,-0.9157478954714284,19.04185202557143
17.06989447,1.3636809021428566,-2.101418995571428,-1.1981834829476188,19.261941156523807
17.08671034,1.7177577077142854,-1.8471394955714284,-1.4895058731857143,19.563840930333335
17.10350979,2.228892014285714,-1.6678280155714285,-1.5651262434333328,19.838116587000002
17.12032507,2.640794328428571,-1.5624522717619045,-1.4519090372047618,19.994893524619048
17.13713419,2.7911819334571426,-1.5501124979523806,-1.268553637633333,19.996087660333334
17.15394211,2.8251027097428567,-1.57872636047619,-1.1419979422142856,19.96936719247619
17.17074741,2.8324786994095232,-1.6056717470952375,-1.1466668194523808,19.94125157642857
17.18754999,2.7973937706476186,-1.6213892534761902,-1.2185573921619046,19.93630979952381
17.20227085,2.676503368980952,-1.6134288430952377,-1.3803354618571428,20.001064520714287
17.21906798,2.4928581545999995,-1.623243196285714,-1.4209158367142856,20.066220360761903
17.23588514,2.275335317742857,-1.6678728836190477,-1.3187462662571428,20.088492040238094
17.25268268,1.9377704065999997,-1.637477194190476,-0.6712193405761904,19.817070067142854
17.26949156,1.7579567207428566,-1.5045722331904758,-0.24250890814761888,19.71475063409524
17.2862981,1.7577407135047618,-1.0107681417142853,-0.2765902990523808,19.807295325761906
17.30310389,1.868582146695238,0.16752218004761937,-0.623816419238095,19.202032615761905
17.31991682,1.6710862320285709,3.244625749619048,-1.6634996109285711,16.579586373380952
17.33672011,-0.17519332101904794,5.808221294380954,-1.6373404606428568,13.778360871476192
17.35352552,-1.2477994532571433,3.5115319434285728,0.24358830554761926,15.64866474004762
17.37033243,-0.17121419430476217,0.435678232476191,0.6684850680285717,18.76667631290476
17.38714274,0.6807904020285712,-1.615084126095237,0.5610220261238099,19.763659323380953
17.4039479,1.0280790330761902,-2.520090761857142,-0.02022743232380931,19.869493217666665
17.42075523,0.890212876647619,-3.202085971904761,-0.36212300122857116,19.565665110523806
17.43756196,0.5260423480761902,-3.746383735095237,-0.3592661789904759,19.03770961795238
17.4543685,-0.08389961130476213,-3.9629772959047607,0.09850378825238126,18.914509832238096
17.47117707,-0.5261948674476192,-4.028323968285713,0.0674749101095241,18.80628571747619
17.48798406,-0.6700846465714289,-3.9870825949523794,-0.1577252547952378,18.861422952714285
17.50478993,-0.680322771761905,-3.822472867571427,-0.40459005046190444,19.030971027238095
17.52158828,-0.6557904536666669,-3.598169122380951,-0.516763837638095,19.249821074238096
17.53840598,-0.5977787401904764,-3.3739052047142852,-0.5103100907952378,19.450659520904757
17.55519794,-0.49962032390476213,-3.2308745384285706,-0.3180982584619044,19.540210352809524
17.57201847,-0.37542868776190497,-3.117880662142856,-0.0696919617952378,19.595501687571428
17.58880606,-0.22258023971428592,-2.974264757666665,0.09022532465238124,19.683368195666667
17.6056348,-0.06093323780952402,-2.802831899095237,0.23920512192380983,19.798176839714284
17.62243982,0.11217233699999979,-2.655036539857142,0.2659514545761908,19.86837623752381
17.63924469,0.29788947690476164,-2.498962628999999,0.22111355967142887,19.947796083619046
17.65605828,0.461491528190476,-2.393106641809523,0.0619667852857146,19.999431679857146
17.67286572,0.6540993397142855,-2.2376762567619037,0.02321440826190508,20.062168811285716
17.68966805,1.0185608979238092,-0.6932279039047611,-0.18549775800952348,19.427667046047617
17.70647571,1.0647313029238092,3.552362033238096,-1.1402994762952379,16.098313418428567
17.72328448,-0.07077024098095266,7.460792564095239,-1.0945527922047615,12.594214658857144
17.7400964,-1.0981651830285717,8.957582905238095,-1.1786575118238094,11.289011132619047
17.75688526,-1.5888944239476193,9.137450513461905,-0.7518768111571426,10.662779982999998
17.77370294,-1.6548839409952383,7.0977322487476195,0.20676664774761935,12.231751245857144
17.7905163,-0.9583971955190481,2.645436536700001,0.8219901236047623,16.236883595571427
17.80731877,-0.2070736543761909,-0.06777620296666581,-0.2911230978714283,17.995640155095238
17.82412693,0.10295941724285679,-1.356125990109523,-0.5799772711095235,18.248667042238097
17.84093664,0.10066029009999963,-2.038665612109523,-0.42557269334761877,17.89021038152381
17.85774147,-0.04368809285238133,-2.549229121871428,-0.3682207181571426,17.548816478714286
17.8745485,-0.2068153789476194,-2.9657237866809516,-0.6754559534428569,17.414583692047618
17.89135551,-0.2846353848523813,-3.2655492277761895,-1.1055968716666664,17.350515379190476
17.90817087,-0.26954360232857183,-3.383876504966666,-1.4868104685714283,17.319305018238097
17.92495804,-0.15584664114761942,-3.397855099728571,-1.6952168885714283,17.280025144904762
17.94177651,0.08306206980476154,-3.395531767823809,-1.8060517453809521,17.26310364109524
17.95858303,0.3358978998523806,-3.373255843061904,-1.8177300096666664,17.28849597061905
17.9753922,0.5574858586142853,-3.3123160997285703,-1.563215823509524,17.396688843
17.99219739,0.6258433035623805,-3.2326272553952373,-1.179648740080952,17.481297806809525
18.00899873,0.5868177300385711,-3.1385463305380945,-0.920894498033333,17.578084521047618
18.02581195,0.5058176630861901,-3.0620643299190466,-0.8167201111761903,17.66918041104762
18.04260614,0.3233365785433329,-3.0584199313476184,-0.8090220804761902,17.695442932952382
18.0594148,0.015049082876666266,-3.085216499442856,-1.0103134259047617,17.672540662952382
18.0761483,-0.2636746792661909,-2.9048568180142844,-1.1648557755714284,17.88654207395238
18.09303917,-0.3076356025042862,-2.5505199885857133,-0.9437202160476188,18.035312897809526
18.10985043,-0.526464167109048,-2.053372065142856,-0.8567741940952379,18.372593922666667
18.12665655,-0.7832824162042862,0.3929422017142868,-1.4440299556190472,16.859061779809526
18.14346224,-1.5729950949661908,5.099930854238096,-1.9717698550952378,13.071818794571428
18.16027044,-2.086293254656667,7.679084210190477,-1.8744389898571425,11.325189259333333
18.17707864,-2.377920502751905,8.668285074571429,-1.8312570028095236,10.848226153571428
18.19388658,-2.4133645580376193,8.654753889238096,-1.6381789333333332,10.977111302238095
18.21069062,-2.1836050692566666,7.311098053285714,-0.9104247718571427,12.079750759809524
18.22749884,-1.2558843183995243,3.6240381285714287,0.0903982945238097,15.093593633142856
18.24430651,-0.04878347282809565,0.6270211310952378,-0.22138604095238076,17.410270990761905
18.26111278,0.522266523933809,-0.9177963393333334,-0.06249557785714269,18.001425338857143
18.27791549,0.5266512913766662,-1.8911293804285716,0.0749366795238097,17.90431755504762
18.29473274,0.13233599185285666,-2.7579112961428573,0.07423883685714303,17.76623030790476
18.31153488,-0.34092026686142907,-3.563443206857143,-0.14504559542857123,17.574977454000003
18.32834061,-0.732794761861429,-4.110055946314286,-0.6721531748095236,17.350368362428572
18.34515173,-0.8203994775714291,-4.315160365600001,-1.2303582116666665,17.25773727719048
18.36195524,-0.6416074209523814,-4.3215894927428575,-1.6362604384285713,17.297214338142858
18.37876353,-0.2999653250000004,-4.222165130361905,-1.8754626312380953,17.434700701
18.39557001,0.13829595685714244,-4.027767340361905,-1.9258006582380947,17.664340294809524
18.41237637,0.6244455858095234,-3.884206249409524,-1.914598124190476,17.848888785285716
18.42917273,1.0041587010476187,-3.8166833374095237,-1.9516203288095237,17.91353247480952
18.44599272,1.2239336909047616,-3.749758379409524,-1.8367652550666667,17.932391992904762
18.46280413,1.3816425912380947,-3.6918090405523807,-1.6494710330190476,17.946886526238096
18.4796083,1.5156836962380948,-3.652726876933333,-1.4459292432571427,17.940958099095237
18.49640174,1.5748871393333328,-3.6246282708857147,-1.2320511680190473,17.95421540242857
18.5132186,1.402913876833333,-3.4578683939809527,-0.5621107417809521,17.799293625285717
18.53001525,1.3738786945952375,-3.20648302312381,-0.3906159115619045,17.978991905333334
18.54683585,1.369201694119047,-2.5976847689809524,-0.7156433092761902,18.135158542142854
18.56365081,1.273337318671428,-0.9365228013619048,-1.4264041751809522,17.178008946619048
18.58044983,0.5270870981952377,2.933116549876191,-2.077817490990476,14.061697058000002
18.59724461,-0.5631644498047623,6.028017453019048,-1.3759505237047616,11.606875646428572
18.61406298,-1.0734408809000002,7.6025509154,-1.2534660753142854,10.94324535547619
18.63087861,-1.0513421466361907,8.536507652209524,-1.1465091903619045,11.019898711190475
18.64767623,-0.7581969214885719,9.031185831638096,-1.871720140885714,11.314698256904762
18.66448317,-0.42373057767095273,9.18321627692381,-2.021232556695238,11.145810255714286
18.6812931,-0.058297520528095614,7.711175782571429,-1.1733021480761903,12.292789635380952
18.69810296,0.8992491448528567,3.5385819847142863,-0.1583722859333332,15.785641196809522
18.71491353,1.403000797376666,0.2803183513809527,-0.649697391885714,18.110031719190477
18.73171509,1.3151963209480948,-1.4583092638571424,-0.5928027262190473,18.602251777285716
18.74852084,0.9104142528052377,-2.647959890523809,-0.3124005199809521,18.417455015857144
18.76532876,0.371601865233809,-3.510029247571428,-0.13279321374285682,18.043510335571426
18.78213415,-0.06688697014714333,-3.9662128175238096,-0.22045398050476162,17.807378902190475
18.79895255,-0.29868561329000043,-4.126071657380952,-0.684401049580952,17.88549075457143
18.81575013,-0.3467316629090481,-4.084438551190476,-1.1614690196761903,18.034011068380952
18.83255986,-0.23919959313000047,-3.965511912142857,-1.4898147498666663,18.167059387428573
18.84936285,0.03338820577476144,-3.814250491666666,-1.6813044803904758,18.30632736504762
18.86617186,0.46111635915571386,-3.706567900238095,-1.790443718485714,18.450426582666665
18.8829775,0.7740939456319044,-3.6262178873809523,-1.768759418155714,18.518866821714287
18.89978498,0.9352554875509518,-3.536108062285714,-1.5841213720604759,18.576740089333335
18.91659095,0.9881137550747615,-3.432524090857142,-1.3671236804890472,18.679256372
18.93340072,0.9779973822652376,-3.344035012571428,-1.161093743108095,18.78798514157143
18.9502072,0.9328243049319043,-3.3067267738095234,-0.9942934031080949,18.84125366695238
18.96701308,0.8654428661699993,-3.338855788857142,-0.9343367503319044,18.822790051238094
18.98382757,0.7246870992347615,-3.3711690905238094,-1.1356789498652378,18.787928823619048
19.00062906,0.54991618770619,-3.0899340768571424,-0.5386137394842854,18.566267882190477
19.01743713,0.36842225826952335,-2.565952528380952,-0.36798766681761874,18.800751208238097
19.03423935,0.07633863155523761,-0.6753735771428568,-0.8751855775938091,17.730710677761905
19.05103763,-0.9685627506352384,3.6095095131904764,-1.4905639800223807,14.234261616809523
19.06784679,-1.7102134114447622,6.825064386285714,-0.8080863922604758,11.830743430142856
19.0846554,-1.9194683347780956,8.396231060333333,-1.1983168889747615,11.362164146333333
19.10146816,-1.9127218723495243,9.281580606714286,-1.7129917342128569,11.300213432047618
19.11828143,-1.8662561802542863,9.863278797333335,-1.9222830106890474,11.37159738452381
19.13508827,-1.8963139965400004,9.73925704009524,-1.6861272623319041,11.308214092095238
19.15188762,-1.941040686206667,7.6931684580476185,-0.7785407556652378,12.478909295428572
19.16869764,-1.1893028871114288,3.219811121380953,0.7434018373823815,15.942995273047618
19.18550887,-0.1463054134619052,0.014790216619048007,0.8774941910014291,18.072909755428572
19.20231547,0.23860108282380912,-1.516725949571428,0.36898141023952435,18.585656510190475
19.21911929,0.08691715058571384,-2.47602222147619,0.004045217430000493,18.473991025904763
19.23592796,-0.13336697079523857,-3.305646079428571,-0.3495876414047614,18.34368783804762
19.25273539,-0.21809815795238144,-4.042351132809524,-0.7600655521666663,18.18026925366667
19.26954401,-0.21095943452380997,-4.488996119952381,-1.1319831632619042,17.885280339238097
19.28634971,-0.16628283547619094,-4.688948926619047,-1.3214636297857136,17.65936021785714
19.30315663,-0.10484518323809572,-4.726063524095237,-1.4068087504285711,17.600813656666666
19.31996535,-0.06101591247619095,-4.663968563333333,-1.4071226966047614,17.652108723333335
19.33677256,-0.011064438571429051,-4.563529900238095,-1.3204857190714283,17.738878425714283
19.35357935,0.06189775466666618,-4.420896825238096,-1.1417862143095232,17.855175266190475
19.37038693,0.1499230066666662,-4.217957973523809,-0.9656569867380947,18.03687451904762
19.38719414,0.24093301523809474,-3.9727240290476185,-0.8357776057714281,18.270103084761907
19.4039997,0.3428832065714281,-3.7619050569999994,-0.7665812907238092,18.459845727619047
19.42080818,0.4599203382380948,-3.608898049142857,-0.6123717110095234,18.581926027619048
19.43762128,0.5198306810619042,-3.469124362238095,-0.10666534258095195,18.471932669523806
19.45442107,0.5831584703476186,-3.3223917595714276,0.11414663189523853,18.510193188571428
19.47122974,0.6873503072047614,-3.2052363666190473,0.14283077113333376,18.583999649714286
19.48803555,0.8717275801571425,-2.7169023920476185,0.10969839542857185,18.75715175504762
19.50484442,1.0159152462523804,-0.5861860227142854,-0.3260335550666663,17.448259786
19.52165772,0.27609171172857094,3.7828594162857145,-1.3501716880190473,13.78675353357143
19.53845077,-0.8410537129380957,6.769045716333334,-1.35347958687619,11.41698153642857
19.55526444,-1.537650369461905,7.861954257809525,-1.523053597828571,11.033357111666666
19.57210053,-1.8243465877952385,8.459871996238096,-1.290677907923809,10.809093364142857
19.65820768,-1.1491060032238098,7.522496973238096,-1.373352842638095,11.773239507714285
19.675019,-0.8601415159380956,7.382870651904763,-1.0758040206190473,11.777049943333333
19.69182142,-0.8168971994809527,7.227206094380953,-0.900584967285714,11.629345068666666
19.7086321,-0.878374190766667,7.004679703047619,-0.9872279109523807,11.499716466619049
19.72543808,-0.9686064154809527,6.862828050809523,-1.2485124098809521,11.460174197047618
19.74223905,-1.0294420267190478,6.805000192285713,-1.5200187279190474,11.472972749428571
19.75905219,-1.0591993561476192,6.824687436095239,-1.7784410799190475,11.532080800380951
19.77585499,-1.0607586533857147,6.919111002285713,-1.3338021236333328,11.794412681809524
19.79267031,-0.9298157751095241,7.1544666522857145,-2.1460720611095234,12.255507835142856
19.80947168,-0.765365668966667,6.997775555142857,-2.688332537633333,12.203342939428572
19.82627944,-0.7791000380142861,6.767845040619048,-3.048129947252381,12.025886709904762
19.84308729,-0.7946636792523813,6.52995793052381,-3.0701191111571426,11.790872270238097
19.85989465,-0.7879184202857146,6.329589866571429,-3.121018987157143,11.596075235666667
19.87670051,-0.6895475162714289,6.144779591571429,-3.1888465127761907,11.435915489190476
19.89351012,-0.6567836150714289,6.119950907809524,-3.076910150761905,11.404500597761905
19.9103154,-0.6832623143571431,6.157292707095238,-2.950425093938095,11.456979621095238
19.92712082,-0.7240039055476194,6.159999915999999,-2.9328678759666666,11.473211366809526
19.94393627,-0.7770525503095241,6.12860890847619,-3.063068548690952,11.440823202714286
19.96494082,-0.8814268455000003,6.158489840904761,-2.96246983591,11.490494491047619
19.98174761,-0.8896154110714288,6.368328163142858,-2.219200162514762,11.150127568238096
19.99855362,-0.9240378086428575,6.561582452333335,-2.096695942405238,11.295930919190475
20.01536124,-1.7122768787857148,8.21579712947619,-1.651137212800476,10.370448716333334
20.03217012,-2.0639113130714284,9.017207532,-1.5630149868671426,10.478962815095239
20.04898335,-1.9506629194333336,9.466035093904763,-1.7594462320099997,10.827925760238097
20.06576038,-1.8295871529928576,9.352871077709525,-1.889082985200476,10.885390378190476
20.08259206,-1.8576495647071434,8.414159684090476,-1.4663856908671424,11.132124686095239
20.09939954,-1.535053673230953,5.070864450709525,-0.31939872972428535,13.591214453238095
20.1162081,-0.5119230520880956,1.313438960709524,0.09892228937095277,16.26645930371429
20.13301995,0.1627242393404758,-0.7820819669095236,-1.2531732692004758,17.117522258476193
20.14982585,0.1751439399690472,-2.318267731195238,-1.0206273256766663,16.801444724190475
20.16662743,-0.06626525960238136,-3.389442579766667,-0.8420231996766662,16.742512370380954
20.18342826,-0.24159429203095278,-4.1932163235285715,-0.7437771248195234,16.716640796095238
20.2002399,-0.44768078003095285,-4.626266297528572,-0.9420802906766662,16.641438755904762
20.2170593,-0.6163443385357147,-4.747628302480952,-0.9611470502004757,16.592983648666667
20.23385508,-0.774765026169048,-4.646126247242857,-0.8499357730052376,16.67657761842857
20.25064988,-0.7733746257833338,-4.575953528576191,-0.9559627148290472,16.747947003190475
20.26746912,-0.5037385284023814,-4.458405540004763,-1.191379910543333,16.86862317509524
20.28427718,-0.06371608254523849,-4.2428528011,-1.3173411802099997,17.115330574619048
20.30108348,0.37228662607380913,-3.9690312430523806,-1.470190045533333,17.43174930019048
20.31789203,0.6322433832642853,-3.783290181719048,-1.5538863853619043,17.59052729804762
20.33469876,0.7822344811785711,-3.6695609321,-1.50652006427619,17.67012110657143
20.35150889,0.9028994864166664,-3.5910592763857143,-1.3568266064333327,17.72345495695238
20.36831069,0.9992521090357139,-3.5627875106714284,-1.2512622051809519,17.73560251219048
20.3851216,1.0443278207499997,-3.5620265239571425,-1.21635512527619,17.72993187361905
20.40192752,0.8215497161785712,-3.4698455907190477,-0.90556543227619,17.761261393761906
20.41873506,0.6698539992142853,-3.0085480559523807,-0.6910699209904758,17.97813905252381
20.43553786,0.7206181738809521,-1.964650199904762,-0.9640242146571425,17.75734543538095
20.45235082,0.4306686091666664,1.3389007017142855,-1.964096012466666,15.205061231285717
20.46915687,-0.5651775486904765,4.998968078380953,-2.293349186466666,12.407503141761904
20.48596562,-1.2287545545952385,6.9052836550476195,-1.4777386926190472,11.194031847476191
20.50277206,-1.3010286604904766,7.944379715285713,-1.2206601130952375,10.822762136904762
20.51957604,-1.2354438192523811,8.642605236190477,-1.6466898632380946,10.879844701666666
20.53638359,-0.9590792770428574,9.079449789476191,-1.6139947741904759,10.528943204238095
20.55319644,-0.6479381267190479,7.894687970238095,-0.7928735809523805,11.616880000761904
20.56998693,0.21458411213809495,3.6475558958095244,0.8293461518571431,15.620385586857143
20.58680802,0.9482306978047617,0.27796890604761904,-0.31130662952857113,18.372681502142857
20.60361742,1.0942509285999995,-1.4932094306190475,-1.1133405647666663,19.374884104523808
20.62042079,0.8247659091238093,-2.6067133406190472,-0.9440314709476186,19.265526185952382
20.63721621,0.31283741888571404,-3.368215107190476,-0.7714036358999996,18.810441841904762
20.65403428,-0.21131365654285744,-3.893466313904762,-0.7026549176619045,18.35661271614286
20.67085278,-0.4984983831619051,-4.148111162047619,-0.9469539718047616,18.253380593761904
20.68764985,-0.6175150929333336,-4.149757566809523,-1.2175721380476188,18.31520202852381
20.70444449,-0.6116274369333338,-4.038701284428571,-1.1855300206666664,18.429129903285713
20.72127246,-0.5372974192523813,-3.9050513220476186,-1.4764632549999999,18.564912685190478
20.73805863,-0.31378781234761943,-3.785835356571428,-1.8239268287619044,18.71452715947619
20.75487656,0.15829677798571395,-3.7207678379999995,-2.050420465523809,18.874876506142854
20.77169198,0.6032009918428568,-3.6808876304761897,-2.143994751047619,18.986534158571427
20.78849725,0.7778399443904759,-3.592126936523809,-2.026857563057143,19.050829305238096
20.80529503,0.8316236109142853,-3.5239867248095234,-1.852276353247619,19.103812768857143
20.82210488,0.8152559597238093,-3.520330382904762,-1.6072191791047619,19.11103192885714
20.83891614,0.7642689261047616,-3.539803550047619,-1.4699310003809518,19.11757761266667
20.85571722,0.6488840976190473,-3.4309802731428567,-1.1855599195238093,19.198175104190476
20.87253222,0.6293477613333329,-3.098800976428571,-0.5123206885619044,19.04706373752381
20.88933398,0.4990581726952377,-2.683310916666666,-0.4499729102904758,19.42052049590476
20.90614295,0.3766657339904758,-0.9886722558571426,-1.215884546338095,18.493166996857145
20.92293737,-0.3507208599142861,3.4159055899047623,-2.810208249528571,14.576003764523808
20.93975434,-1.149295193866667,6.71108427552381,-2.0902657479571425,11.976985112142858
20.95656595,-1.4633198352476195,8.221306597238096,-1.6967631038619042,11.026785572619048
20.97337324,-1.6902105581523816,8.499728634857142,-2.1081998886809523,11.065785366428573
20.99017975,-1.9151763121523815,7.127229895714286,-1.4718095434428566,12.504456975238096
21.00698927,-1.7216076623904766,2.9456816410000006,-0.06836667829999955,16.426703298142858
21.02378947,-1.0440642039142862,-0.03827692133333336,-0.020205148919047185,18.58000115909524
21.04059116,-0.7012782210571432,-1.4627471870476192,0.07351108646190523,18.906294536238097
21.05740808,-0.6561679159095244,-2.1889812141428573,-0.1701376242523805,18.415468354761906
21.07420404,-0.7500860407333338,-2.483069895571429,-0.26395737872857095,18.210544575285716
21.09101984,-0.9668876954952387,-2.5362910531904763,-0.4263275155380947,18.245407918142856
21.10783089,-1.2882081497571434,-2.3977553722380955,-0.8380162178714281,18.48063385242857
21.1246293,-1.3277573869476196,-2.194888863190476,-1.1932140561095232,18.777559276238094
21.14144346,-1.0688995690666672,-2.1249022927142858,-1.348105586766666,18.932348402428573
21.15825016,-0.8446813935428575,-2.155370597809524,-1.4218708248952376,18.919682818142856
21.17505823,-0.7147759880380958,-2.2108941976666667,-1.4334396550380948,18.85088588157143
21.19186852,-0.6325632788000005,-2.212360812428572,-1.3952502779428566,18.845738807285713
21.20867088,-0.5824982836095243,-2.2006185386190475,-1.3023062349428567,18.868680091571427
21.22545769,-0.5892987988952386,-2.1952330490952385,-1.1960763619999994,18.89500451157143
21.24228774,-0.620655576371429,-2.189384754809524,-1.0513035854619042,18.91728580157143
21.2590946,-0.6979316359428576,-2.1671689570476196,-0.9165083057285711,18.950351278238095
21.27589745,-0.8029148578476195,-2.0984039523333338,-0.8574592301895233,19.039062636761905
21.29271226,-0.7968403384666671,-1.9966982649523812,-0.4143926956609518,18.927867686285715
21.30951382,-0.7594401268952385,-1.7862783603333334,0.054925089670476726,18.850368247714286
21.32632446,-0.5826584158000004,-1.0885749988571432,0.4516000036752386,18.78644820247619
21.34313082,-0.3199024087523814,0.8449975430476186,-0.26189175950571386,17.57945395342857
21.3599347,-0.49947888518095274,5.266525859619048,-1.6960048417438092,13.830215802952383
21.3767467,-1.254499980419048,8.138009821476189,-1.9118083970295234,11.767481899142856
21.39355158,-1.9821462631333338,8.700154464095238,-2.306492825410476,11.664662197238096
21.4103571,-2.5469704130428577,7.727528867857142,-1.9762867491247615,12.765559785380953
21.42716644,-2.6611758642809527,5.151282106904762,-0.5382038951247613,14.888281190571428
21.44396533,-1.8469750199952384,2.381732964047619,0.51203176230381,16.648037019619046
21.46078142,-0.028296697638095582,-0.003465719761904785,1.2790985361133338,18.292484408666667
21.54061103,-0.6466243379714288,-0.5883382608571429,1.4057577022561911,17.93525986961905
21.55741986,-1.1976583116857147,-0.7780046911428572,1.1853624778276197,17.843419099619048
21.57422039,-1.499890770161905,-0.7166154493809525,0.9965688924323814,17.924776864380952
21.59102601,-1.5957782040952384,-0.5893706361904762,0.8779958626180957,18.043036885238095
21.6078444,-1.5824685834,-0.4813677461904761,0.78036636090381,18.126820082857144
21.62464685,-1.5048058032333336,-0.37026922952380953,0.7145115958085719,18.211972615714288
21.64145866,-1.3810633306838096,-0.28929197142857144,0.6029338522180957,18.257266994285715
21.65826121,-1.2371338094504765,-0.21969631666666659,0.4640536504657148,18.29536922095238
21.67506563,-1.0842489627980954,-0.1477496728571428,0.3719384128752386,18.341468643333332
21.69188365,-0.9333699117980954,-0.07820133857142847,0.3318995689266672,18.383948695238097
21.70868497,-0.7956164024361906,-0.02236747680952374,0.3402243453019053,18.410994307142857
21.72549196,-0.6378578996885717,0.02696155447619052,0.34626594873047667,18.43019205904762
21.7422982,-0.450687836921905,0.027565457380952434,0.16975507258285766,18.422267092380952
21.75911025,-0.24515101160761926,0.0019288752380953258,-0.021104057855237574,18.387249214904763
21.77591412,0.011821863301904515,0.015907697142857218,-0.026923276379047064,18.344448622285714
21.79271948,0.31760296092571405,0.1982205490000001,0.431968274516191,18.164291049285712
21.80953082,0.837375200982857,1.0563258449523811,1.0533236038971434,17.878731799761905
21.82633094,1.4393661620638094,2.6381335263809524,1.1540942363257147,17.23144996738095
21.84314392,1.6339446563971427,5.26354001852381,-0.16117011362666606,15.073327113190476
21.8599488,0.7807954237780951,7.806727341523809,-1.0658990030552375,13.063759385190478
21.87675907,-1.2473253892219052,9.755556061333332,-1.546122045721904,10.957666163333332
21.89356441,-1.1120310653647623,8.51878963195238,-0.7084260156742852,11.695483208095238
21.91037267,0.02286907325428546,3.5738038789047626,0.8090867597066672,15.901970546190476
21.92717791,1.3091759652542854,0.10958501271428558,-0.21333328353142803,18.689952264761907
21.94398716,1.5602124503019046,-1.355455466809524,-0.985840031621904,19.33064660904762
21.96079099,1.448273457178095,-2.458880992523809,-1.0665874770409518,19.262034074761903
21.977602,1.1762396465828568,-3.576079210142857,-1.1362964261028563,19.21536628190476
21.99440661,0.9380975365095233,-4.443067482904762,-1.2270942477980944,19.017623101142856
22.01120778,0.7962852176571424,-4.932135582523809,-1.257495216521904,18.635482556238095
22.02802242,0.7555994674809521,-5.089598838,-1.2972492666647613,18.489240007285712
22.04482927,0.7902940397714282,-5.082609041333334,-1.3911301754933327,18.510419851571427
22.0616364,0.882253204028571,-5.008257730380952,-1.5403118366352375,18.605955765857143
22.07843236,1.1266766331857139,-4.795837494190476,-1.6230223468238087,18.857871785380954
22.09525303,1.371966571990476,-4.4635379438095235,-1.6241069923952376,19.219032146333333
22.11204595,1.5025207655333328,-4.20263240547619,-1.5367598595857135,19.469938133809524
22.12886181,1.4609633456619044,-4.057599477285714,-1.29281973325238,19.609596611190476
22.14567877,1.3397987796571424,-3.990634873857143,-1.066268790861904,19.72407671657143
22.16247956,1.2216572931238092,-4.034017427666667,-1.0035810986714278,19.713199436095238
22.17928671,1.0403848318047617,-4.0497740348095235,-1.2423894524333325,19.632746974190475
22.19608985,0.8955137956142855,-3.938835326952381,-1.1326427748809516,19.747740368857144
22.21290559,0.866465239280952,-3.7965951659999995,-1.038454652357142,19.829869518761903
22.22970707,0.9258091449952378,-3.6090246622380953,-0.9350041269761897,19.886924450428573
22.24651852,1.0742175579476188,-2.028509073,-1.540740110166666,19.097374663619046
22.26332313,0.12886971513809492,2.995441049666667,-2.714042556061428,14.787435216761905
22.28013065,-1.0727039063857144,6.416032585857143,-1.437312603156666,11.916299819142855
22.29693645,-1.235605001361905,7.819797992047619,-0.6922147245614281,11.210038492
22.31374764,-0.9249637126000003,8.897637434904762,-0.7958074949995232,11.283151636285714
22.33055129,-0.5001435960285716,9.824529215904763,-0.5517178121280948,11.235757794380953
22.34736032,-0.29114356485238124,10.303767657952381,-0.6793795682233329,11.119019876857143
22.36416436,-0.30034875861428595,10.42683460552381,-0.8753229635090471,11.303993772333333
22.38097678,-0.5824248392809527,8.426312536714285,-0.4988076601757138,12.555474189857142
22.39778134,-0.6023348001657146,3.304460933857142,1.1626897512052388,16.804747302714286
22.41458908,-0.026781320641905044,-0.7673437485238095,0.35489079796714357,19.835064947
22.43139318,-0.24540050830380977,-2.590388616142857,-0.13811758850904693,20.299705442238096
22.44820522,-0.6964653901609527,-3.594770885857143,-0.04258465465190407,19.735189639380952
22.46502326,-1.0390707084942858,-4.1625386876190476,-0.06631898579476123,19.27297032685714
22.48181839,-1.129612457246667,-4.419497558380952,-0.3956587625090469,19.08153488385714
22.49861317,-1.0178618999276192,-4.464397589523809,-0.8887062724138088,19.072970242904763
22.51543119,-0.7483331363085717,-4.392470337142857,-1.2487652612709519,19.157376764809527
22.53223815,-0.3439525990704764,-4.243950230476191,-1.4269368959376183,19.320940906238096
22.54905103,0.07851367897714265,-4.096483252857142,-1.3988225458709518,19.480811128142857
22.56583473,0.37911770450095217,-4.000303472523809,-1.4945359342042852,19.586877444809527
22.58265821,0.41333326831047607,-4.064644472666667,-1.3035244911652373,19.477047786809525
22.59945596,0.302282719310476,-4.138317380380952,-0.9734458439271423,19.47338356861905
22.61626844,0.15347441026285694,-4.164284796666666,-0.7697610370799994,19.52832298261905
22.63308494,-6.231816571451125e-05,-4.188001405428572,-0.7123512680799994,19.556405350238098
22.64988954,-0.2189510323800002,-4.225559779619048,-0.6733611962371422,19.56295000357143
22.666698,-0.5885113535704763,-4.3183899381428565,-0.6748134492371423,19.492276068809524
22.68350085,-0.9605401244752384,-4.228683698666667,-1.2063346333323803,19.577405098333333
22.70031149,-1.1341050013180956,-3.904036362714286,-1.1245797445228565,19.875579461857143
22.71711579,-1.1186046260800002,-3.657355807809524,-0.8154824601799995,19.976880519
22.7443894,-0.8174950736847622,-1.579936572,-1.159921030037142,18.793388815666667
22.81795947,-0.9053762414238097,2.922231084142857,-2.888902456941904,14.203791623619045
22.83476864,-1.6241298289476194,5.127565338904761,-1.2769803293228568,11.971952449809525
22.85157293,-1.142814987952381,2.850488799380952,0.21139092924857167,14.266162351714282
22.86838221,0.004580373142856737,0.036023594333333415,-0.14739343413238074,17.168685032666666
22.88518997,0.47484206047619015,-1.2358004929523807,-0.7378296202752379,18.27356318852381
22.90198981,0.45728282728571384,-1.955498127333333,-0.5692156783799998,18.322298986857145
22.91879997,0.10114088539523773,-2.6074977371428565,-0.27031716311809495,18.179771962476188
22.9356125,-0.47980971536666706,-3.1800531882095235,-0.43041508002285683,18.145372746285712
22.9524165,-1.1191775455571433,-3.6344001629714286,-0.7190549035942854,18.036454909142858
22.96922495,-1.6709864477476193,-3.891879035971429,-0.8601967524990474,17.86773478057143
22.98603527,-1.9925936968904767,-3.977221170542857,-0.4828283931657139,17.766654419619048
23.00283791,-2.0142746309857147,-3.8074957068285715,-0.39527069415714255,17.944175347333335
23.01963393,-1.6376583347000004,-3.644858745495238,-0.058222390585713935,18.26314926185714
23.03645454,-1.2822624158904765,-3.480345248542857,-0.23958482938095207,18.36241124709524
23.05324396,-0.809383687319048,-3.3171435983523803,-0.4512383173809521,18.52457934661905
23.07006695,-0.3778679482238099,-3.0888524046380947,-0.6288048882952378,18.76267013709524
23.08686116,-0.1619537044761909,-2.916069143257143,-0.6332081842476187,18.890600864238095
23.10368238,-0.04001707666666707,-2.933257987542857,-0.39704315173333304,18.783399851380953
23.12049091,0.028136009523809107,-3.0017632294952374,-0.2337025945428568,18.691660593714285
23.1372926,0.02542742685714244,-3.0278382747809522,-0.25744385968095207,18.66609911433333
23.15410439,-0.08871298153809566,-3.102816739923809,-0.2461518221571425,18.615016268857143
23.1689049,-0.13942396615714325,-2.616864044685714,-0.12422143863333304,18.83549332504762
23.18560581,-0.17436815982380993,-0.8993707604952379,-0.8101932945666664,17.882390669190478
23.20242341,-0.7619438795380957,2.9303634967428573,-1.733957361547619,14.822997579380951
23.21923504,-1.8222075133000004,6.397463322457143,-1.3103959871952378,12.092841580476192
23.23604118,-2.128395665266667,7.972228709361905,-0.9185681767666664,11.258777025238096
23.25284659,-2.0464193764190477,8.710464773361904,-1.1965998977571426,11.281228378666667
23.26965383,-1.7966871658952384,9.187705744504761,-1.2208106970619044,11.179958046476191
23.28646256,-1.6152613900857147,8.140404270333333,-0.428990352585714,11.780526367428573
23.30326815,-1.1224803981333338,3.6272230379523815,1.482092369414286,15.802815383142859
23.32007566,-0.15581780956190533,-0.12582942380952372,1.6223610642047623,18.75026113742857
23.33688239,0.3513323863428566,-1.8856781092380948,-0.14261884322380916,20.359904014571427
23.35369165,0.4652697188571423,-2.9776198520952373,-0.4549585237476186,20.433248910761904
23.37049925,0.13054360095238038,-3.6765807921904754,-0.9510871964523803,19.879628482761905
23.38730404,-0.19998364785714343,-4.146382694809524,-0.8931302596571423,19.49109789657143
23.40411229,-0.6058811062380958,-4.384492601523809,-0.7796069183047614,19.219722303571427
23.4209215,-0.8629765112761911,-4.435628891047618,-0.5523648231619043,19.116708249761906
23.43771416,-0.8281750110952386,-4.240599723428571,-0.7781117272571424,19.370821510714286
23.45453316,-0.525943801476191,-3.8738271172380947,-1.2599822279619042,19.879410641666666
23.47134195,-0.22651259100000046,-3.5887027019523807,-1.4715750951999995,20.172157361714284
23.4881493,-0.055110397747619555,-3.4623621080952374,-1.5467030573095235,20.276533879571428
23.50494416,0.04025592129999949,-3.372044109238095,-1.3631655230238091,20.35875445266667
23.52176358,0.0986545711095233,-3.301385697761904,-1.0190220074999996,20.473738217571427
23.53857997,0.1142725774904757,-3.269428026238095,-0.8525844894714281,20.516827615333334
23.5553779,0.0725166401095233,-3.294972329047619,-1.0626738806809517,20.551428104666666
23.57217496,0.0319202003952376,-3.354651723714286,-1.27961646917619,20.55719261038095
23.58899085,-0.10234174835238144,-3.3682638351428573,-1.1092399413190472,20.500186548809523
23.60579971,-0.22084903143809573,-3.258148057238095,-0.7691285835047614,20.50775884338095
23.62260573,-0.27243594324761955,-3.088428996952381,-0.6951296043666662,20.68823416614286
23.63941466,-0.12095130620000047,-1.5820039113333333,-1.123806629684285,19.969020064380953
23.65621855,-0.2862839130571433,3.1693383626666667,-2.706593601417618,15.798096155095239
23.67302796,-0.960384698080953,6.986060869285713,-2.7562399449223802,12.783833904380954
23.68983547,-1.2491411026952386,8.774453889761904,-1.0769976291890468,11.148938879142857
23.70664095,-1.1340590885428576,9.601844651333334,-1.2574483184271423,11.020264940095236
23.72344873,-1.0350520496857147,9.925065926095238,-1.6555719233414279,11.18006991057143
23.74025604,-0.9482848644000005,9.951242583095237,-1.7276685464461898,11.130056711523808
23.75705224,-1.0577082066380956,8.16441617695238,-0.9847087293223805,12.326358861190474
23.7738724,-0.6226408708857146,3.6041346050476184,-0.06292681494142795,15.745675631666668
23.79067943,-0.13563181110000042,0.05793271742857155,-0.6677705677985709,17.746042371190477
23.80748539,-0.2366989454333337,-1.8365067073333332,-0.5700882054176185,17.84144278547619
23.82429157,-0.5699503195761908,-2.986244928095238,-0.41465867188904715,17.531428930714284
23.84108894,-0.9102347693047624,-3.8643909182380956,-0.30642411874618997,17.45534585042857
23.85789438,-1.199472382066667,-4.627935727714286,-0.4647717367604757,17.38308149490476
23.87473318,-1.3325835808285718,-5.153445607614286,-0.9675876645223804,17.140526317761903
23.8915213,-1.2419707038619052,-5.387905348185714,-1.4268597766652373,17.040857538428572
23.90832874,-0.9691542388619051,-5.3418268930904755,-1.488174858998571,17.10866658652381
23.92513571,-0.6178867421476194,-5.086918422233333,-1.5093399347604755,17.354632471142857
23.94194242,-0.143950933671429,-4.8111805234238085,-1.4748278974271425,17.65170312652381
23.95874203,0.2858544132333329,-4.592397144947618,-1.552151930193809,17.89776353509524
23.97555862,0.5148154155190472,-4.461995624471428,-1.5514579390985708,18.010235577
23.99235227,0.5788105497761901,-4.3872308734238095,-1.3951149899238091,18.095774920190475
24.00917202,0.5387012162523804,-4.320249375995238,-1.1828214530476187,18.193614841380953
