Time (s),Linear Acceleration x (m/s^2),Linear Acceleration y (m/s^2),Linear Acceleration z (m/s^2),Absolute acceleration (m/s^2)
0.353137431,0.5264171464409524,1.0931648157509524,4.075387069002382,5.147888513247619
0.369944072,0.5096314637742857,1.0916069259571428,3.7026020002880955,5.519723584919047
0.386746928,0.5012984577004762,1.0872012713476191,3.3127053803833335,5.9077095013
0.405638958,0.49034319778619045,1.0473860782190476,3.0123704953833332,6.210747386395238
0.42245449,0.4594073213590476,1.0053568790714285,2.653840450816667,6.572984456919047
0.439259371,0.42934666108619046,0.9690992998619047,2.1757725076261907,7.050386105009524
0.456067518,0.4135017270433333,0.9474429370761905,1.6254165963809526,7.5808081890952375
0.472873115,0.4010190377909524,0.9406821950904761,1.0203976171428573,8.070883767285713
0.489679518,0.3976031324957143,0.8812051156047619,0.3870420221904764,8.464178939809523
0.506501712,0.3880155153504762,0.7551077089857143,-0.26469260252380933,8.764436005571428
0.523308124,0.3757514814842858,0.6324628644619048,-0.952783517285714,8.99447983142857
0.540111373,0.3667480409452381,0.5489251609809523,-1.674682459047619,9.140581962190476
0.556906071,0.35911699309571427,0.4914515085571428,-2.432313397619047,9.213543893857143
0.573711385,0.3507817887433334,0.40919990585714283,-3.1961793680476185,9.250892458142857
0.590520814,0.3473108641052381,0.28441434916666664,-3.9344471757619046,9.321422891190476
0.607325192,0.3175787017052381,0.14850381544761906,-4.686094330238095,9.292155861857143
0.624119274,0.26044644625142854,0.025252573171428573,-5.406979470809524,9.088958073380953
0.640939079,0.18811760058476196,-0.05119212647142858,-6.047811372857143,8.629423499
0.657758527,0.17266822425142858,-0.13544463153809524,-6.494641895095238,8.19566361352381
0.674568647,0.23447200791809528,-0.30907549353809527,-6.511599904714286,8.191587577809523
0.691356108,0.39288125715619043,-0.4758329635857143,-6.051673072285714,8.656337620999999
0.708177809,0.6482855648657142,-0.40907619570476195,-5.03302535595238,9.286464291714285
0.72495909,0.8674265571371429,-0.3382730810095238,-3.728324913333333,9.793119156333333
0.741779773,0.9644958092371428,-0.2635358472190476,-2.4745367371904754,10.177234693714285
0.758584453,0.9969374863228572,-0.09276930626666667,-1.276461488047619,10.653827198761904
0.775392262,1.1094936997657143,0.05215868925714286,-0.0476311507142856,11.091184667047619
0.792199987,1.2598707576228572,0.14632152239523807,1.2639356564285715,11.429631695142856
0.809005316,1.3561166013800001,0.14297580866666665,2.52721375452381,11.603361435142858
0.82582747,1.373926434470476,0.07385785102380951,3.472169943857143,11.455007794952381
0.842632463,1.2829349729228572,0.11173140298571427,3.939816679052381,11.039734503619046
0.859421247,1.1531320561680953,0.2886707655571429,3.9359850428619048,11.068734142666667
0.876245343,1.01243186562,0.5140708727952381,3.6899132275761906,11.346734187857143
0.893053607,0.874590528817619,0.7171632889428571,3.4651539895285715,11.608126438333333
0.909855483,0.7506297698509523,0.8666655592238095,3.330757436433334,11.772657795380953
0.926648802,0.6494830959795238,0.9317875590190476,3.2154028074809524,11.903185243904762
0.943472925,0.5632286354842857,0.9648635388000001,3.141261441195238,11.988445033571427
0.960278447,0.4958689552747619,0.9725535044190475,3.067283630195238,12.07078262957143
0.977083516,0.41626446582380955,0.9720434220619047,2.8692812691,12.27525282857143
0.993893148,0.29575276939523815,0.9423350451095238,2.4593881425761905,12.67603980152381
1.010698589,0.127586478252381,0.9154192876809524,1.831451325195238,12.949555928857142
1.02750381,-0.08907437327142854,0.9474265817047619,0.9619769141952381,12.877958276809526
1.044296353,-0.34651444074761906,0.9525210531333334,-0.05369263618571416,12.640315374
1.061106021,-0.6194989823266667,0.8014028825142858,-1.2615410944238095,12.199608017095237
1.077911156,-0.8089645363076191,0.7522992307904761,-2.669020516804762,11.796309537571428
1.094718417,-0.8752148293314286,0.7235757865190476,-3.9630230044238095,11.453318774238095
1.1115246,-0.8324643288504762,0.5039193531380952,-5.0960689049,10.928706697714286
1.128332356,-0.7727857459457143,0.21697581532857138,-5.938350927447619,10.325045059714286
1.145163294,-0.5696756073742856,0.042867105709523755,-6.4494645484,9.955781511761906
1.161955968,-0.27732332270761906,0.18664677519999998,-6.689638251304761,9.858393271285715
1.178749364,-0.25000141923142855,0.28016457821904756,-6.481062639209524,10.064594767190476
1.195574844,-0.18966881442666664,0.1585171294571428,-5.304564090119048,11.099009815190477
1.212354111,0.14393731519238098,0.15761192221904757,-3.2892946291666667,12.136271401380952
1.229169359,0.5207948910971429,0.13499127836190472,-1.1257737253571427,12.872871816142858
1.245964647,0.7798869041447619,0.00681510009047615,0.5632193651190477,13.209953382333332
1.262785244,1.0129242396685716,-0.09957338931428576,1.889491966547619,13.411350692809524
1.279577736,1.2645031156209523,-0.08414191140952385,3.117269402261905,13.600846343761905
1.296396426,1.4326439300495237,-0.05244907728571434,4.0841260408333335,13.587815995190478
1.313205519,1.4694695471923809,-0.04685626418966671,4.556938103066666,13.19611734104762
1.330024957,1.414966498001905,-0.05002839358490481,4.550184817352381,13.214772592476189
1.346816894,1.3357583964304762,-0.043777234416333376,4.281277179257144,13.493179709619048
1.363635731,1.2436657858590476,0.009156484059857103,3.963919162209524,13.822225077285715
1.380446493,1.157360610382857,0.09719391532176187,3.7187596949714288,14.078039658380952
1.397251267,1.0659835110495237,0.18681612903128567,3.562490167257143,14.240805768333333
1.414030441,0.9410549600095239,0.25467346259795237,3.4295808012095237,14.38389384857143
1.430850496,0.8192433856095239,0.23484358197604757,3.4302225788285714,14.39228815047619
1.447657152,0.713758318109524,0.19864337365223805,3.4214063593047617,14.406418504761906
1.464464851,0.5749972859190476,0.262416162704619,3.257022993304762,14.558439416190476
1.48127018,0.35213638763333344,0.40025935713319044,2.8211634493761903,14.780629803476192
1.498077121,-0.05009011717619044,0.45553672741890466,2.0884185966619047,14.752155400190475
1.514885349,-0.49261234774761903,0.2989776432760476,1.207560220757143,14.538738534142857
1.531701419,-0.5674511790571428,0.2808952289189047,0.2069731206142857,14.329542488809523
1.548497029,-0.5481664964428571,0.44478191791890476,-1.3110938757666666,13.587088957666667
1.565303543,-0.7712423645571429,0.3309380738603333,-3.2324258716238097,12.42679108809524
1.582110438,-1.025811977347619,0.12888890928890473,-5.056260563528572,11.31982039947619
1.598917629,-1.126421694252381,0.073662492474619,-6.322514852195238,10.523142689809523
1.615723562,-1.1382622761095238,0.09796321530795234,-7.1735639123380945,9.86635524304762
1.632531785,-1.121033752204762,0.05730775565080949,-7.808171181861904,9.310277032952381
1.649348939,-1.0336581964904763,0.036384189403190444,-7.975806281909524,9.170744644285715
1.666154574,-0.8573160838238094,0.056719713259523775,-7.5176205409523815,9.61092273752381
1.682963416,-0.5967969084904762,0.19642646538333328,-6.323804446666666,9.86375280657143
1.699754759,-0.22623660301428572,0.42099707181,-4.39821820047619,10.269994596571427
1.716574934,0.2426881918904762,0.3923633126766667,-2.0994679133333327,11.020315755619048
1.733357801,0.6444784020809523,0.1897423692480952,0.05965500809523811,11.876583909428572
1.750176462,0.9504072681285713,0.0450094625385714,1.6388591585714285,12.337252770380953
1.766983149,1.2428317652714285,0.14700142820999998,2.67642825,12.321016269904764
1.783789962,1.4522534339857143,0.4011743947938095,3.5257987975714284,12.228926111523808
1.80059109,1.5360670161519046,0.5565303733890475,4.248494829380952,12.01211652195238
1.817404572,1.514765474151905,0.6162222992319047,4.6228287105714285,11.67901368604762
1.834213492,1.4323496720090478,0.6326323917652381,4.562759717047619,11.75608501342857
1.851026099,1.3237878496280953,0.6709029106366666,4.191291899761905,12.138740776571428
1.867851163,1.2434137563423808,0.77412889397,3.795854341428571,12.545296826904762
1.884641832,1.1524818327280952,0.8514643594985714,3.567367962523809,12.791040250333332
1.901450193,1.0607472502614286,0.7919832666366666,3.475396656047619,12.889865551476191
1.926656574,0.9866321910423809,0.7118458151238095,3.3311674480952385,13.048252544857142
1.943468382,0.9363625674519047,0.6682743089333333,3.1545961923809527,13.233474271095238
1.960272349,0.8755266666947619,0.5752505092095238,2.8972085315238094,13.502350746
1.977081859,0.7539362368471428,0.41517365259047617,2.5437079382857144,13.820888837809523
1.993885666,0.5817614041804762,0.23732499562857146,2.132242793,14.024221709380951
2.010677867,0.40436765555190474,0.04612922951904762,1.4774330682857144,14.058948136047619
2.02749731,0.2555963071090476,-0.06595031138095238,0.585922695142857,13.972829123
2.044281892,0.13317867406619047,-0.2179796553857143,-0.5989421211904763,13.693290526095238
2.061098147,-0.09291332105285714,-0.48761860813333335,-2.277161825476191,13.026979475142857
2.077885012,-0.39218526508142854,-0.6130306124571429,-4.163970697714286,11.866263993761905
2.094709938,-0.5826124435100001,-0.5487576807904763,-5.742648783476191,10.477416092428571
2.111514173,-0.609531683557619,-0.46681842629523806,-6.550128596238094,9.702734251238095
2.12832586,-0.6239471293671429,-0.7256305700095238,-6.701365947809524,9.569631184809523
2.145145826,-0.7044620769338095,-1.2577853117238096,-6.561686629428571,9.689916579380952
2.161933868,-0.6924072617571427,-1.536134802152381,-6.079049950761905,10.143479585619048
2.178758947,-0.44307870523333326,-1.3977065625714284,-4.7691200121428565,11.246709115190475
2.195561365,-0.14100381875714282,-1.325660773695238,-2.964123294523809,12.016193364714285
2.212374171,0.07011391434761907,-1.4758926800428571,-1.0489500821428572,12.331770804714287
2.229163266,0.25383980500000003,-1.6163838250428573,0.7591686469047619,12.524784168523812
2.245972709,0.5150829326190477,-1.6797806195047618,2.2582150630952382,12.767028254714287
2.262777823,0.711776125952381,-1.547854548452381,3.298357122142857,12.856607168047617
2.279584561,0.8346778948809523,-1.256968509595238,3.996320201190476,12.575181929904762
2.296391071,0.9103770425995238,-0.8940894831190476,4.339344545904762,12.35241518147619
2.313197945,0.9472469999328571,-0.5788129738809524,4.357336065904763,12.368158396238094
2.330020221,0.9424232783423812,-0.3080610547857143,4.103830404523809,12.625481938809523
2.346825036,0.9063631593899999,0.012918767452380953,3.6490554117142855,13.065387987809524
2.363608579,0.8836840745900002,0.2892228761666667,3.2957662617142853,13.390928211714286
2.380440256,0.8559513673661905,0.40088794907142866,3.1273330724761905,13.551068784761904
2.397243306,0.8135448722376192,0.38425321800476187,3.104174545,13.576847791190476
2.414048635,0.8195210042214287,0.40226380024761904,3.1716625796666666,13.508190660999999
2.430844555,0.806484044992381,0.5299199705333334,3.1044403250476194,13.558484425333333
2.447651074,0.7206438403304762,0.5572037809619048,2.711562155904762,13.892389838142858
2.464457577,0.5366675477209524,0.4614113171333333,2.0043277277142857,14.147798558857144
2.481264178,0.36422942434000005,0.5178288845142858,1.1371463583333337,14.271569309571428
2.498070712,0.34409526697333337,0.8560254005142858,0.11601207285714311,14.268715956714285
2.514877419,0.36400781924000003,1.0699378308,-1.0624049965714282,14.00678759847619
2.531683983,0.25911405536857146,0.8475205273238096,-2.576792536095238,13.067069743523808
2.548490828,0.18879318236857148,0.6434990564380954,-4.104707287142857,12.055006384333334
2.565279347,0.24121513821619056,0.6687049183904762,-5.483767509904761,11.22811914157143
2.582103932,0.25867547308761907,0.7341095038142857,-6.729983602571428,10.464166318619046
2.598901336,0.16955157123047623,0.7056065740371429,-7.620263054342858,9.62909122252381
2.615717255,0.1892728295161905,0.3988749412752381,-7.804294722342857,9.481172574714284
2.632519547,0.39220296206380956,-0.019525096581904763,-6.955716496152381,10.275494291428572
2.649344595,0.6945163466309525,-0.40114967034380955,-5.192032632295239,11.533906230809524
2.666134355,1.0571049906738095,-0.7885698251057143,-3.014576866104762,12.755322910809522
2.68295808,1.3740915969214287,-1.1042994885819046,-0.7621260137238095,13.656077052238096
2.699762673,1.6128822395404765,-1.3410253298200001,1.179496311514286,14.01075283652381
2.716568311,1.8032907758738095,-1.4293701535485712,2.6030083162761906,14.045034008904763
2.733364947,1.9527513243499999,-1.3470001845485715,3.6242980507523814,13.938070832142857
2.750167637,2.050788079045238,-1.170965807810476,4.262686139419047,13.658098199857145
2.766978556,2.0596425079709526,-1.0277877138295237,4.503386225371429,13.445829745380953
2.783783706,2.0114782325428573,-0.9640961942580952,4.368106887942857,13.58780521004762
2.800590449,1.9303782135857144,-0.84632073702,4.0530862814190485,13.905668890476193
2.817396861,1.847063187385714,-0.7065568992719047,3.7568879814190477,14.190256915714288
2.834219442,1.7639031403857142,-0.6853017523671427,3.582300096180953,14.367558121428571
2.851024217,1.658373977509524,-0.8152645826528572,3.459215936657143,14.498633373333334
2.867813432,1.5464971321380954,-0.949093438367143,3.27158846227619,14.684451274428573
2.884621212,1.4558235946761906,-0.9292838687385713,3.028794107514286,14.922252261761903
2.901430066,1.353760563242857,-0.8247144336433333,2.8171471419428573,15.077572113380954
2.918236876,1.2311854618333333,-0.7852899915480952,2.667476245847619,15.195705237333335
2.935043567,1.1304455144428571,-0.8903588908766666,2.531609127038096,15.339534139238097
2.95185005,1.0704833014142858,-0.9659473385899999,2.182084356571429,15.661893485666667
2.968656656,0.9501738477557143,-0.7648798795661904,1.371124994714286,15.665105197238095
2.985479018,0.7117668149223809,-0.5457242898328571,-0.03209095876190416,14.994328536666666
3.002282165,0.39937799886047615,-0.5245502960709524,-1.82928830047619,13.65389546961905
3.019089188,0.05533780369857141,-0.48008242678523805,-3.700897012047618,12.123856490904762
3.03588325,-0.16625473615857145,-0.3470118216614285,-5.399833815285713,10.664364660809523
3.0526819,-0.2726652849204762,-0.2329792976995238,-6.624237469,9.611535695666666
3.069496243,-0.3288828474919048,-0.32174592930428564,-7.096565655190475,9.146497771238096
3.086306633,-0.3967861958776191,-0.4676787512995238,-6.890168553,9.333888588952382
3.103109885,-0.32548923716333333,-0.32403045610904757,-5.964368320238094,10.244479401238095
3.119899331,-0.05383651309666672,-0.11768862177571424,-4.260862895142857,11.543309234
3.136735096,0.34413924958904757,-0.09396853901380953,-2.0312910984761894,12.659772134476189
3.153525852,0.7031148189699999,-0.21843529882333332,0.2549086529523817,13.39055721542857
3.17034793,0.9388640863985713,-0.3139033260952381,2.006809462476191,13.55494885495238
3.187142837,1.0410102691185712,-0.2105979465380952,3.130854334761905,13.278335993
3.203959965,1.082954341499524,-0.05939669839523807,3.7936890927761917,12.69342632295238
3.220743602,1.055340241880476,0.06873874436666669,4.013353575538096,12.48604666895238
3.237562989,0.9716705112614286,0.14654527390952382,3.833612624585715,12.675506737047618
3.254369788,0.8820121544090476,0.19812278521904764,3.485275451204762,13.027862864619047
3.271176612,0.8253602329138093,0.2231227784095238,3.1647664033952387,13.344618094380953
3.287982653,0.7782827899709523,0.18713303974285714,2.870954514395239,13.64251276352381
3.304789599,0.7340380947138094,0.10105855126666663,2.60830711282381,13.920082147
3.321609362,0.7206582626057143,-0.02114057537619048,2.508359137919048,14.029793321333333
3.338418592,0.7286976036933333,-0.08227248982380952,2.4261703500142864,14.114809305190477
3.355223764,0.7311317850095238,-0.03291560918095239,2.2415030352047625,14.284147542619047
3.372029692,0.7061893074619047,0.03396873248571428,2.0189268711571438,14.468668739142856
3.388817305,0.6209937149999999,-0.01695560273333336,1.7409838276809528,14.740179607571427
3.405638768,0.5151388177142856,-0.13497928779047622,1.3865562175380957,15.063602505904761
3.422452637,0.3999308163476189,-0.1587814092666667,0.7035007031571433,15.225826632523809
3.445533688,0.34503514002857133,-0.16228348300952383,-0.4599558049380947,15.081206246333332
3.462355261,0.20663554186666655,-0.4734350272809524,-1.977756136128571,14.402247562238095
3.479155748,-0.045520358138095324,-0.8327345167285714,-3.7172126760333333,13.114256281714287
3.495968339,-0.3614078376952382,-1.0131181535380953,-5.475723583747619,11.551900209476191
3.512771755,-0.572697822504762,-1.0179957719190476,-7.063138416271429,10.155905869571429
3.529578611,-0.6301438652190476,-0.9773739633,-7.8524693984619045,9.375035409333334
3.546385527,-0.5690281007961906,-1.0595299913666667,-7.632994833128571,9.597358106047619
3.563191547,-0.39377277946285727,-1.1248962027428573,-6.5792456578095235,10.555369941809525
3.579998034,-0.043865335843809576,-0.9666971081714285,-4.786695888666666,11.514217262952382
3.596805571,0.4402952918228571,-0.8508324906761905,-2.4704196562857144,12.431827546761905
3.613612221,0.9161053768704761,-0.8596210706619049,0.06470289704761914,13.410620583428573
3.630430044,1.290433013775238,-0.8323984883761905,2.330449240857143,14.231736537238094
3.647241944,1.556719392632381,-0.6869634304285713,4.066588220380952,14.626297662476194
3.664029348,1.6582609855704762,-0.4667271858095238,5.056403023952381,14.345296837000003
3.680852765,1.6316490457895239,-0.2850392177142857,5.273846013428572,14.130096209285714
3.697644269,1.5446953178209526,-0.16640744042857142,5.043082759571429,14.366144897904762
3.714463644,1.4644806101857144,-0.11193305258095237,4.665144625142857,14.746324866095238
3.731233177,1.4164297751809525,-0.07127658244285713,4.283047562666667,15.126134040666667
3.748065086,1.3972419330857144,-0.03657994668571427,3.983325163666667,15.420843208047621
3.76487123,1.3882391027809524,-0.06147066468571426,3.7565121651428575,15.648812759142857
3.781678002,1.3885362007142856,-0.10068822759047617,3.564150515238095,15.844721560285715
3.798472376,1.387753608757143,-0.1952252927095238,3.4510669028571432,15.971492330761905
3.815290379,1.3645587677809525,-0.32253358758095235,3.270507426428572,16.172492897238094
3.832100032,1.3280839353142855,-0.44793467575238094,2.897589887761905,16.56198749157143
3.848916571,1.3151709012380952,-0.5100984260857142,2.4228545369047616,17.021965711428575
3.865727066,1.298721398695238,-0.5834113103714286,1.9583258175238096,17.466672052761904
3.882533595,1.2592606942476192,-0.6630036007523809,1.2682842301904762,17.82031269157143
3.899336636,1.2392391251000001,-0.7196824692428571,0.14331974352380952,17.65846450538095
3.916142382,1.1759024007666665,-0.8088438142,-1.3004470320952382,17.01283719838095
3.932955003,0.996525492052381,-1.1389671365333334,-2.9254990074285714,15.892651482190477
3.949753853,0.6967865058619048,-1.4288123647238096,-4.757088570190477,14.518146025285713
3.966567422,0.37578094573809523,-1.4808852303333333,-6.724750382285714,12.975155660571428
3.983366728,0.15711839992857146,-1.4086041137999998,-8.316391990047618,11.495988496333334
4.000183958,0.08054446035714287,-1.3755393141523808,-9.086296353619048,10.730956176428572
4.016968504,0.22641906846666668,-1.423795041542857,-8.766753968142858,11.069253301904762
4.033776469,0.5779536791571429,-1.4408262115904762,-7.286519617619048,11.94198953247619
4.050584494,0.9420775061095238,-1.3532464333047618,-5.306177479047619,12.547458747714286
4.067391113,1.2339866955857144,-1.1478387513666666,-3.453431877619047,12.839449842
4.084198101,1.527742448252381,-0.9321569600761905,-1.6171547790476188,13.162199484380952
4.101004284,1.9132161196666668,-0.8264869847857144,0.42485076000000027,13.832409895809525
4.117811139,2.2555848671619048,-0.7580507595238094,2.4456387709523812,14.565981868190477
4.134617768,2.407909123595238,-0.677105403995238,3.8905643061904764,14.766636697714286
4.151424613,2.438614232124762,-0.5900668018523809,4.490004290280953,14.18746920642857
4.168246707,2.4313966290580953,-0.43023495440428566,4.490820272185714,14.165737591666668
4.185051273,2.3863609744819048,-0.30100463678523803,4.264144421233334,14.37406656547619
4.201858493,2.2999719153533333,-0.18450396396619043,3.9071440250428573,14.715954284523807
4.218647334,2.1826235906580953,-0.07979549675190474,3.6488087298047627,14.958170939285713
4.235460749,2.052827420629524,-0.07008977156142857,3.494248640757143,15.113675093571427
4.252278375,1.903697956110476,-0.16449423056142856,3.409397602661905,15.227949535476192
4.269070908,1.7477458431104762,-0.3365787947995238,3.3070611730428574,15.386311584380953
4.285887335,1.5934505064914284,-0.48674740670428573,3.1040569490904772,15.633052780095237
4.302684007,1.469181094824762,-0.5073031754185714,2.839912324233334,15.884699097476192
4.319484361,1.3928906292819048,-0.5124513705138095,2.539999235852381,16.179232534571426
4.336311307,1.3152226805438094,-0.5921355542376191,2.1224788036142863,16.573810287857142
4.353110247,1.2065731549295238,-0.7172340722138094,1.427661941757143,16.662038707
4.369923918,1.0133244732290476,-0.8265723330614285,0.3849220733761908,16.328538457238093
4.386725054,0.721098986062381,-0.9216646183233331,-1.1175288696714283,15.467612313619046
4.403529459,0.4678541716242858,-1.0686877625566666,-2.6723906877666663,14.429597007428573
4.420347574,0.2501645950052381,-1.2602090438614286,-3.9407080240999997,13.550384601619049
4.437155669,-0.005645305280476205,-1.3947816065757142,-4.974799065147619,12.517945124714284
4.453923564,-0.3656442055471429,-1.3472556330519045,-6.027453876576191,11.444174781285714
4.470747528,-0.7425739654995238,-1.1073576212661904,-6.812209991814285,10.667778771761906
4.487561189,-0.8966197573423811,-0.8394488437471429,-6.764208021338094,10.733948138428572
4.504364015,-0.7024175953528572,-0.5910240809852381,-5.494644391619048,11.95139973352381
4.521170971,-0.2561399826242858,-0.2926767383857143,-3.2987608673333337,12.98590497257143
4.537977226,0.20109770947095237,0.0462269044714286,-0.8308199463809525,13.822329808285716
4.554784925,0.48203107828047614,0.2353805757476191,1.2000380479047619,14.016876713047619
4.571593448,0.6050543810709524,0.41190594148571436,2.5278293526666666,13.737043640190477
4.588394747,0.6954796460280952,0.6090431610095239,3.4206030260952387,13.267814117
4.605202813,0.7619576401566667,0.779811234652381,3.9740768165666664,12.70937257940476
4.622027897,0.8131150238233333,0.9643201827476191,4.2164107739,12.411987655309522
4.638827225,0.8278969927757144,1.1641215028714287,4.105797496042857,12.460320346261906
4.655641636,0.8112647140138096,1.3037771837619048,3.7059461055666665,12.836152692452382
4.672425685,0.7835967147757144,1.342652337847619,3.2621344617571424,13.275662077690475
4.689238013,0.7473526657995238,1.2411230745619046,2.9404540750904764,13.611080086738095
4.70604384,0.7016331153185714,1.0646258138476192,2.718008087661905,13.8790478275
4.722851273,0.6745606242809524,0.9137945005142857,2.5939397822333334,14.05088408297619
4.739657783,0.6466231282904762,0.7736879360619048,2.4894279309000003,14.186362201357142
4.756464322,0.6032287982857143,0.6265369200095238,2.3040496519,14.391909701833335
4.773257453,0.5794154995190477,0.4774193821238096,2.024493218709524,14.686208057642856
4.790077412,0.5743070068047619,0.29276132026666674,1.4765520564238097,15.15436348502381
4.806883218,0.5674103421047619,0.04519384826666676,0.6705632449952383,15.389549779880952
4.823707743,0.6218801488999999,-0.3101582582571427,-0.3653621660999998,15.246836651785713
4.840494322,0.6665458530666667,-0.6500956954,-1.6239520922904762,14.749856054166665
4.857318024,0.5214128061619048,-0.9105537447333332,-3.11811592357619,13.733929539928571
4.874117299,0.22525609320952372,-1.20859957298,-4.797664686909524,12.232099683404762
4.890901185,-0.07051572131428581,-1.4966668343799998,-6.374950635242856,10.655158340880952
4.907711387,-0.21731275393333344,-1.671314313218095,-7.33261530662381,9.681941980071429
4.924526563,-0.1674591196761906,-1.764222139322857,-7.526090848290476,9.485989812166666
4.941337984,0.0836726526047618,-1.7379016364180953,-6.875474338861904,10.162456877738096
5.025369644,0.21536435538095225,-1.7232599711419045,-6.253228822666666,10.73688224152381
5.042175908,0.3451032425238094,-1.7953049794752378,-5.4792253395238095,11.008674231809524
5.058983222,0.42078310954666653,-1.8804653938371427,-4.770729881666666,10.616117573904761
5.075789617,0.47051754304666654,-1.8942405949085714,-4.315151123,10.158678718666668
5.092596411,0.48176645514190464,-1.801366204184762,-4.253012429190475,10.096597190571428
5.109419756,0.4421049398561903,-1.6066302457371429,-4.587277911095238,10.418159035809524
5.126220598,0.41389573042761896,-1.3231333436371429,-4.930776504428572,10.71129559295238
5.143030871,0.37417974211809507,-1.1500837802085713,-5.172566367761904,10.899424747238095
5.159832711,0.3156314222276189,-1.1293785003990475,-5.268583978142857,10.988265661047619
5.176646951,0.2873829900942856,-1.1268485500180954,-5.215073130619048,10.938704262571429
5.193432758,0.30189870791809514,-1.0969899041133333,-5.0017875938095235,10.724962069809525
5.210242879,0.31056567172285704,-1.1092029639704761,-4.692505858809524,10.441261377761904
5.227049795,0.31700550797523797,-1.1065075511133333,-4.434789884190477,10.197452380666666
5.243854502,0.3099500806276189,-1.0308687005895238,-4.328537350142857,10.076076709428571
5.260671184,0.26367306422761894,-0.9480459576847619,-4.368990988476191,10.101457683142858
5.283797337,0.17900087717999988,-0.9610407466371429,-4.545205115809524,10.272636666857144
5.300587541,0.03515345708952368,-1.0593212105333332,-4.843580654238095,10.534834902666667
5.317400306,-0.08770781189142869,-1.1442488035142857,-5.235866637,10.781230748190476
5.334206932,-0.1530350702104763,-1.147571779490476,-5.6734753559047615,10.922427227285715
5.351013212,-0.261505755624762,-1.1951345035571428,-6.2815595804285715,10.867608009857143
5.367819609,-0.5013216634414287,-1.3404450757857143,-7.366323356952382,10.188013178428573
5.384626961,-0.5508964047366668,-1.4058836301809523,-7.965714794761904,9.655094961380954
5.401416731,-0.5756467623080953,-1.307308753395238,-8.200924396142858,9.404177645714284
5.418239867,-0.5099247424261906,-1.0224622545380952,-7.900778338666666,9.681459056428572
5.435046976,-0.3821541368785715,-0.7172000295,-6.679376306857142,10.073944652619048
5.451849868,-0.11390932540238104,-0.4920030207857143,-4.471997193047619,10.513240287857142
5.468647844,0.2624524193119046,-0.31474656151904756,-1.7270554816190475,11.033406802142858
5.485453141,0.6056927087404761,-0.07367127285714285,0.7010243960000001,11.578491255
5.502258266,0.881353870740476,0.3056151753333334,2.625451065047619,12.096511523095238
5.519066337,1.0665976021690473,0.603915839,4.119206314571429,12.500045096428572
5.535872754,1.1789574835547616,0.7752119359714287,5.122301623666666,12.66407649252381
5.552679308,1.2331790795880953,0.8598377364333335,5.5429351668095235,12.511503277095239
5.569484139,1.28437329895,0.9564156475857143,5.343184153,12.673259814619046
5.586292804,1.311478531740476,1.0785665796380952,4.854310285047619,13.130631842666665
5.603098158,1.3240708133547616,1.1453526985457143,4.341605027333333,13.635303656761906
5.619921071,1.3470287968261903,1.0978258621647619,3.9296487851904764,14.04846591542857
5.636721735,1.3542492382119047,1.042846901164762,3.568978195714286,14.412283629761905
5.653527913,1.3375608771595235,0.9682821263076191,3.1628407746190472,14.824957199999998
5.670333084,1.3010971936166666,0.8517338265457143,2.7221759838095245,15.281567296047617
5.687144644,1.2746194267261903,0.7182847829790476,2.3560396145714284,15.66344158157143
5.703939998,1.291947751497619,0.5929846707695239,2.1251133731428573,15.910702749285715
5.720744921,1.3046936456333331,0.4519585144742858,1.969900493952381,16.104887847571426
5.737554119,1.269554700847619,0.3150037754742858,1.6681357559523813,16.37479737452381
5.754359311,1.2078514162666667,0.1650928486409525,1.0750781689047622,16.44813945952381
5.771166365,1.1473516090857143,-0.09487676050190466,0.23302575461904781,16.404193573190476
5.78797062,1.0751591615523808,-0.315691669787619,-1.0538541025238093,16.07787196842857
5.804797301,0.8805556616428569,-0.5243196317399998,-2.76405631947619,15.143521587476192
5.821597202,0.6020090643729522,-0.7536029759019046,-4.52620635747619,13.636475192666667
5.838407826,0.264769146134857,-1.0258993137352381,-5.968456336842857,12.203552310904762
5.85521108,-0.11514294643657154,-1.1922740879733331,-7.290627457176191,11.204851021952381
5.872021948,-0.4263211765318097,-1.1288104795923808,-8.332050323699999,10.53484948852381
5.888824922,-0.6374090391508573,-1.1114993947542855,-8.789359093080952,10.142078102238095
5.905616996,-0.7536486720508573,-1.40121786374,-8.590880576033333,10.456480688809524
5.922439556,-0.5753243785508573,-1.7991164526066665,-7.60021586674762,10.795402683809524
5.939246717,-0.1713284594841906,-1.9191428820876186,-5.726142111509524,11.24027377047619
5.956054939,0.4094498922634283,-2.0730659167571424,-3.258125441985714,12.087481113333334
5.972856539,0.904022446677714,-2.1356534277571426,-0.7480584557952377,12.990925794285712
5.989666685,1.2269525556253331,-1.9835668406,1.3010812032523813,13.494249715714286
6.006457605,1.4486771708158093,-1.601943640552381,2.8822986513476194,13.485175847619049
6.023266285,1.6356143326729522,-1.1061277617428569,4.212842805157143,13.300979237619046
6.040072947,1.707534788596762,-0.6649748030761904,5.196036974728572,13.057781791095238
6.056879507,1.6729239934729523,-0.3008753005523809,5.694255193433333,12.759974729761904
6.073685948,1.5575050711539045,0.0837737264000001,5.7162379541,12.759688904571428
6.09049671,1.4221846120443808,0.5098256836857143,5.377308800385715,13.077065686095239
6.107315294,1.3045473183872378,0.912634168257143,4.896303267861906,13.543681174857143
6.124122514,1.1894953648062856,1.1840653304952382,4.548419816338096,13.902746988380954
6.1409244,1.0953317029110474,1.2105398517809525,4.444494837766667,14.013767885047619
6.157707191,1.029205072487238,1.150524031457143,4.370117414719048,14.085647934571428
6.174541989,1.0030404698238093,1.1359154155333333,4.039638610338096,14.416998266523809
6.191343799,1.0418009332285711,1.1120524291952383,3.448336964942858,14.908575612095238
6.20813949,1.1550319677047616,0.9440849536142857,2.9830230533714293,15.248972947714286
6.22493285,1.2733122706095237,0.6799601514714287,2.5474474546571435,15.48170581495238
6.241752624,1.3345801915142854,0.546872686709524,1.9665954002761912,15.735639846285713
6.258559606,1.359784605942857,0.8126649487000002,1.2511790369904767,15.659720902047619
6.275367864,1.1078945313238093,1.2598359399761907,0.3383084027523814,15.242813149761906
6.29217302,0.6521185210999998,1.3672029304428572,-1.0647052351999997,14.331472763952382
6.308994355,0.041296476533333196,1.4629116128714288,-2.8560087789142856,12.822885431619047
6.325796918,-0.45439413045238114,1.491582094157143,-4.5497508499285715,11.197881892095237
6.342606477,-0.7550895579366669,1.403753321761905,-5.880923021214286,9.995476892000001
6.35941491,-0.9062919655366667,1.1101613399047618,-6.754355998166667,9.312064084238095
6.37621802,-0.8727951542985716,0.6490965925238097,-6.948276633309524,9.086525251380952
6.393013029,-0.6823280975366667,0.16635961900000018,-6.289447988595238,9.673782223619046
6.409818292,-0.3377201057223811,-0.36494608009523793,-4.583704925395238,11.182599496380952
6.426627806,0.13276595618238082,-0.8510859225238094,-2.5173735841571423,12.540414603761903
6.443433013,0.5560598305633332,-1.2311079714761903,-0.6003763103476186,13.199767313285715
6.460225897,0.8918450718966665,-1.4169148589476188,1.2866919387000002,13.485652718999999
6.477032227,1.149920286468095,-1.5158949678523808,2.874686604890477,13.553504864714284
6.493854767,1.3114189579442854,-1.607625539785714,3.9507741026523813,13.409405196142856
6.510659344,1.3603604708538093,-1.5988313910238094,4.453204019185715,12.953103139785716
6.527465888,1.3256607867395236,-1.5241835216380952,4.581716537852381,12.831126855357143
6.544272768,1.267364418525238,-1.4597970857190474,4.555410385471428,12.863880755357142
6.56108063,1.2363556413823806,-1.4519466516190473,4.28447205737619,13.136076926309524
6.577885257,1.2333525663823808,-1.4172673636761903,3.7237388978523813,13.69127407345238
6.594706327,1.2497385757633332,-1.3482772693333331,3.120998837328572,14.280854642690475
6.611513578,1.2427347802395237,-1.3895840204666665,2.650796118852381,14.751093219023812
6.628319615,1.2242562958585712,-1.5808884501238094,2.3297277183285714,15.096941009404764
6.645103102,1.1951993664633331,-1.7965404362571429,2.078308151519048,15.39899474045238
6.6619139,1.1647911798871429,-1.9578467436857143,1.790129753042857,15.727218530880954
6.678741018,1.1202929746823809,-1.996787241495238,1.354392688152381,16.093640555642857
6.69553155,1.0836711284238094,-2.0527556510190474,0.9710725155333334,16.465432356785715
6.712320847,1.019090939090476,-2.088229820828571,0.6664900105333332,16.75490972697619
6.729145927,0.8042274344238094,-2.051105482257143,-0.03852212927619048,16.73003635788095
6.745939948,0.5188335634190475,-1.8939900001238097,-1.3758241784666667,16.068788285261906
6.762759228,0.18991035222380934,-1.5301952078380952,-3.3899567237047616,14.65789555692857
6.779568486,-0.16941597349047638,-1.202164877038095,-5.272893519323809,13.05708985154762
6.857309774,-0.3328697227285716,-1.1623947507047618,-5.478397982180953,12.822973369166666
6.874100057,-0.31716972306190494,-1.3917098726619048,-4.9546910917047615,13.354007406309526
6.890906505,-0.170591025109524,-1.7086452075190475,-3.9326697526571426,14.40042327345238
6.907729971,0.03397948403333316,-1.8254964237761906,-2.710008143752381,15.644605080595237
6.924537457,0.19638118007619026,-1.8685074448190475,-1.5121837564761904,16.844190231714286
6.941343152,0.31279031721904743,-1.917053744868095,-0.5895822837142857,17.06523372661905
6.958149529,0.43644374041428546,-1.9566575515442854,0.1458253638095239,16.60569838047619
6.974954144,0.5764338090333331,-1.8744993777299999,0.8503377100476192,15.914021499190477
6.991735853,0.7421133489857141,-1.7861274253395236,1.537251927047619,15.238054191761902
7.008555932,0.9045605176999998,-1.7247284082776186,1.8912161875238098,14.889860910809524
7.025362878,1.0496665835571426,-1.623753255268095,1.7812291103809526,14.998126500809525
7.042165084,1.1497534371761904,-1.3901718826014284,1.3645097646666668,15.389085989380952
7.058978968,1.245552122604762,-1.117134477372857,0.9373307003809527,15.761828021761904
7.075777989,1.3169163415999998,-0.9004547113109522,0.5883256825714288,16.05533245366667
7.092611231,1.35454705857619,-0.8170301147395236,0.3388220018095241,16.279205060333332
7.109409348,1.3680161841190475,-0.8192590900252379,0.19622925380952405,16.416968174999997
7.126214982,1.3857709645142855,-0.8432688286919046,0.09629740052380978,16.518098809238094
7.143015499,1.4165692109809522,-0.8468329934061903,0.019953682523809812,16.58998731552381
7.15981969,1.4656394344380952,-0.9096279285395236,0.027560711095238395,16.590978750857143
7.176623401,1.4964282491761902,-1.0580491082538093,0.09462585923809556,16.53110724247619
7.193429248,1.4994654989333331,-1.1730788122442857,0.03334404190476226,16.598707919285715
7.21023596,1.3504501489333331,-1.0904636183728569,-1.3497623713809521,15.800808944285714
7.227042602,1.111598459780952,-0.9275549507728569,-3.29636058347619,14.48412805695238
7.243849659,0.8422261668428568,-0.7073113378633332,-5.3235570133809516,12.766988937190476
7.26067278,0.6099661439857141,-0.701559750768095,-6.910171849380951,11.216249231904763
7.277476217,0.5256902000809522,-0.8686180738776188,-7.816186791333332,10.360996240619048
7.294277415,0.5619548069857141,-1.0036030865571426,-7.882719562285714,10.318210175380953
7.311094016,0.7022022257428568,-1.0040467111571427,-7.212664399809523,11.002687657714286
7.327896323,0.8159388211714284,-1.1686425989190472,-5.816228594142856,12.082999660904763
7.344703076,0.9268161534095236,-1.4882282458238092,-4.026540983523809,13.098224109761905
7.361509279,1.1069564670761902,-1.5243329660904759,-2.064042500190476,13.696177092619047
7.378317009,1.2600074460285713,-1.3734453661,0.08014115790476223,13.957561837857142
7.39512307,1.342177205885714,-1.3708831894809521,2.0049939831428576,13.745215343571427
7.411928369,1.3553587560476188,-1.3411233453285711,3.4441083721904766,13.26547936642857
7.428734562,1.3251465318095237,-1.250387353533333,4.358241080619048,12.572462804047618
7.445543359,1.2806244564047617,-1.0876543550095235,4.747729618809524,12.19763848209524
7.462349431,1.2398557450809522,-0.8632477152476189,4.66791652452381,12.273112426857143
7.479158453,1.1948365115714286,-0.6057642782952379,4.244372095000001,12.683705719238095
7.495946498,1.1370842159619046,-0.3826665565809521,3.686902681761905,13.234583033476191
7.512756577,1.0489418336999998,-0.24569192100476173,3.1517950238095245,13.762139375999999
7.529562415,0.9555309174428569,-0.18245710925714267,2.6580051237619053,14.246243310809524
7.546353289,0.8764992470666665,-0.17739274668571411,2.2822505629047622,14.617621529380953
7.563172777,0.8345848095904761,-0.25261716893809505,2.1452284990952384,14.770573408142855
7.579986387,0.7888357015999998,-0.34473770282380933,2.1288943287142863,14.812276866761906
7.596803455,0.6916251694428569,-0.41942942987619025,1.9037720585714288,15.052032834857144
7.613607248,0.5729512431571426,-0.35421095287619025,1.3534119239047624,15.338202011809523
7.63041924,0.46571663177142836,-0.12491099319523791,0.5890416868571432,15.419916348285716
7.64719871,0.3611939664142855,0.07278801432857161,-0.29268155795238066,15.264063072571426
7.664017912,0.18004823027619027,0.09190787165238114,-1.413455123285714,14.74648523390476
7.68083727,0.01993585478142837,0.17324314376666686,-2.915784722523809,13.755274529333334
7.697627745,-0.12404691326619068,0.4809205716714287,-4.493575209714285,12.528471816142856
7.714440613,-0.35415081474238114,0.5928452043428573,-5.859732015,11.392377210761904
7.73124405,-0.5480661563138097,0.4584153578761906,-7.040357339952381,10.22942573847619
7.748054261,-0.6019909836947621,0.3033646317333335,-7.584005560095237,9.698590123666666
7.764871391,-0.4968534936185717,0.06592445435238116,-7.341871329619047,9.968293694142858
7.781678091,-0.20555020523285736,-0.2478411849809522,-6.25339641995238,11.067724000333333
7.798483941,0.1543726976719046,-0.6272234490285713,-4.362426870999999,12.358027575142858
7.815291862,0.5459943213861903,-1.0766599660285712,-2.0420140081428566,13.392884753714286
7.832097455,0.9045192853385713,-1.3987032940761903,0.28421000090476245,13.899894798000002
7.848904738,1.187130610005238,-1.5835531239809522,2.2644713947142865,13.901002946095238
7.865711542,1.3583940550052378,-1.7074867514619045,3.8009694642380962,13.669281785619049
7.882518435,1.4557359798957141,-1.7505756019714287,4.826378890333333,13.193544436761906
7.899324814,1.5334530911195234,-1.6483547601714286,5.314819245142858,12.703181412095237
7.91613175,1.6190766960099998,-1.3898968043142856,5.246162641761905,12.772338747380953
7.932920436,1.6991529647433328,-1.0802267420285712,4.771390210904762,13.239535321333332
7.949744697,1.7862367330338091,-0.7875670505999999,4.186315014285715,13.822671129666665
7.966554002,1.8631199355195238,-0.5804352844571427,3.7022998673333336,14.31137136609524
7.983341295,1.9063593417004758,-0.5211494904714283,3.360428514904762,14.656044763285715
8.000139442,1.9282018668195238,-0.5803862156209998,3.046478680190477,14.965151564714287
8.016957811,1.959232924767143,-0.6467124222733807,2.7179270926666668,15.295732934333333
8.03375372,1.9809385921238092,-0.6832338797686188,2.4062699138095245,15.609983964142858
8.05057092,1.9545555753142858,-0.8314449502448094,2.1333747366190483,15.878217357476192
8.067366067,1.9300361644428572,-1.0506481726257615,1.8423305921904765,16.115221798285717
8.084196989,1.9150852929714286,-1.160938870254333,1.454539957666667,16.44398043342857
8.101028544,1.8826211037999996,-1.1017909503495713,0.76636605052381,16.49608477057143
8.11780481,1.785746117438095,-0.9236666417638569,-0.34199601109523764,16.134617456809526
8.134588522,1.5846781418190474,-0.6582040843067141,-1.837037336285714,15.227279010619048
8.151410736,1.343184428533333,-0.3537385207829046,-3.568631104095237,13.767889667285715
8.168217754,1.0675525863666666,-0.10855799340195221,-5.115883486761905,12.20714819585714
8.185025748,0.8200780976238093,-0.07894578144957128,-6.146031175285714,11.176740129333334
8.201829358,0.5944477546571426,-0.09659483030671415,-6.560875870047619,10.744952441238095
8.218636904,0.507668628565238,-0.08748311935433317,-6.432689916238094,10.865167970285714
8.235444928,0.5880009688176189,-0.10451200173528556,-5.504082066142856,11.792618353904762
8.252249525,0.8270604114033331,-0.3400356456781427,-3.7820379614285704,13.304664331904762
8.269057529,1.0409828438938096,-0.6900741514400475,-1.7038094199999996,14.386777982857144
8.285864282,1.1394306889699999,-0.914293922106714,0.3072503866666668,14.746736642857142
8.302671127,1.1299998916461904,-1.0744628310209998,1.8897808171428572,14.34630575095238
8.319477493,1.057986008303333,-1.1835667490924284,2.968418530666667,13.567307457619046
8.336284267,1.0097500724747617,-1.193469498854333,3.6187730976666668,12.940646866
8.35309108,1.0076543163985712,-1.0654596346095235,3.912922541857143,12.666849189714284
8.369915128,1.0357128992271427,-0.8899113819904759,3.950538045190476,12.640771557333334
8.386716,1.0744048399842856,-0.7289760822285712,3.7701271604285713,12.826743569238095
8.403525121,1.1372186300319047,-0.5332123580380951,3.3467654276666665,13.250449003380952
8.420331612,1.2042573719033332,-0.36077286799047603,2.849207560714286,13.743370264619049
8.43712155,1.2691486563271428,-0.3081477454809522,2.4061331982857146,14.184778354142859
8.453950142,1.3139651928795237,-0.3590231537666665,2.065434933190476,14.531883270380954
8.470747161,1.3253803792414285,-0.5536595156857141,1.9242512614761904,14.705892510333333
8.487541188,1.312806995150952,-0.8220642492380951,1.85900869852381,14.831786736142858
8.504351043,1.292238859908095,-1.0139169295238095,1.6907459897619053,15.037506037714287
8.52115807,1.2702995794176188,-1.018949253190476,1.2530564583809525,15.237401144666668
8.537964142,1.241763620150952,-0.9101395095714285,0.4741150768571431,15.241663000142859
8.554757936,1.2530280152985713,-0.8587494974523808,-0.5544863423809521,15.129086020047618
8.571577627,1.2461182957633332,-0.8706198873571428,-1.6651338166190475,14.692069940571427
8.588372285,1.1336510379919045,-0.9010527814999998,-3.006798221952381,13.662938090238093
8.605204959,0.8662307772919046,-0.7688302482619046,-4.622812293928571,12.099350015904761
8.621992728,0.5763322682442855,-0.570319817142857,-6.018605391071429,10.678060083238096
8.638801455,0.33132515067285695,-0.47264174614285687,-6.8129629633095234,9.898419278857142
8.655595228,0.25154563361095217,-0.5761958927523808,-6.679716042357143,10.038513007428572
8.672417574,0.40719303061095213,-0.7794968342999998,-5.374171688738095,11.339627950761903
8.689218225,0.683137973120476,-1.1158450727285714,-3.3429809071666665,13.085160443809524
8.706026667,0.8712034168633331,-1.4800612868238094,-1.3588645799285715,14.291073243904762
8.72284171,0.9524938407490473,-1.6855772732047616,0.41872322007142865,14.862468984380953
8.739641964,0.9902882945109522,-1.8591101111571426,2.0234156791190476,14.957759060571428
8.756457251,0.9639806435585714,-2.0643688552523805,3.4351162457857147,14.607477118190475
8.773278703,0.9180367589157141,-2.218918584490476,4.423962570357143,13.850816016095239
8.790072353,0.8921662313919045,-2.1936450556523805,4.976606028214286,13.300950293904762
8.806890002,0.9230988281538094,-2.0262215235571426,5.1526332353571425,13.130611995333332
8.823686856,1.0000788399633331,-1.7446043930333333,4.9243815967857145,13.340414633904762
8.840496916,1.0900805933395237,-1.3900468675095237,4.426503794452381,13.789161464285712
8.857305732,1.182280023915714,-1.0934406446999998,3.864878359119048,14.32073343414286
8.874091021,1.261574543668095,-0.909979903890476,3.3825578231666666,14.792982793857142
8.890907897,1.3337139061538092,-0.815027468190476,3.0490115479761903,15.124854138714287
8.907711446,1.405176384115714,-0.8250489674047617,2.855387142452381,15.321944474999999
8.924518982,1.4621703454571426,-0.8416457444999998,2.619357562880952,15.55895852447619
8.941311372,1.5338320136095236,-0.8204726760238094,2.276041121547619,15.875276938142855
8.958131034,1.6197249889285712,-0.8087061287857141,1.8965055373333333,16.205198705238097
8.974938895,1.728300020785714,-0.8382144072714284,1.398893764904762,16.34785317738095
8.991741791,1.897526468528571,-0.948547923795238,0.6890181131428571,16.249200573619046
9.008554711,2.001471144766666,-0.914698167895238,-0.43103903809523814,15.899858031666664
9.025356794,1.927927968023809,-0.7533416960709522,-2.3608679542857143,14.911594602142857
9.042164737,1.7181713098476188,-0.4703439374566665,-4.703039169333333,13.449298022714284
9.058971979,1.5455999941761904,-0.23503068941190458,-6.563890797809524,12.10065128195238
9.075778994,1.4406738791666664,-0.18701139094523792,-7.797073341666667,10.984996703428571
9.09259883,1.3833623896952378,-0.17901791418333315,-8.446827093809524,10.340966381904762
9.109393651,1.3587592101714283,-0.19342560565952366,-8.50608523704762,10.284119061428571
9.12621261,1.3558841744523806,-0.350507958992857,-7.903630779238096,10.893146518761904
9.142988521,1.4133343894523809,-0.6472920377690475,-6.641133558523809,11.651358026190476
9.22703553,1.1730902393095235,-0.5961214956261903,-5.7351549013809535,11.495383386714286
9.24384738,0.9211969574047617,-0.5229095191499998,-5.029234999904762,10.933097751190477
9.260652068,0.7227630473095236,-0.41651101614999986,-4.409781569571429,10.388348506523808
9.277474659,0.5554383680761903,-0.3043161374357142,-3.971070766428572,9.990968944619047
9.294271199,0.3983545955999998,-0.17430581072142848,-3.8592917350000002,9.899077923666667
9.311092326,0.2682344260619046,0.019210716197619097,-4.054785069761905,10.114405001761906
9.3278885,0.1739307783809522,0.24207967529285718,-4.288789862619048,10.359374285571429
9.344699494,0.06630227395238075,0.3926044277690477,-4.426314149285714,10.489537578904763
9.361501975,-0.04993835233333353,0.42061356995952387,-4.515204951666667,10.572386343190477
9.378315391,-0.15602627537142877,0.408714479007143,-4.679238795952381,10.731636179952382
9.395119021,-0.23911182369047637,0.45423179021666676,-4.954052629714286,10.99868714857143
9.411922976,-0.29573980115238113,0.5596461978357143,-5.238522143333333,11.276736407666666
9.428732171,-0.3271538189409526,0.6449311575404761,-5.4000583144761904,11.436119418190476
9.44553815,-0.34022880451238113,0.6121856372685714,-5.405929405904762,11.442553012952382
9.470817552,-0.3510437096790478,0.5107578295590477,-5.425118604714286,11.464893697142857
9.487534255,-0.32912342604571443,0.5198340076333334,-5.699417204333334,11.74012884504762
9.504349198,-0.28714238175047635,0.5917400491666667,-6.1320924295238095,12.164293432142857
9.521155034,-0.24356556785047637,0.5305098267857143,-6.536130200333334,12.204302062523809
9.537965367,-0.18883474946952397,0.3268207738333334,-6.856628712238096,12.083704834857143
9.554765416,-0.1107838266790478,0.2907070121190477,-7.254617394809524,11.76521821852381
9.571588385,-0.02154170891714301,0.27523319216666675,-7.91272220052381,11.223533394238094
9.588399756,0.42433214193999985,-0.40484449673809514,-7.58851839147619,11.75588518752381
9.605196835,0.9180295808447618,-1.1160422364047617,-6.093687851047618,13.129351536857143
9.622011889,1.478740658130476,-1.6762727640238095,-3.503408408047619,15.184171248190475
9.638799282,2.050408295411428,-2.1035074818333332,-0.7390321764285713,17.05955894247619
9.655605883,2.410859335220952,-2.2789084428571424,1.6247511150000002,18.00867438104762
9.672402525,2.575791518092381,-2.3239180559047616,3.4644368273809527,17.967349865333333
9.68922536,2.615720940687619,-2.261038731952381,4.499055568428572,17.337039029190475
9.706029143,2.6150758992114285,-2.1559624075714283,4.867267314476191,17.00305318909524
9.722833994,2.575204024925714,-1.9711033815238093,4.800187089238095,17.082757303857143
9.739642842,2.4513220263923805,-1.7201687807142856,4.389322576857143,17.518003599571426
9.756452391,2.3304721048066663,-1.4958224920809522,3.8288230220952384,18.10928493052381
9.773269827,2.2190769898590474,-1.2977335452714283,3.32825490447619,18.641740084809527
9.790075725,2.085547641838095,-1.199651394542857,2.8905823344761905,19.09646216052381
9.806883597,1.9427737638190472,-1.273061383333333,2.579849538285714,19.423700353857143
9.823685751,1.8111675936857141,-1.457203371142857,2.427838711666667,19.62991562528571
9.840509942,1.702128874580952,-1.7602888629285711,2.5084118842857146,19.636931661
9.857287763,1.6286084497380948,-2.072342395738095,2.688078539476191,19.55656704995238
9.874129805,1.579611070233333,-2.1553588935,2.598337990666667,19.663962141142857
9.890916396,1.532737273685714,-1.9925344557857139,2.103626182857143,19.680987604809523
9.907706658,1.441170767790476,-1.8350037165952375,1.3857522462857144,19.680315284238095
9.924527866,1.236589595085714,-1.6398211433571424,0.6387349308571428,19.612052920285716
9.941326706,0.9473125524142854,-1.1543157101666661,-0.41921111528571436,19.05473954052381
9.95814356,0.6509102796999997,-0.5526489870714283,-2.205107257809524,17.824749070238095
9.974919611,0.2536165531285712,-0.07860743430952354,-4.835622765190476,15.763305763428573
9.991739294,-0.17989125277619072,0.20090310350000026,-7.303481942571428,13.579088078761904
10.0085528,-0.4271027885380954,0.17602735477333362,-8.90886422604762,11.973400514714285
10.02535649,-0.5573172356190478,0.03515255454000026,-9.481879438952381,11.378042501142858
10.04216029,-0.6793709822952384,-0.03684068288857115,-8.945662112857143,11.812629011571428
10.05896432,-0.6053959102761907,-0.2686496234599997,-7.522586028428572,12.523107910238096
10.07579353,-0.275691909466667,-0.6672382240790473,-5.287167027476191,13.501363757857142
10.09259546,0.25659232762857115,-1.1048132350790474,-2.3274723922380947,14.54829161452381
10.10940926,0.678041171438095,-1.4701346782695235,0.4937615391904764,15.057402719761905
10.12620644,0.9034505656761902,-1.6707405873219043,2.5183100244285717,14.860387528809524
10.14300337,1.0409213389523806,-1.7105688196552378,3.8957366715714286,14.258991384619048
10.15980969,1.1573557257619045,-1.552052633988571,4.844407149619048,13.61323858809524
10.17661501,1.2703132771476189,-1.221740347893333,5.324908256190477,13.093427307666667
10.19342286,1.3368249308623807,-0.8298847674171426,5.262272198809525,13.075479893380955
10.21022962,1.342755527735714,-0.43708785365523783,4.7564901621904765,13.484636914428572
10.22703624,1.3149755682404758,-0.09108438936952357,4.0809574125238095,14.10071157438095
10.2438577,1.3113449812071427,0.15501721144000025,3.545564265476191,14.604692968857146
10.26066432,1.3143359791785711,0.2612342551923812,3.244018077952381,14.890606766238095
10.2774699,1.3263479925452377,0.21415053676380977,3.035700094333334,15.104348474
10.29427697,1.3237211988214284,0.08671872400190499,2.8011044547619055,15.363133168523811
10.31108183,1.2875906569642854,-0.13887084656952356,2.6060168630000002,15.57280496690476
10.32789105,1.2461582138214284,-0.43079900161714263,2.4598621868571433,15.700608625142856
10.34470164,1.1949773402119046,-0.6716987290933331,2.2178380830952387,15.929589026333334
10.36150281,1.163319292497619,-0.8730698368666664,1.791734264095238,16.276407986761903
10.3783111,1.2043668485547616,-1.0992452529666663,1.073432127714286,16.388017963809524
10.39513239,1.3854910362214283,-1.415859449395238,-0.03908713638095214,16.141874924142858
10.41192204,1.4794201538690475,-1.4288857493476188,-1.5102063356190474,15.46747276947619
10.42871402,1.390242193440476,-1.240665526585714,-3.327144100238095,14.109643718095239
10.4455377,1.2291930545357141,-1.1234637328238093,-5.269951978761905,12.323598395095237
10.46231332,1.176479796630952,-1.137829394538095,-6.717319510809524,10.977040465190477
10.47913649,1.2042659379642855,-1.3219291652476188,-7.251566227904763,10.479632824809524
10.4959421,1.2231240528404759,-1.5630408411523806,-6.728192169809525,11.00139765709524
10.5127469,1.314936317173809,-1.9364732560571425,-5.178964636904762,12.572609272666666
10.52956061,1.472509727597619,-2.4167429946761905,-2.9858512415714284,14.50032423404762
10.54636339,1.5693280952161903,-2.8274790559619043,-0.5550956263333336,15.897172265952381
10.56318495,1.5461474231142855,-3.040171816247619,1.5993284050952379,16.416036236428575
10.57998902,1.4424391559238092,-3.191514580028571,3.151105154619047,16.027775708333333
10.59678247,1.3092966902666665,-3.310562868938095,4.070396332819048,15.24683994752381
10.61359909,1.2546870537999997,-3.1928303667857145,4.447546891009523,14.887815336142856
10.63041419,1.2352863152652378,-2.7727643053095234,4.480392161009523,14.893197158523808
10.6471998,1.2184796162842855,-2.198064290357143,4.244534515771428,15.178648107095238
10.66399421,1.1836742020599997,-1.6610776668333331,3.8977274900571426,15.571631396619047
10.68082015,1.091257538102857,-1.2366274737380951,3.4883758688190474,15.997191706619045
10.69762375,0.9834794089980948,-0.9917102513095235,3.141242822819047,16.31972947152381
10.71441779,0.8935420513314283,-0.872903071738095,2.87148450767619,16.545635194190474
10.73123696,0.8264501293695236,-0.8547626648809521,2.7039807874380952,16.694055977857143
10.74804314,0.7466854964123807,-0.9452783238333331,2.6287550481999995,16.793356444666667
10.76485068,0.6874224203171425,-1.0663294309285711,2.461594650771428,16.975394913619045
10.7816747,0.6733910782219046,-1.203518563738095,2.2237213009142858,17.22435594785714
10.79847733,0.6215245014123807,-1.2523907280714284,1.8241070121999998,17.39425286904762
10.81528174,0.5481594375076189,-1.2540225102619045,1.2867379652952378,17.429798277333333
10.83209138,0.5543531207933331,-1.2272342869285713,0.5150802940095235,17.411046108857143
10.84889732,0.6647298024028568,-1.1254201872238094,-0.9898567417047623,17.092492249333333
10.86570455,0.6904871265457141,-0.7788636599380949,-3.3556588255142863,16.025668042190475
10.88249033,0.6506882196885713,-0.4366093221285712,-5.753392559466667,14.304995498428571
10.89930433,0.6764144018314283,-0.2267190927476188,-7.5042084507047635,12.59577235395238
10.91609739,0.8123952974266664,-0.15799792890476166,-8.348538738800002,11.76073332538095
10.93293254,0.8825592597933332,-0.10964880102380928,-8.266842409752382,11.836092111571428
10.94972051,0.9162764152695234,-0.15982996282857118,-7.370210714619047,12.671661125238094
10.96653067,1.0194110814219044,-0.46111872649523783,-5.551650137095239,13.817311010904762
11.0421599,1.0580367929090475,-0.7835937965428569,-4.602836199190476,13.534903559761904
11.05898318,1.0360966297042855,-1.247867998638095,-3.9511542766666667,12.821202856809524
11.07578514,1.047616266133333,-1.6823059831619047,-3.5382302821904763,12.339764844904762
11.09257698,1.1384806718999998,-1.990648712442857,-3.426550024571429,12.18687199204762
11.10938317,1.2903811222809523,-2.035738536285714,-3.602512881714286,12.36013402633333
11.12617985,1.451850173090476,-1.8488782587619046,-3.937614826952381,12.697660858238097
11.14300041,1.5876492432666662,-1.6500757762523808,-4.219976356952382,12.956918298714285
11.15980905,1.6834266413190473,-1.579772699490476,-4.458844661714286,13.16432418395238
11.1766167,1.7078356856523809,-1.6429296902999997,-4.5444800740952385,13.269341331095237
11.1934066,1.6898482867952378,-1.6476604598714284,-4.628840878190477,13.342297527285714
11.21024261,1.6526513440809523,-1.560193856633333,-4.830662069047619,13.488331702428571
11.22703253,1.6139445986523806,-1.4363724334666665,-5.091377099619048,13.694863989285713
11.24385392,1.5677053701761903,-1.3922197989904759,-5.164459841857143,13.742596774238095
11.26065906,1.50589249817619,-1.4349718094571426,-4.879557382857143,13.460299368095237
11.27746925,1.4617997465095236,-1.5342274053619047,-4.404827549619048,12.999275649571427
11.29424878,1.4028461206999996,-1.510392495647619,-4.190306005285715,12.776835175999999
11.31107679,1.3306247223666665,-1.364325302080952,-4.5297978267619055,12.751670578190478
11.32790686,1.2480478968571425,-1.2951036465523809,-5.282232125666667,12.50677980647619
11.34467817,1.289834427042857,-1.3289547364836665,-6.0395003957142865,11.935725649761904
11.36150013,1.3433434126523807,-1.2427236921074758,-6.713977155666667,11.256040225523808
11.37830335,1.2565655524619044,-1.0269726969741426,-7.738826048190477,10.217769489999998
11.39511925,1.1417253344666665,-0.8499217431646189,-7.558670702761906,10.410037659238094
11.41191178,1.035337123238095,-0.6377838169741427,-6.368249484809525,11.214847529809523
11.4287316,1.0674838637476187,-0.704004435402714,-4.356777963571429,12.282960910761904
11.44553044,1.2371388575095235,-0.6694998742041426,-2.005215826904762,13.161861911238097
11.46232769,1.4106947993190473,-0.4778246766946187,0.15421817404761892,13.528769858857142
11.47913426,1.4866461257952377,-0.47746186036128535,1.9331650049999998,13.36410163742857
11.49593984,1.4928128677952377,-0.5969441392041426,3.3800712307142855,13.139682005047618
11.51274737,1.4876467005095235,-0.4992048854422378,4.52329721852381,12.784370667761905
11.52955232,1.451592617233333,-0.2609850679517616,5.0896650944761905,12.176213932857143
11.54636229,1.3595054165047618,-0.00798925050414253,5.155566714952381,12.054138142857143
11.56318392,1.2350279817623806,0.19932628525776225,5.036484627333333,12.159585805714286
11.57998741,1.1393567764719046,0.3342576736149051,4.917527834476191,12.275211710952382
11.59679454,1.0323500960528567,0.4850931536625242,4.586554390809524,12.596747554857142
11.61360148,0.9528269499147617,0.5339163229482384,4.142574605142857,13.022538154333333
11.6304073,0.8609367851195235,0.46607255651966706,3.7003176547619048,13.45910691
11.64721221,0.7970361582814282,0.27639643632919086,3.284817922,13.904693477333334
11.66400512,0.7526318332290474,0.018306025429190836,2.8787287975714286,14.337108436285714
11.68082808,0.7468617133433331,-0.1196681857041425,2.4699843717142853,14.74807181561905
11.69763414,0.7735858943480949,-0.1638111528823806,1.9195530293809524,15.29975441757143
11.71442498,0.8388388455480948,-0.26447484321095205,1.1296206421904762,15.579705663714286
11.73124806,0.9162453739766664,-0.4594918687728568,0.2558875303809523,15.572288263285714
11.74804216,1.0620541502147616,-0.7625467691538093,-0.713339851809524,15.487627887190476
11.76486098,1.2519523913099997,-1.0355045823442854,-2.255673363714286,15.039368196238096
11.7816359,1.2965453792623807,-1.0225066826299996,-4.408950897047619,14.12650916004762
11.79847423,1.1434009742623807,-1.136135898880952,-6.555873235619047,13.056395140523808
11.81525865,0.9688118739290474,-1.6226578922619044,-8.059785639190475,12.140706117333334
11.832086,0.9080008425004759,-1.9627791614999996,-8.8400412746,11.579120650952381
11.84887643,0.9415868223099997,-1.9509907932619042,-9.127593199695237,11.314768961380953
11.86570118,1.0108498207385712,-1.9430537138809518,-8.787417480361905,11.657713571523809
11.88251286,1.2239268890623807,-2.2622482237523807,-7.4243954025047625,12.92785821785714
11.89931915,1.6007829209338091,-2.690644911390476,-5.000843252980952,14.476714292142855
11.91611672,2.013785108247619,-2.9618863491999994,-2.3450556486952383,15.831930425476193
11.93292282,2.2173794352047618,-3.050677167538095,-0.3565304396476191,16.43532587833333
11.94972371,2.296227252195238,-3.06915138877619,1.4384784470190475,16.664391706904762
11.96652287,2.3571143136190473,-3.041945159819047,3.198026907019048,16.925352513095238
11.98333825,2.435036217885714,-3.0193237779619047,4.619690237019047,17.083436145476192
12.00014101,2.3841337859619047,-2.8594712107714284,5.386597702066666,16.722606876571426
12.01694842,2.3105096519190473,-2.5379204328190474,5.528320018114285,16.559665565285716
12.03375288,2.226111397885714,-2.2359460000095233,5.396040894304761,16.71332524957143
12.05057886,2.1386103573571424,-2.090098775952381,5.173719111447619,16.93944645957143
12.06738163,2.041673086980952,-2.000284890728571,4.844553789066667,17.257660957190474
12.08418928,1.9173536130761901,-1.8416765790523806,4.417029585780952,17.64855458361905
12.10098895,1.8001721416380951,-1.6800980941095234,4.037830603209524,17.987213122095238
12.11780579,1.7343830722076188,-1.574705481928571,3.761970316066667,18.240467169238094
12.13460592,1.6746680282647617,-1.5077547974047616,3.6025735541619044,18.38399146590476
12.15141976,1.667467196788571,-1.497690365785714,3.5520365355904757,18.430584510190474
12.1682201,1.6582831314552378,-1.4002299141666665,3.3941866560666663,18.510869247285715
12.18502903,1.5918256555028567,-1.363426169071428,2.998546010333333,18.675867471666667
12.20183525,1.4958273739790475,-1.477822900119047,2.302040509142857,18.748946527238097
12.21864192,1.3918467447695237,-1.514869082880952,1.1384055279047613,18.43198620904762
12.23545712,1.1483053394599998,-1.2131500644999997,-0.63749154352381,17.55912405
12.25223016,0.7908158671171426,-0.8341637455809521,-2.987745193571429,15.938765575571429
12.26904048,0.4526274743076189,-0.7005135249999996,-5.252156733952381,14.194474242952383
12.28585616,0.34178318011714265,-0.7870400338523805,-6.574567862471429,13.018655771190476
12.30265788,0.40474609249809507,-0.955492620328571,-7.329480556852381,12.307035336047617
12.31947037,0.4655230300695236,-1.0202071780476185,-7.799479007328572,11.852099605095239
12.33626623,0.42573300854761886,-0.8867982399142853,-7.993583746852382,11.648221482238094
12.3530848,0.49299600436190455,-0.8947060391999997,-7.126570905709524,12.499713724476191
12.36987403,0.721408626838095,-1.0566150971523807,-5.0130415641380965,13.704183714333334
12.38670931,1.1206857065047617,-1.2503170342523806,-2.460250695090476,14.663011098619048
12.40350505,1.5009363392857142,-1.2478937705380948,0.007627555861904376,15.431479358142857
12.42032328,1.7325651546142857,-1.1474695829999997,1.9736549520523807,15.70106415195238
12.4371312,1.8399086353285714,-1.09281937847619,3.3211322744333334,15.367317354333332
12.45391814,1.8641524797333333,-1.013223506133333,4.105450789657143,14.624147458571429
12.4707332,1.8326086941161903,-0.8654288365523806,4.603574821514285,14.143388109190477
12.48753698,1.7686047326876189,-0.6959528043142854,4.920603639133334,13.839579484666666
12.50434474,1.6668759243923807,-0.5141107269809521,4.9398817115142855,13.814923103238094
12.52115094,1.543151185630476,-0.28561204107619015,4.663046133657143,14.062783779333332
12.53795733,1.43857887244,-0.009407948933333018,4.257202535276191,14.42191632990476
12.55476534,1.321201568535238,0.21075339254761938,3.8372708058476186,14.792035262952382
12.57157073,1.2058361342685713,0.2628660514047622,3.5138966932761897,15.10457477590476
12.58837764,1.1525434794590474,0.23171836707142887,3.3494062204190476,15.27270325304762
12.60518312,1.1064055022447616,0.17989968405714318,3.2060832757047613,15.41869059652381
12.62199138,1.0486663622399999,0.13003699557142887,3.0388596859428567,15.58251667695238
12.6387976,0.9461109439161904,0.06314242457142888,2.7346785643190477,15.81111194795238
12.65562145,0.816519255420476,-0.012696822428571106,2.1787108473666663,15.854176212
12.67242289,0.6924408049585713,-0.1082730406190473,1.2927185245095238,15.681704088476192
12.68923265,0.6772987090185714,-0.18157696151428537,0.2365055995571427,15.543502112666667
12.70603799,0.6596747111471428,-0.13694968107142821,-1.2394443234428574,14.851628045476188
12.72284519,0.5015770835299999,-0.14654087449999967,-3.197583039109524,13.482123126619047
12.73965012,0.17662527728714272,-0.20627246581904732,-5.176982584061905,11.926516865571429
12.75645872,-0.12249756998904779,-0.2949616454523806,-7.011420998919048,10.521440138333332
12.77326488,-0.3120104468700002,-0.33655872797619013,-8.280641169633334,9.562944876476191
12.79006083,-0.3540243751557145,-0.44039507136666634,-8.65749570277619,9.19570456604762
12.80687683,-0.2920973985985716,-0.573161653080952,-8.224280743142858,9.543857763476192
12.82368567,-0.1917028232176192,-0.6450730902476187,-7.380181380238095,9.734415420476191
12.84049205,-0.007065253989047808,-0.7080996433428568,-6.242573578809524,9.962215109761905
12.85728211,0.24848527244904745,-0.7607379470047617,-4.713445322619047,10.370468658809525
12.8741057,0.6044508356871428,-0.8932273784809522,-2.801903837857143,10.922619851190476
12.89087575,1.0515414784966666,-1.0042322362476188,-0.725819337857143,11.48705343404762
12.90770504,1.4842985666395236,-0.9067804074904758,1.299295902142857,11.968583353571429
12.92451094,1.7829519137823806,-0.7366690351571425,3.0972356569047617,12.296421220238095
12.94131599,1.9654625509014285,-0.6033666814904759,4.468563193095237,12.375567531666666
12.95812817,2.033419483839524,-0.5177087783809521,5.367991833238095,12.180247295761905
12.9749315,2.0532603302966668,-0.40869476682857114,5.72472352052381,11.826660026761905
12.99172525,2.0713783527538094,-0.21556963806666635,5.6900905879523815,11.84020163842857
13.00854463,2.0942844383209525,0.03058816136190507,5.483360176904762,12.002546789047619
13.0253531,2.115197500668571,0.25692472002857175,5.211678936428571,12.239409097333334
13.04217115,2.1416142054352383,0.35594287373333366,4.891475473285714,12.557065155523809
13.05896622,2.1543482240566667,0.3737134195571431,4.529200531523809,12.918171531761905
13.07577206,2.1398206818071426,0.3292249327476193,4.178613617666667,13.270908869190478
13.09257916,2.1035692035547617,0.18819536478571458,3.7217438564285708,13.748451207857142
13.10937229,2.0538928760738093,-0.043818871199999714,3.272701263666667,14.227486722238094
13.12619084,2.078567279954762,-0.26833550134285683,2.771065031047619,14.742719096476192
13.14299884,2.122773330859524,-0.3115725403904759,2.0906991960952377,15.16360700452381
13.15981882,2.1495032324785712,-0.4070868889619045,1.2969082879999998,15.173835853190477
13.17663023,2.115763472659524,-0.6631216832714283,0.45064199538095223,15.037596453333336
13.19343353,1.964755093785714,-0.8827499492238092,-0.6692342303333335,14.806675889809522
13.21023921,1.7590353333,-1.0018924702285712,-2.09185763752381,14.29438676409524
13.2270465,1.4997797367285712,-0.9736873593095235,-3.6537549608571434,13.392238002619049
13.24384874,1.2006100090142855,-0.9514751264476187,-5.042692275047619,12.17330744295238
13.2606279,0.9870176500142855,-1.106468280185714,-6.05006340547619,11.156439998809525
13.27745793,0.8564863049190473,-1.2758606899476188,-6.912109919714287,10.295209641809524
13.29426285,0.7741851537285713,-1.3218832470371424,-7.473088037000001,9.72946945952381
13.31106265,0.7026137979666666,-1.1693585032895233,-7.440738359666667,9.78853539904762
13.32787296,0.5897837011809521,-0.9750742458419043,-6.602744283952381,10.47349992404762
13.34467924,0.5200450917285713,-0.9431100516514282,-5.00414498647619,11.329666268380953
13.36148624,0.7167036561809522,-0.9989553633466663,-3.050820714095238,12.283651508380952
13.37829207,1.0520670215333332,-1.0221014023180948,-0.8692828136190476,13.265048793619046
13.39511276,1.3131412324714284,-1.119638545213333,1.1452573592380955,13.755406480761906
13.41188435,1.4865394234785714,-1.19149240995619,2.7135037463809524,13.836232152666666
13.42872282,1.5973804621547618,-1.197775681813333,3.5984841751428576,13.46570366995238
13.44551868,1.6374256071690472,-1.0031065372990473,3.880943207190476,13.15776729604762
13.46232567,1.6588585178166664,-0.6749737376323806,4.037319591952381,12.979414480333332
13.47913335,1.62981770721,-0.4654631842038091,4.178900536714286,12.816939447000001
13.49593722,1.5570622100719045,-0.4192269529657139,4.1245932805238095,12.862170185095238
13.5127488,1.462171859695714,-0.312924561060952,3.8192172275714293,13.130436577142856
13.52955031,1.4054615880861905,-0.1454694157752377,3.384676660666667,13.496577293666665
13.54637929,1.3882163266457141,-0.09309224853714249,3.166468574952381,13.694363607666668
13.56315849,1.3815634435233333,-0.2132219473466663,3.1070409050000003,13.786134405285715
13.57997623,1.351917036947143,-0.41664014545619005,3.020568257476191,13.927187142476193
13.59677973,1.3077295762804761,-0.5913914612657138,2.7918412346666672,14.170692579333334
13.61358674,1.2257710779947617,-0.6903432721466662,2.2840751240952386,14.230811698142857
13.63039312,1.1826588795185713,-0.7337382180514281,1.734824884666667,14.389829157666664
13.64720019,1.1616697822042856,-0.8331552573904757,1.1083593597142858,14.697178376619046
13.66400714,1.2006962072042857,-1.0781325840095235,0.2110017370000003,14.801258699190477
13.68081039,1.3325136389185712,-1.3961057833904758,-0.8666012850476188,14.362921174761905
13.69763261,1.4150862523614285,-1.5944195077714283,-2.3127522008571426,13.377670679666668
13.71444016,1.2127556290185713,-1.647936088719047,-3.9706605723333332,12.127961506809523
13.73124614,0.896574440485238,-1.6477013145380948,-5.65861938047619,10.659035697714286
13.74805363,0.6347698058471428,-1.5742982853190473,-6.882627123428571,9.416227307761906
13.83208676,0.7437056728947619,-1.8067243610333332,-6.244619187238095,10.092294007761906
13.84889125,0.8743905141328571,-1.9335090262714283,-5.1370127536190475,11.195815816666666
13.86567029,1.0758941117090477,-2.0182499828809517,-3.642497698047619,11.914495363428571
13.88250262,1.234877390532857,-2.0783048924999994,-2.4072076704285714,12.110289924857144
13.89931287,1.3203460659490476,-1.976636387071428,-1.6549277982380952,11.870707912428571
13.91611832,1.3268628759204761,-1.7479759284523806,-1.1881243839523807,11.482412121714285
13.93291332,1.2941793501538095,-1.5554963804523805,-0.8699530870476189,11.187385657190477
13.94971781,1.233359451820476,-1.4227974812142852,-0.6758598370476189,11.002144072428573
13.96652934,1.157647307420476,-1.232966689833333,-0.7502860794285713,11.076178702904762
13.98333125,1.0644795142190475,-0.9428931814999996,-1.011425313238095,11.304502253380953
14.00013896,0.9712492369380952,-0.677336857380952,-1.3086910019047617,11.546390834809525
14.01694101,0.8668685498904759,-0.5229273239142853,-1.6485163139523809,11.836213004285716
14.03375682,0.7743824521857141,-0.49157600739047574,-1.890258289142857,12.051329409619049
14.05055826,0.7052429488666665,-0.5266456773904759,-1.8867390038095238,12.054612020952382
14.0673659,0.6695852875666665,-0.5746041649142853,-1.6623085108571427,11.85833080909524
14.08416916,0.6534469950714283,-0.6266809587714282,-1.3943886753333334,11.618448739761906
14.10098058,0.5986069241938095,-0.6115083977238092,-1.397571041095238,11.613525206333334
14.11779856,0.5578946754838094,-0.5974328006285711,-1.6430231499047616,11.83987437847619
14.1431027,0.5485746647409522,-0.7305024066999997,-1.7787537798095239,12.012714068238095
14.15981319,0.5201857799352381,-0.9328900461476186,-1.8917458394285713,12.168342014095238
14.17664602,0.5226684169876189,-1.03192964617619,-2.1005053743333333,12.355085318190477
14.1934308,0.2732639128066665,-0.7235144717047616,-3.801047120571429,11.094746068666668
14.21023,0.13609067456857127,-0.4616297937476187,-5.356574103714286,9.936413693285715
14.22704425,0.057596352806666515,-0.4770170052714282,-6.470346450433334,8.98620735452381
14.24383057,0.03647757566380937,-0.7392038220333329,-6.861903553576191,8.664190200047619
14.26065375,0.02718700533047604,-0.9825528405571424,-6.481871513861904,9.004975982476191
14.27743474,0.11573353121142842,-1.1025027376999996,-5.739515667671428,9.394453412238095
14.29425706,0.29516047378285704,-1.1203494696047618,-4.620932692195238,9.757504299142857
14.31106672,0.5750724119733331,-1.0816326936047616,-3.1035412150523816,10.165334219142856
14.32787377,1.012414090687619,-1.1995472794571425,-1.196351618861905,10.650775579619047
14.34467416,1.4217780984971427,-1.4310152076476188,0.7080668720904759,11.034729477714286
14.36148053,1.6729385838780952,-1.6447421709571426,2.15428849637619,11.058491708666665
14.37829271,1.7849713152590472,-1.7961985497095234,3.1064267157095236,10.738380365
14.39511179,1.7644833539638094,-1.7599575405666663,3.671184108271428,10.290168770857143
14.41192058,1.6597431657114283,-1.6004677357952377,3.8406889097,10.131350288
14.4287075,1.5129233499447619,-1.3888041263666662,3.6502099944619046,10.31083682447619
14.44551753,1.3438681264876189,-1.176780431033333,3.332773208461905,10.618422244285714
14.46232235,1.2045730536985713,-1.050210013280952,3.0710059119857145,10.888971730238096
14.47912717,1.081480683332381,-0.941023488833333,2.980697813271428,10.983831275095238
14.49593753,0.976381188370476,-0.7865105412999996,2.867755435557143,11.066220141619047
14.51274448,0.8998592567095236,-0.6563139330571425,2.7526229220809526,11.139029218952382
14.52955083,0.8237528687714283,-0.6083984005619044,2.6774128503190475,11.20526952457143
14.54635796,0.7399387076190473,-0.6442528593714282,2.6774076051285713,11.211534712857143
14.56316427,0.5840348176190475,-0.7000468372904758,2.6040591283666665,11.272760084904762
14.57997125,0.38307481157142836,-0.6365759287380948,2.2797277085619045,11.454330012904762
14.59677292,0.16543946385714267,-0.4356537177047615,1.5601104553238094,11.450653822666666
14.61358459,0.022711333857142694,-0.3223833044095234,0.5182100022761903,11.262766061238095
14.63040855,-0.10836362833333349,-0.35442980696190435,-0.4993973687238097,11.071176110000001
14.64721179,-0.2701021432523811,-0.47192170789523774,-1.6119600252952382,10.678184243761905
14.66400197,-0.4978489024190478,-0.621043071833333,-2.889260905104762,10.021978828190477
14.6808252,-0.863584481504762,-0.5907367836571424,-4.384985855628572,9.116318252714287
14.69760205,-1.1797734172504764,-0.42642871821904715,-5.80651812324762,8.24089450595238
14.71443857,-1.3323379428504762,-0.30462353855238056,-6.710077944342856,7.681479857285713
14.7312432,-1.3555462204361906,-0.25828836364761865,-7.034088884176191,7.480568982714286
14.74804844,-1.2350097625314287,-0.3693508903619044,-6.8578510966428565,7.675141258999999
14.76484929,-0.9812037164361908,-0.48063732899047584,-6.244879745404763,7.906033109428573
14.78166372,-0.6441653810552384,-0.6272095725619043,-5.021465733261905,8.262646911952382
14.79845699,-0.24056982000761928,-1.0808456908952377,-2.996250720404762,9.205258851952381
14.81527839,0.16536019956380935,-1.7169946715523805,-0.6023911299285714,10.505372874333332
14.83206881,0.5103831958019046,-2.159216040619047,1.516193730071429,11.574312197666668
14.84888653,0.7421610795161903,-2.378687605914285,2.9765011239285717,12.14301698995238
14.86570297,0.925017338420952,-2.395158716538095,3.820483684214286,12.287422320142857
14.88250108,1.1085545264685712,-2.2441042604142853,4.3725552101666665,12.337429826
14.89929647,1.2686530337542854,-2.022349351838095,4.798291274166667,12.35382913342857
14.9161045,1.3907681518971426,-1.8557887814476186,5.0292498948809525,12.214570225190476
14.93291182,1.4542701003223808,-1.7009584562380948,4.960226081357143,12.295229533238095
14.94972574,1.460774011560476,-1.507312814319047,4.6085737996428575,12.665474177
14.96652542,1.4105634504652378,-1.3286732377571426,4.1805808879285715,13.116466731285714
14.98333205,1.3202066464176188,-1.233616235633333,3.8376278417857144,13.477622197761905
15.00013878,1.205326044860476,-1.215856106433333,3.5768160588333338,13.755700376380952
15.01694542,1.0613012640271426,-1.2314745612714282,3.367936270071429,13.990853138142857
15.03375221,0.9155576016366664,-1.274159950785714,3.2007350005952384,14.187178633142857
15.0505588,0.7609709898585713,-1.3188407363476187,3.0093717115476193,14.401838952285713
15.06736551,0.6031179768871426,-1.2677740070523806,2.7203685664523816,14.69745886047619
15.08417223,0.44988490290142835,-1.1183200974095235,2.306237583571429,15.017294773809525
15.10097886,0.2728288855204759,-0.9340439366614284,1.6806407650952384,15.157078006142857
15.11778908,0.044267824758571196,-0.8617841018471426,0.8840438292857145,15.086266074142857
15.13460329,-0.21910905833666694,-0.743215397623333,-0.26541809838095226,14.636325008666667
15.15142555,-0.5108136448938099,-0.28248837581380926,-2.085827918666667,13.474949597190475
15.16821781,-0.8109837145461908,0.36686846618619073,-4.213454927857143,11.897625839
15.18501025,-1.0196149618080954,0.7039909746623814,-5.909483932380953,10.42064428647619
15.20183359,-1.085635507331905,0.706972092424286,-6.714647679285713,9.696919763809523
15.21862305,-1.0236625259509526,0.5020327327100004,-6.8088745618571425,9.693474904761905
15.23544416,-0.8678604236652385,0.15084290366238134,-6.603930904857143,9.972741099619046
15.25222999,-0.6377519581890477,-0.314306135670952,-5.878195058857143,10.704265536761904
15.26906288,-0.16399871576047634,-0.9620224419566663,-4.053395703,12.476162321666667
15.28583289,0.5323247071952378,-1.540539549670952,-1.6227951281904758,14.228413187714285
15.30266582,1.2437922458619046,-1.787831131623333,0.6286966003809527,15.086433261047617
15.31946331,1.7822679977666667,-1.8081302597661901,2.3432279994285716,15.167877600571428
15.33627272,2.0872201083380952,-1.8212932813852376,3.526095095,14.853349682047618
15.35307975,2.247258000537619,-1.7679189426519044,4.080936091095238,14.30336703847619
15.36988329,2.344061001537619,-1.6606814446852376,4.030373277761905,14.332740799428572
15.38669635,2.3943612022995233,-1.5983630401757138,3.5997846468095247,14.74057732990476
15.40351266,2.428844794013809,-1.563017664639047,2.987913063476191,15.334968431333333
15.42030763,2.4661747742995237,-1.506873326358095,2.3207820934761907,15.98905905895238
15.43711337,2.5214470185376188,-1.504196666253333,1.7234233444761904,16.57260017147619
15.45392001,2.5633322015376185,-1.5719176300966664,1.255594230476191,17.031999897952378
15.47072655,2.5936021876328574,-1.7149445156252379,0.9433102148095243,17.353140080904762
15.48753335,2.6038263823471426,-1.9634800748966665,0.8173163953333338,17.516469079238092
15.50434002,2.587065357570952,-2.24638289470619,0.7933730392380957,17.582001107666663
15.52114696,2.558190330175714,-2.423954781753809,0.765575680857143,17.626904195047615
15.53795331,2.498625715580476,-2.367691953715714,0.49783677090476225,17.870370446142857
15.55475877,2.3758806785328566,-2.126883983340476,-0.17168910219047587,18.032019546904763
15.5715668,2.1443467027233334,-1.9387497729119043,-1.0322736790952378,18.001398844047618
15.58837357,1.8171117136090476,-1.8109151009119047,-1.9078341218095232,17.79930380109524
15.60518046,1.470745587680476,-1.5210014465790473,-3.0900684771904756,17.073630523285715
15.62200351,0.9784807632614283,-1.0201313552123805,-4.975398949714285,15.27051543595238
15.63880733,0.39295649964238066,-0.7145421788790474,-6.7937553726190485,13.360356662857143
15.65561468,-0.025579550405238335,-0.8549247469266662,-7.864061651238095,12.253396404285715
15.67242444,-0.1054859913100003,-1.1298067229266664,-7.946292173619048,12.136930113333332
15.6892257,0.25420034907095207,-1.476663271593333,-6.834269228714285,13.312932060904762
15.7060214,0.9756960113952377,-2.0064672118314286,-4.689428352428571,15.457709111619046
15.7228416,1.7502525859190472,-2.5437603676409517,-2.152719747666666,16.997278441619045
15.73963144,2.3033256402047617,-2.7010927880076188,0.13284912519047695,17.516385894000003
15.7564553,2.646172567395238,-2.722924323163333,1.996241637095239,17.199832987809526
15.77328112,2.805723177442857,-2.754986589715714,3.5219653216666673,16.43713637457143
15.79006794,2.8305159905761905,-2.6551510349395238,4.669103962619049,15.545359410714283
15.80686855,2.7722100571952373,-2.3765646302728567,5.31308603252381,14.999784769761906
15.82368184,2.642341754195238,-2.0105264213680947,5.435816651095239,14.924670521666666
15.84047128,2.473364561766666,-1.6077540175109521,5.1065620468095245,15.261232461190476
15.85729013,2.292526107433333,-1.221103818510952,4.556818485095239,15.80599139042857
15.87410356,2.1109148931,-0.9849793597490472,4.065206890761906,16.31601362457143
15.89090678,1.9305606441952379,-0.9408921257490473,3.754772186190477,16.658063404095238
15.90771664,1.795241604242857,-1.0183934056957138,3.649873142857144,16.795048654571428
15.92450218,1.7130320795761902,-1.0384921429814282,3.6660821094285723,16.800488074095238
15.94131741,1.6567396649285713,-0.9994976263147616,3.6714293159047626,16.797341155142856
15.95812131,1.579632404285714,-1.0593845984095236,3.578631082857144,16.903404145095237
15.97492793,1.465279142038095,-1.0805060322142854,3.332224845571429,17.150099043857143
15.99173478,1.2817690372285713,-0.9915407070714283,2.8176724339523815,17.20517091352381
16.00854495,0.9810526767999997,-0.8795881411190474,2.1087854472857153,16.98021139247619
16.02534254,0.5717596382761903,-0.8669767292619044,1.0294258930952391,16.455117329238096
16.04215728,9.012237142834247e-05,-0.6603386655666663,-0.8749134204761896,15.186680401476188
16.05894804,-0.7643201746142859,-0.21362193548571395,-3.3118276374285704,13.311990493285716
16.07576873,-1.4974817604285715,0.17640774451428606,-5.54063803847619,11.472231758761906
16.092575,-1.9373848522561905,0.1946674968952384,-7.131375880857141,10.286676632285715
16.10938169,-2.1072920588276194,0.12484515144761939,-8.108610880047618,9.736050624
16.12620369,-2.0622251231609527,0.09676009563809557,-8.648194449523809,9.542964277857143
16.14300939,-1.8369539776752386,-0.07570889588571394,-8.660421962047618,9.598655549523809
16.15981211,-1.3830388358180956,-0.4817266080761901,-7.919084549095238,9.889753231428571
16.1766262,-0.7616171581038097,-0.9189745882666662,-6.322275343380951,10.40420421904762
16.19342685,-0.23414002996095262,-1.3125033903142855,-4.283890406714285,10.81241682095238
16.21023642,0.27138975970571405,-1.7622181872190474,-2.349605923857142,10.902539325714285
16.22702699,0.7958232816580949,-1.9201799588142852,-0.5204890114761896,11.034093256190477
16.24384967,1.3689458738485711,-1.8103300744238093,1.3141840070952389,11.47137260952381
16.26063351,1.8735468528961903,-1.6057823739952377,3.125433059,12.137126971428572
16.27745988,2.1624779161342853,-1.4449873438523806,4.626500266190477,12.726272751428573
16.2942319,2.2345469706771426,-1.3421911639571424,5.5823786148095245,12.896762677142858
16.31104928,2.179966969105714,-1.2060464407666662,5.928755079309524,12.672311472809524
16.32785695,2.0915554335819047,-1.0240811804714283,5.6695002148333336,12.958806192809524
16.34467451,2.029410773724762,-0.7517118865190472,4.926195394595239,13.718250971
16.36148368,1.9596482088676186,-0.4170736201857139,4.050396147500001,14.604491778714285
16.3782858,1.892734467915238,-0.1728642511380949,3.390682175500001,15.264003676714285
16.39509903,1.822984437058095,-0.13868819100476157,3.0830400333571437,15.576860580666667
16.41188621,1.7562591659485716,-0.22453910108571393,2.9555568017380964,15.723926792190477
16.42871269,1.6877627570485711,-0.2962137432285711,2.8282369208333344,15.877932591714284
16.44551202,1.571269364495238,-0.3368413817047616,2.6247435300714295,16.093874427
16.46232541,1.370831977685714,-0.41951267208571397,2.3556783768809533,16.387298829095236
16.47912621,1.117242733590476,-0.5512555553952377,1.957238333690477,16.786710992761904
16.49593938,0.8135091803999999,-0.5824031148714283,1.2800633114523818,17.181316459714285
16.51275762,0.4071723052095236,-0.42540785812380916,0.2664092838333341,17.06604192447619
16.5295464,-0.06530997303333355,-0.2416446918619044,-1.1384403136428565,16.296737793809523
16.54635628,-0.37134760622380975,-0.1007999380523806,-2.6249240689761897,15.289492811904763
16.56316311,-0.6398245579023812,0.1043097433761908,-3.939728645642856,14.536724480571428
16.57996974,-0.9180044758961907,0.10696862710476222,-5.3181988395952375,13.913443616142859
16.59677655,-1.240724188929524,-0.030355371161904433,-6.864506812166667,13.152739428761905
16.61358318,-1.4332566715485717,-0.2205884201142854,-8.352011725785715,12.160813186142857
16.63040716,-1.346592505786667,-0.4634491460666663,-9.350353967595238,11.38761906247619
16.64720788,-0.9717328435200001,-0.7469514296285711,-9.692976860833332,11.296354903428572
16.66400109,-0.44057959604380975,-1.1520664890571426,-9.249250911571428,11.79375395990476
16.68081973,0.24324208233714276,-1.9163854550095234,-7.578780083476189,12.469902042285716
16.69763476,0.9730295910990475,-2.7465049513428568,-4.758205641095238,13.342780503714286
16.71443751,1.6360735440514287,-3.3819017724857137,-1.6002003353809515,14.259917319904762
16.73124424,2.05138415395619,-3.8207643800571427,1.1571225208095244,15.109464828476192
16.74804589,2.166925912965714,-3.9654989727428567,2.9830962131904766,15.585384243714286
16.7648549,2.1285393296799997,-3.868347818161904,4.149787993190476,15.760271172761904
16.78166414,2.0480248532514285,-3.640677176971429,5.081948098000001,15.881009310142856
16.79847105,1.9904077452038096,-3.3699444563047614,5.955204327238096,15.896597532285714
16.81527743,1.9440932332038094,-3.041723373590476,6.568534850571429,15.636091226190477
16.83208184,1.9270386981085712,-2.7289073440666662,6.775750659333333,15.462566751619047
16.84886161,1.9150602194419044,-2.4399001458285707,6.563774426476191,15.690996254476193
16.86569742,1.8776275715847617,-2.1520320831952375,5.996638978857143,16.285912682095237
16.88250844,1.8456036762085712,-1.8776979505047617,5.413549013952381,16.894500882285712
16.89930559,1.7925553692085714,-1.7235412542666662,4.962328365476191,17.348135645142857
16.91609007,1.717254811934762,-1.7287336873619046,4.6786695202380955,17.634981683142854
16.93291441,1.6230209130238094,-1.8066982430190472,4.464244841809524,17.865386221857143
16.94971727,1.508493724438095,-1.8710228036571426,4.304884682952381,18.036883843047615
16.96651956,1.3132411015809522,-1.9072733608952377,4.093484605523811,18.230809313285715
16.98333426,1.0348499276952379,-1.8247932141333332,3.659155981333334,18.32863046147619
17.00013438,0.6686208647238094,-1.601139857885714,3.0618562920000003,18.21575059552381
17.01696193,0.2717469875390476,-1.267956725428571,2.274903183333334,17.92639705652381
17.03375091,-0.2252889702085715,-0.6262301022428568,0.82443284952381,16.99516753204762
17.05055793,-0.7724278485895238,0.03371235727142895,-1.3558275815238088,15.457614612523809
17.06736446,-1.242081647827619,0.4697086484380956,-3.7275169920952376,13.727063062190474
17.08416982,-1.482409857584762,0.7370688900571432,-5.8055189908095235,12.181114393238095
17.10097826,-1.4352570687180954,0.8340646013904764,-7.1879623732380935,11.25965757347619
17.11778749,-1.2043738677657143,0.8337698507476196,-8.08157700595238,10.804749623619049
17.13460612,-0.9225500510038094,0.7482059228523814,-8.770759173666667,10.428110481380951
17.1514115,-0.690506069432381,0.4821792443285718,-9.179312251742855,10.118240468666666
17.16820227,-0.40423597324190486,0.09244216051904801,-9.098956789171428,10.17045076452381
17.18502542,-0.07376287948000006,-0.19854040376666623,-8.340707506361904,10.210212301095238
17.20183239,0.28243698675809514,-0.5897995971952378,-6.704787844933334,10.259711624428572
17.21863729,0.7047406633295237,-1.1359265078142853,-4.3602009730285705,10.484204185857143
17.23544576,1.216106116758095,-1.687943833290476,-1.697795686361904,11.294741553
17.25225188,1.7593565354723806,-2.0706010092428566,0.9640872136380959,12.600301403
17.26906921,2.1473814673295237,-2.242482185433333,3.149593216971429,13.632771210619048
17.28586335,2.323204917424762,-2.258487292766666,4.767882165542858,14.023226586333335
17.30265224,2.3840834411723812,-2.2446927002904755,5.830622355066668,13.917758441571427
17.31946839,2.424476569434286,-2.2225061428142854,6.502776191257143,13.658624304952381
17.33625283,2.4367512888533334,-2.1551813682095236,6.870795840238096,13.308095182695237
17.35307867,2.3919074902533333,-2.1248398494333327,6.936085360333333,13.248649975600001
17.36987531,2.280804279104762,-2.099883166114285,6.599663757,13.595013696028573
17.38669221,2.121708004042857,-2.079306786985714,5.94613908557143,14.2563211786
17.40348569,1.9390170827571427,-2.0714104345952378,5.140563306142858,15.065091684790477
17.42030535,1.7668917886619047,-2.118726420977618,4.464463279095239,15.741576769885715
17.4371125,1.627390818752381,-2.1986568257871424,4.050921916857143,16.16548928502857
17.45391885,1.5128303310190476,-2.3198831194538094,3.807852313523811,16.435983732409525
17.47072575,1.380295202638095,-2.470694158725238,3.6381853420476196,16.623728692314288
17.48753071,1.2391057097428568,-2.542238475258571,3.4021543774285723,16.842434130409522
17.50435864,1.139680828142857,-2.4158837553585712,2.9182073047428574,17.111846542885715
17.52113981,1.0050176465047618,-2.1776102113899998,2.2499245234095246,17.246925179409523
17.53794257,0.8058838018809522,-2.009502866409047,1.4121115093619054,17.22017818545714
17.55476198,0.5728032558380951,-1.7796356663471427,0.25038035717142926,16.66401780912381
17.5715636,0.27552394478095227,-1.4745217121233327,-1.2223780495428564,15.533895838314287
17.58837262,-0.16312464098714297,-1.1540378061866663,-3.116598674209523,13.924750435695238
17.60517835,-0.6625792853109524,-0.8604779001723806,-5.350108691685714,12.182442693933334
17.62200129,-0.9840845679109526,-0.6094269993057139,-7.3161046164476184,10.922401405266667
17.6388068,-1.063386306919048,-0.4551204342866663,-8.70343117487619,10.284034448742858
17.65561314,-0.991291562757143,-0.40593401867714246,-9.43546304244762,10.049656734409524
17.67239172,-0.8643104774952383,-0.4133437786295234,-9.79598045344762,10.024316271409523
17.68922699,-0.6667101638857144,-0.4525846611390472,-9.812829517138093,10.160149447
17.70603347,-0.3459016907904763,-0.43686799629142814,-9.372095017185714,10.139913986
17.72283812,0.15645970901904757,-0.7609376381628566,-8.067609241947618,10.193860159333333
17.7396476,0.7275868172095237,-1.1329100259057139,-5.896739868614286,10.381279376
17.7564543,1.2681900121619047,-1.2882066354295234,-3.2826477228999997,10.602669498857143
17.77326023,1.7330793228285715,-1.4561468716899995,-0.9630675538523803,10.881737849333334
17.790077,2.0327344196857142,-1.4534982683566664,0.7261476066238102,11.181725539809523
17.8068746,2.1567224293047618,-1.2850995247947614,2.0931582681000007,11.565750580285714
17.82367,2.2722855608285712,-1.0312032088899994,3.4632051561000012,12.130712263571429
17.84048736,2.4026777006761906,-0.9082140312042855,4.848536355576191,12.718638095333333
17.85728028,2.4855774698238093,-1.008898063770952,5.999804451671429,12.989628082714287
17.87410146,2.460523682033333,-1.1942693520252377,6.760705494052381,12.882965112571428
17.89087726,2.3932434292761906,-1.333680528958571,6.876012484528572,12.79212697404762
17.90769683,2.317151889985714,-1.2191667144966662,6.5304146043380955,13.157606315142857
17.92451211,2.203933830852381,-0.98859771800619,6.103331157242859,13.635515149761906
17.94131075,2.088921433477619,-0.8572983869428566,5.7223369509571445,14.043044663333333
17.95812402,1.952291169420476,-0.8377192857619042,5.399606977480953,14.384858513666668
17.97492719,1.8029300897823808,-0.9563866356761899,5.123243196052381,14.688378825666668
17.99173416,1.701622227933333,-1.1671026845523804,4.899433136385715,14.947406046000001
18.00855453,1.6151465916571428,-1.3169443891142851,4.581877163957143,15.287460224619048
18.0253478,1.493473388,-1.3800572383999996,4.215238662671429,15.631629462333335
18.04214973,1.2959965979190475,-1.4327636162571424,3.78575415904762,15.926706304190475
18.05896437,0.9991444463666664,-1.5406095754619042,3.256560780428572,16.039794100285715
18.07576789,0.544810334938095,-1.3026327576047614,2.291822842857144,15.645889797285715
18.09257439,0.025010932128571313,-0.9963880663952376,0.7953107930952389,14.784443947047619
18.10936927,-0.44471292830000014,-0.8834472100095232,-1.0012593037619038,13.742100916333335
18.12620529,-0.8494651317285715,-0.625150765723809,-2.7333725516190466,12.880539811857144
18.14300844,-1.106950845014286,-0.44450347767619003,-4.163755053238095,12.31877468547619
18.15981087,-1.1997796864285717,-0.3995861752047614,-5.405488899380951,11.777756977095239
18.1766238,-1.296596674652381,-0.4976846377499995,-6.676626840761904,11.081878370333333
18.1934288,-1.4044212386142858,-0.5544234216642853,-7.993895575857142,10.415250999142856
18.2102354,-1.4409987017633334,-0.33112069966428526,-9.188285782047618,10.19042857009524
18.22704191,-1.3807116661266667,-0.009634396854761428,-10.045058568047617,10.408634323
18.24384654,-1.2496002287790478,0.11735563191666715,-9.901891980571428,10.244231622714285
18.26065606,-1.0178417137314288,-0.1732884461309519,-8.883891922857142,9.949572461095238
18.27746227,-0.7090517112076193,-0.3598626100357138,-7.68006856047619,9.874699638714285
18.29426845,-0.3458834715885716,-0.4055202845119043,-6.13054121047619,10.300680342523808
18.31106749,0.10479048322095223,-0.5558429829452377,-4.255456379047618,10.98102573347619
18.32787167,0.6882575806971426,-0.5766768044690472,-2.233508518571428,11.739102956809523
18.34466201,1.2957191696019046,-0.3924494060066663,-0.2381405147619037,12.581112004428572
18.3614815,1.7880699494447616,-0.24344855694476147,1.5211024057142868,13.260127041571428
18.37828888,2.145714172482857,-0.17598719118285672,2.9633022033333343,13.70063231585714
18.39509512,2.444771196373333,-0.27419312089714243,4.394908314333334,14.260956545190476
18.4119137,2.6837266203066665,-0.45132836703999957,5.703587531666668,14.832450918380951
18.4287066,2.826143176973333,-0.5738794846590471,6.588783581619047,15.009305465190474
18.4455047,2.933122629411428,-0.581487580463809,6.991072563466666,14.67169178504762
18.46232204,3.011426632078095,-0.48815280346857104,6.874838965085716,14.793146908142857
18.47912916,3.0788590200542854,-0.38023204327809484,6.486348197228572,15.191955617380952
18.49594664,3.125944942444762,-0.25177563803999964,6.124048323609525,15.570362249952382
18.51276065,3.132177709325714,-0.19707111097809488,5.881802581180953,15.816239180238094
18.5295455,3.03316691821619,-0.2246412763185711,5.711446716276192,16.003697150809522
18.54635608,2.8473227238923804,-0.3475837708042854,5.579902148990477,16.19827969342857
18.56315867,2.6000813999699997,-0.6594930093280948,5.51977053137143,16.345511050571428
18.57997208,2.3517688897619045,-1.0421548288042854,5.593973613752382,16.367157819142857
18.5967759,2.0844645402714286,-1.301974245575714,5.39818595684762,16.679828632285712
18.61358268,1.72001748017619,-1.3326179244328569,4.666933241133334,16.752843038
18.63039943,1.3048645671285712,-1.4694728000519046,3.6196262263714294,16.668989324190473
18.64721549,0.8826707787476187,-1.5503004619590475,2.078722135895239,16.234924319428572
18.66400028,0.4619002812238093,-1.4122929630161902,0.2708278835142863,15.481875990857143
18.68081479,-0.0490594688714288,-1.3479276895876187,-1.4841502962952373,14.443865234285713
18.69760866,-0.6266054298238097,-1.4798897050976187,-3.1438273476285707,13.269948038333334
18.71443689,-1.1264683334904764,-1.6352521522071424,-4.607484227152381,12.325008426952381
18.73124212,-1.5130914776333335,-1.6809020894452378,-5.969374429580951,11.804211303238095
18.74805113,-1.812646489814286,-1.4656045266961901,-7.554100581485714,11.383169896571427
18.76485832,-2.0157647502190477,-1.160295253753333,-9.021333240057142,10.960143291333335
18.78166358,-2.0549989485,-1.0610647372295234,-9.882489340295237,10.759731509761904
18.79847068,-2.0034098370333338,-1.1794998589676187,-10.071389379619047,10.946178966952383
18.81527526,-1.9044130799857146,-1.3416973580152376,-9.724601223238093,10.632108685714286
18.8320846,-1.743260434771429,-1.479555130062857,-9.15956285995238,10.097209520047619
18.8488903,-1.3839996670666668,-1.8773681096342854,-8.510017417523809,9.692176327142857
18.86569076,-0.7639042155333335,-2.2968024300152377,-7.405779769904761,9.93452960095238
18.88250232,0.10449597203809506,-2.3827041104628566,-4.907944519809523,11.625388156190477
18.89928075,1.1159578201333331,-2.497199626272381,-1.5315127369523807,14.141002610476189
18.91610048,1.9214035820857143,-2.270835961673333,1.1629600754285718,15.71582800095238
18.9329006,2.3641473830380955,-1.7326140801495236,2.947675455428572,16.46841758095238
18.94971706,2.6679558450857144,-1.2446955670066662,4.316471804000001,17.016174577619047
18.96650485,2.9663978738952377,-0.8379364524828568,5.4870540758095245,17.36718592447619
18.98333064,3.286458354133333,-0.6040173769590472,6.546166852000001,17.453365728761906
19.00015977,3.5298473305142855,-0.49969498890904723,7.342581772095239,17.141022381952382
19.01695466,3.635118364795238,-0.40657573661380914,7.495749178666666,16.988637109333332
19.03375088,3.652934686985714,-0.2643833161376187,6.9251136103809525,17.55079785590476
19.05055747,3.6220936543190474,-0.005333366947142471,5.985617796952382,18.46096542995238
19.06735213,3.6085221705571424,0.279129618576667,5.297571886476191,19.10144479085714
19.08417018,3.5983347319857146,0.3861117759338099,5.14589879652381,19.236976821238095
19.10097845,3.5566026534999997,0.2221495025657147,5.298775605095239,19.115962843619048
19.11778733,3.4975056231428576,-0.030215042091428244,5.357922258904763,19.102556269333334
19.13460357,3.4333985087809524,-0.1287474463295235,5.18069224152381,19.29886874090476
19.15140774,3.3451972598714286,-0.10830461990095205,4.845470814476191,19.579139448380953
19.16821848,3.2194577478761905,-0.18245420580571395,4.56953284852381,19.832011377095238
19.18501205,3.035312152552381,-0.3963103636152378,4.444772493238096,19.93434741871428
19.20181783,2.6536325608666664,-0.34789092209142825,4.18487975704762,19.946246754999997
19.21862514,2.0502312123,-0.11165873218666635,3.1847584132380953,19.599820939761905
19.23543167,1.3202577174571428,-0.03947072946285683,0.6095896218095245,17.969438859285713
19.25223816,0.5442527930095236,0.22507006770142893,-2.8590327672380944,15.482509232142858
19.26904477,0.031974298580952056,0.21654429310714318,-5.482628595333333,13.745528772142857
19.28586937,-0.09293707213333366,-0.17467758213095205,-7.197256088333332,12.826076035142856
19.30267225,-0.06206876894285746,-0.5482272478452378,-8.573438758,12.192240359666666
19.3194726,-0.010873266657143187,-0.7819180433023806,-9.636168071285713,11.676455307523808
19.3362581,0.0301824467238092,-0.8865309727642854,-10.342099303428572,11.267676265761905
19.35308686,0.1488984879619044,-1.0280702852976187,-10.477621510095236,11.212051828333333
19.3698854,0.4102830645380949,-1.1273914122357138,-9.644754341857142,11.317359595238095
19.38669233,0.7124505993476188,-1.028988435235714,-7.720482258999999,11.366573012380952
19.40349872,1.01520590977619,-1.2195663396166663,-4.820507072333332,11.85439078952381
19.42029179,1.4158257572523805,-1.4965185835690473,-2.09815181995238,12.687671634761903
19.43711221,1.8755232819666665,-1.327128364973809,-0.3252545989999992,13.345235763809523
19.45392698,2.3980917802999997,-0.7486952373547615,1.1821358319523818,14.071246703333335
19.47072566,2.880333768490476,-0.11656951906904728,2.8775579138571437,14.87570357333333
19.48753313,3.195635237895238,0.16221068016904797,4.50410777052381,15.47524555
19.5043533,3.307656705423809,0.16497928755000035,5.574524902428573,15.554960071428573
19.52111953,3.3125652699666666,0.17497322674047652,5.883006459476191,15.273500780619047
19.53795342,3.2320684052904753,0.43230517707380994,5.659154937666668,15.48243761704762
19.55475889,3.076033583738095,0.7570247650261909,5.21380519904762,15.943757013666668
19.57156584,2.856294878923809,0.8882247834309528,4.912643024285716,16.273408802238094
19.58837306,2.583910096290476,0.8055306162309528,4.788489705714286,16.45714432795238
19.60517924,2.291775059166666,0.5797291824000004,4.75128123952381,16.58603730557143
19.62200197,2.0388284836904758,0.3474155153952385,4.6895571671428575,16.731584368904763
19.63879886,1.8399780052142856,0.2543194748714289,4.600765728714286,16.85453487447619
19.65562166,1.630423401071428,0.17519191339523849,4.519002347666667,16.956735341857144
19.67241613,1.4019715587380948,-0.04700724276666625,4.413379443000001,17.09935138590476
19.68923117,1.172800946785714,-0.3279566650666662,4.224240303904763,17.293770566142857
19.70603344,0.9605019943999996,-0.47758976610476145,3.807724499428572,17.440615948666668
19.72284027,0.7307187318571424,-0.5459846200714281,2.9984503709047625,17.30204184247619
19.73962623,0.5325331858047616,-0.729488565733809,1.6087017068095246,16.713264759666668
19.75646152,0.37078557127142825,-0.7323215234004758,-0.5128044394285706,15.444130439380952
19.77325849,0.08574607822380917,-0.7370111487338091,-2.7352636422857133,14.136076470333334
19.7900677,-0.2508210852523813,-1.1160851659242854,-4.404555592761905,13.42267855604762
19.80687366,-0.6115945805380955,-1.6568176404480948,-5.929722331333333,12.70440487652381
19.82367399,-0.9137784129666668,-2.0598103090671422,-7.560971441333333,11.803776545952381
19.84049191,-1.093979477966667,-2.129135631267143,-9.067872410142858,11.070753517809525
19.85728984,-1.0848612502523811,-2.046695561538571,-10.067033903333332,10.919170860190476
19.87410105,-0.9518500879904765,-2.0584524698719044,-10.352474143952382,11.196620406666668
19.89089062,-0.6818440387047621,-2.2318494545861904,-9.923553352666667,10.828597261238096
19.90770006,-0.17812173432380973,-2.435575456748095,-8.72278828795238,10.395282727761904
19.92450733,0.630405803342857,-2.6085623161052376,-6.801549070809523,10.844608544428572
19.94130085,1.6321143108190477,-2.8427552437719044,-4.03736293842857,12.377964208238094
19.95812043,2.588621108104762,-2.8353598173433334,-1.1199318793809516,14.137864796333334
19.97491975,3.317993881819047,-2.5566382208480953,1.1221429053809526,15.293457089666665
19.99175133,3.8206539746761905,-2.0912300092290472,2.790296668238095,15.996232822047618
20.00853534,4.188060274819048,-1.6709783218480951,4.310170150857142,16.608883740142858
20.02534811,4.474018042676191,-1.3992270542766665,5.546271028809524,17.03305182014286
20.04213534,4.604229935295238,-1.1410086296052377,6.158341770904762,16.940561429666666
20.05896104,4.551613285157142,-0.8301480411766663,5.843715122428571,17.222643862809523
20.07578119,4.370680842795238,-0.5632832872719045,5.076520147571429,18.015394145190477
20.09256985,4.138489132561904,-0.3608831024666663,4.421746389761905,18.705517381333333
20.1093846,3.903637113761904,-0.1901576206095234,3.9058738431428575,19.238668406380953
20.12620303,3.64233209947619,-0.06111908804285675,3.6007945645714288,19.54040716352381
20.1430106,3.376948640190476,-0.013053947899999585,3.4503817779047625,19.69560973257143
20.15980706,3.1233354520476193,-0.1317443024238091,3.381060326952381,19.81595290780952
20.17662997,2.880903289190476,-0.3727929904238091,3.3553131186190477,19.89422278457143
20.19342471,2.6459063346190472,-0.5828828556047615,3.365131922333334,19.92522919990476
20.2102396,2.4288669765714284,-0.6748010289047615,3.422309216190477,19.89061861057143
20.22703631,2.2279692318571427,-0.6561859306666662,3.4142426300952384,19.88149159195238
20.2438527,2.03516724257619,-0.6728882988095234,3.1398994119523813,20.088949418333332
20.26065147,1.7342802298142854,-0.7169735005523805,2.3688761611904763,20.05748731652381
20.27746648,1.2005148855047618,-0.6641899943142853,0.9014097159047625,19.12802528419048
20.29426937,0.49549581457619024,-0.38778237217142814,-1.4053967348571423,17.094867953714285
20.31107605,-0.12983294199523832,-0.2682418226952376,-3.903322334190475,14.859548806714285
20.32787858,-0.5500494227095241,-0.3583242439047615,-5.864006747285713,13.362311608666667
20.34466396,-0.7571304454238098,-0.6823156333809519,-7.218125276238094,12.360999599095237
20.36148206,-0.8182070183761907,-1.0261278152380948,-8.212902683,11.482730700619047
20.37828919,-0.8278421489476192,-1.2485808077142853,-8.855778581333333,10.93157638295238
20.39509581,-0.7192272614714289,-1.3490854558142853,-8.978193261095237,10.879613762857142
20.41190088,-0.44141800490000027,-1.384683881480952,-7.9917542371904755,10.655931310857143
20.42870928,-0.09708390209047645,-1.4676041035285712,-6.031876860047619,10.350688746095239
20.44551585,0.27150121895714263,-1.7021128449904757,-3.709458465285713,10.49568592895238
20.46232239,0.6778607779571426,-1.7768712952047616,-1.5853942467142852,10.724297007999999
20.47914574,1.248200276052381,-1.538735849533333,0.18853598519047698,11.01688073895238
20.49593361,1.8754368012904759,-1.2038522504857139,1.8895922842380959,11.47341559704762
20.51275673,2.4169286617190475,-0.9879137845285709,3.441648324714287,11.93067180942857
20.5295324,2.78430310457619,-0.8047731263142853,4.587453138761906,12.145158684666667
20.54635496,3.0126223067190474,-0.6330649739119044,5.27738042152381,12.015057278999999
20.56315538,3.143471923590476,-0.49153837417857094,5.5211228648095245,11.734872133571427
20.57996913,3.2090897631,-0.2959762896547615,5.593910013428572,11.648866571714287
20.59677698,3.220710418042857,-0.046080501321428186,5.575371311238096,11.68372160695238
20.61358428,3.1999303102380954,0.16625689039285754,5.45626488204762,11.818469277952381
20.63040577,3.1657896836495234,0.3175258153928575,5.213633878285715,12.054910163619047
20.6472063,3.1414884499066664,0.4347390078547623,4.857961655238095,12.392689653142858
20.66404689,3.095375787649524,0.5267987620276193,4.482432343142857,12.732092676333334
20.68081814,3.0310976278019046,0.5523614457895243,4.232573305285714,12.958241678666665
20.69763452,2.9315978118019044,0.5674296021609527,3.9415418313809534,13.188714105380953
20.71443714,2.81198937551619,0.6412229566609527,3.4034058487142866,13.42556049147619
20.73121713,2.719878787087619,0.7578082453752385,2.736447130619048,13.570331644333335
20.74804722,2.661263647563809,0.7760516603752385,2.164032369142858,13.730475188380954
20.76486131,2.581129562325714,0.6080731352323814,1.5088396987619053,13.636965805809522
20.78166431,2.543074199182857,0.3724418055657147,0.44968634652381007,13.07167765657143
20.79847044,2.5007531643257144,0.30170484102761946,-1.143938676714285,12.198170242047619
20.81527771,2.390175047420952,0.22064945528952426,-2.758169286904761,11.450134535857144
20.83208291,2.1303194023733334,-0.043503860615237644,-4.117235341904761,10.732254580714287
20.84889256,1.8074296315638092,-0.2979962343295234,-5.412645225904761,9.849148881142858
20.86569593,1.5426228387066663,-0.3626522989533329,-6.528603303666666,8.951350155809523
20.88248764,1.412291867373333,-0.39884118521523765,-7.193856034757142,8.352065478380954
20.89929754,1.365183739420952,-0.3721933449890472,-7.360804307804761,8.180810644333334
20.91610417,1.3293131022066664,-0.20393994876999955,-6.8657499038523815,8.460220108571429
20.93289824,1.387601296078095,0.002780147944286181,-5.726860409423809,8.916094692571429
20.94971714,1.4854565745114283,0.12177265827761952,-4.164280527519047,9.504778062095237
20.96652477,1.7104231175542857,0.18791317370619093,-2.4221276775190472,10.168547376380953
20.98336882,2.054290555738095,0.47459033556333385,-0.592923209423809,10.934815334952381
21.00014954,2.2757484287904757,0.7359548807204765,1.149153845814286,11.612800780666666
21.01693846,2.444043358095238,0.8264219817857148,2.6189708258142863,12.018057959714286
21.0337512,2.628590555371428,0.8731408857333337,3.738148780576191,12.158732463047619
21.05054174,2.7679387444190473,0.8765760433285719,4.542269071195239,12.059779117857143
21.06736499,2.845039781990476,0.8738363300238099,4.94026779014762,11.760029939666666
21.08415221,2.840324447180952,0.9172591652333337,4.9307610196238105,11.765736406238096
21.10098196,2.7702510412619046,0.956094633976191,4.696062406195239,11.98367737047619
21.1177873,2.6922668671761905,0.9184502022619052,4.346055008385715,12.312921779333331
21.13460801,2.554942585080952,0.8983587707857146,3.974643117290477,12.637735386190476
21.15140976,2.445954248952381,0.874260329071429,3.716017132909525,12.873373385952382
21.16821487,2.3808305205999996,0.7933966092142861,3.5569319497666676,13.033564088809525
21.18502757,2.3481143825523807,0.7147659631666671,3.345059985242858,13.248337379190476
21.20182506,2.33594365907619,0.6358408985476194,3.056891304957143,13.535293274952384
21.21863044,2.3144328990761904,0.51247931102381,2.6689653393857147,13.90443012504762
21.23545167,2.3054746275047613,0.34145866126190516,2.170141855619048,14.309592929619047
21.25224907,2.365019588171428,0.0886993181571433,1.566203344142858,14.700756915000003
21.2690552,2.515578355038095,-0.22096338717619007,0.6695476257619053,14.855319335523811
21.28587005,2.617370412419047,-0.5755685510333329,-0.6113912947142849,14.56006618885714
21.30267308,2.680567798085714,-0.9296731323666663,-2.1100602834761895,13.915711281619044
21.319478,2.5959699834666665,-1.3095781858904758,-3.6512088778571417,13.089973051190476
21.3362856,2.3795167945142857,-1.8947429826523803,-5.182119142523808,12.122691517666667
21.35306293,2.2796998477523807,-2.3890419176047617,-6.661532719999999,11.264722479142858
21.36988585,2.2368293829904764,-2.528717830033333,-7.847616445428571,10.61909796309524
21.38669289,2.0864077862761903,-2.526429522566666,-8.542609918904763,10.082299470380953
21.40349918,1.8927832954999995,-2.5334902206666663,-8.695815972142857,9.873620621047618
21.42030621,1.7389369919014284,-2.473061567223809,-8.15976581138095,10.161365715904761
21.4371128,1.663143549615714,-2.320030978719047,-6.88494993395238,10.507647284619047
21.45391927,1.6798685561538091,-2.0410850558904756,-5.239986987285713,10.924782063190477
21.4707268,1.8562977483823804,-1.6782818237952377,-3.3807384172857136,11.525634620333332
21.48754698,2.2634453772871423,-1.3907242105095232,-1.1559579258571415,12.590556773190476
21.50436119,2.6895552418919046,-1.1974895965571424,1.2617828960476203,13.836647287
21.52114377,2.9847811573395235,-1.0674997000809519,3.2862375579523824,14.694420109857143
21.53794119,3.1357586667204758,-0.9015029101619043,4.630841868428573,14.921620601761907
21.5547616,3.248981844768095,-0.5583389771142853,5.356563909047621,14.694278657571427
21.57155485,3.352674308244285,-0.12642203635238053,5.91194023452381,14.444915292714287
21.58837318,3.408065665339523,0.1755335273619052,6.290461086523811,14.093019585333334
21.60515759,3.421221386815714,0.2952673832190481,6.335979462142859,14.01409143504762
21.62200183,3.3612251622442852,0.28416528583809564,6.146965572142859,14.187669608857144
21.63879067,3.2660164605776187,0.27402105212380995,5.601992652619048,14.710282279809523
21.65561539,3.176729809672857,0.28837916955238135,5.082665625190478,15.200490835142856
21.67241943,3.135458429625238,0.2576929840761909,4.780976113857144,15.477565382714287
21.68922418,3.0866395348157143,0.17421550969523847,4.513200305666667,15.729806484333334
21.7060366,3.028004935768095,0.07991217421904803,4.159041495523811,16.06695418380952
21.72284059,2.975269890910952,-0.10592892063809482,3.7963194390476205,16.436284547
21.73964767,3.014989586053809,-0.32388353357619004,3.3206976706190483,16.926647904
21.75644928,3.11282986683,-0.49257303429999955,2.6786569638095252,17.27401201852381
21.77326618,3.193094259190476,-0.7161278498428567,1.8033470196190489,17.275856722904763
21.79006381,3.260143694380952,-1.0997725555571425,0.6243896025714296,16.902646916190477
21.80687832,3.288279096285714,-1.5608728159380947,-0.7770754048095228,16.29758717204762
21.82367936,3.1708093313809527,-1.8736932164142854,-2.403413182761904,15.469335961714286
21.84048863,2.8750253802380947,-2.026111977451904,-4.369725228047618,14.149522762142857
21.85729428,2.521288218952381,-2.167785337975714,-6.397268295857143,12.52976888547619
21.87408434,2.3024409669047614,-2.3408866042138095,-7.840921856590476,11.273457906857143
21.89089435,2.1994244768571427,-2.4188763754661897,-8.463422139971428,10.666268189809525
21.90770073,2.0928723755238092,-2.395705756656666,-8.34276776135238,10.725156312333333
21.92450822,1.9032121385842853,-2.408459129751904,-7.95188890235238,10.923416805761903
21.94131452,1.6802671977271426,-2.456292492980476,-7.1268518318761895,11.471018022190476
21.95812126,1.5468962532842854,-2.38621508506619,-5.525410312066666,12.190370428666666
21.97490926,1.696536035712857,-2.1394934313519043,-3.327376661114285,12.956533893904762
21.99175005,1.9934047233319043,-1.7555741355423802,-0.652834188257142,13.591261448666666
22.00855462,2.2117565472842857,-1.4790746711138092,1.7019619036476197,14.08722494247619
22.02535167,2.305089825665238,-1.2251818974471422,3.4564302765047628,14.525611093904761
22.04215508,2.3685449418557143,-0.9021794795614281,4.726385775552382,14.630735897714287
22.05894961,2.4111521244271428,-0.6349443139995233,5.67917322017143,14.235143825999998
22.07576834,2.4055260704271424,-0.41371771263761864,6.220284485266668,13.684692284904761
22.0925576,2.373222634950952,-0.20028742148523765,6.46275908669524,13.407870069714287
22.10938195,2.315971766236667,0.03801064271000048,6.473242555980953,13.347355447142858
22.12618495,2.24207865627,0.24645487472142905,6.266265710838096,13.497263198476192
22.14298257,2.1803786300938093,0.41906245553095284,5.952255067885716,13.738009971857144
22.15979819,2.121850743203333,0.5199643090071433,5.701017925266668,13.94066678457143
22.17662353,2.0492895756795235,0.4377711841500005,5.544339907028573,14.099586696333333
22.19341592,1.9683579518938092,0.273091747711429,5.32346725517143,14.326127140666667
22.21023891,1.9142558603366666,0.13510352094952424,4.934408960600001,14.723059729714285
22.2270221,1.8445059884271426,0.05915944923523857,4.3324223027619055,15.178366310714285
22.24384585,1.79603572404619,-0.1333195821933329,3.586954889476192,15.614335007761905
22.26066025,1.7851062360461902,-0.5143277644314281,2.7123827711904775,15.813316875619048
22.27745748,1.8804707442238093,-0.8641041346219044,1.720891044809525,15.88596026895238
22.29425658,2.0540819764619043,-0.98126196853619,0.44933178385714406,15.709402041809524
22.31107241,2.1744995713809523,-1.07170294573619,-1.200412931380951,15.03709724752381
22.32788701,2.0612807189523807,-1.3649869078314283,-3.1022823875714276,14.012226473714287
22.34469072,1.8143760278571428,-1.879193907640952,-5.12684971938095,12.787241382857143
22.36146889,1.6487837888095236,-2.2239461739266666,-6.82877243147619,11.682276555666666
22.37829255,1.5790636227619044,-2.3746677239266663,-8.14329619638095,10.816307052047618
22.39509644,1.5212626372380949,-2.492269277526666,-8.933443251238094,10.227704233238095
22.41190169,1.4373220290761903,-2.5791176954219046,-9.151065690285712,10.048547654761904
22.42871296,1.3264146333714284,-2.6407832644504756,-8.856741451190475,10.152808981333331
22.44551359,1.2167808328333332,-2.651164565693809,-8.094217255142857,10.27053977595238
22.46232488,1.1508358291095235,-2.538376569698571,-6.93365964452381,10.52384015042857
22.47914263,1.2839377749333332,-2.2424875781385714,-5.357799439285714,10.92020223852381
22.49595196,1.627449174680952,-1.8564156918052377,-3.3051171983333325,11.681171804714285
22.51275754,2.122918781952381,-1.6138724259004757,-1.0158016569047612,12.771270556619047
22.52954698,2.6151175159523805,-1.4338700431004756,0.9828078407142863,13.70375546947619
22.54635694,3.0207655714999997,-1.166213637338571,2.4948423478571433,14.165445769
22.56316358,3.3582182102,-0.8169050444338092,3.5888420288095246,14.15142844995238
22.5799773,3.522843236109524,-0.5843907538480949,4.433300790333334,13.794716719380952
22.5967758,3.550834213061904,-0.48993496675285675,5.119882947142858,13.363124027238095
22.6135838,3.5711289644904762,-0.5421419258004758,5.646844410152381,13.038537848571432
22.63040745,3.553961498442857,-0.6099855787052377,5.9739965714380965,12.781239049904762
22.64719421,3.4828688190333335,-0.5398173787147615,6.013943218580954,12.72292262942857
22.66400148,3.310085762128571,-0.31058678180999966,5.7848512562000005,12.930800305619048
22.68080934,3.096960624080952,-0.015586183238571093,5.453035627628573,13.218988235142856
22.69762751,2.9000794093190474,0.22661922654238126,5.149449167533334,13.464766597904761
22.71442564,2.6874083337952377,0.37364401129476227,4.803105695819049,13.770032361285715
22.73123939,2.492395628128571,0.481419534861429,4.445431891676191,14.086181215857142
22.74805555,2.3851001689238096,0.5863665341828576,4.033830779866667,14.415719342761903
22.76485443,2.40875355127619,0.6738306907638099,3.4478822900095243,14.778121305333332
22.78166804,2.4914055013619043,0.7050888480828575,2.693549248200001,15.09824164890476
22.79847047,2.555274943619047,0.6770245999738099,1.7476316192952386,15.154835129952382
22.81526311,2.5945648239857144,0.5187751707023813,0.6182038002952388,14.867271842380953
22.83207134,2.47296908367619,0.2078910810261909,-0.699874831228571,14.213945808714286
22.84887833,2.161660353480952,-0.15176876956428528,-2.348326182228571,13.051957752238096
22.86568476,1.7300204037666664,-0.3545684984690472,-4.337359018323809,11.669358307095237
22.88249154,1.3259716658142855,-0.47096459636428534,-6.178964341085713,10.584629086666666
22.89928799,0.9855172917666664,-0.6451270466499995,-7.450871466514284,9.880181978809523
22.91610376,0.7017699025761901,-0.8592863990785711,-8.047374678990476,9.412134895714285
22.93290854,0.6054499092428569,-0.9924750895214283,-8.100994381657141,9.361136921190475
22.94972194,0.6636152948619045,-1.0113651070452376,-7.654523439895237,9.746876108571428
22.9665431,0.7091178667190474,-0.8752908138547616,-6.8547308324285705,10.282546128190475
22.98334259,0.7497740700523807,-0.6446681816785711,-5.742740494190476,10.877857848761906
23.00015616,0.9827299856523807,-0.5749803780928568,-4.104287465142857,11.547778234
23.01695611,1.463741013033333,-0.8265995127119045,-1.9376130779999994,12.366476151142857
23.03375204,2.0099198307476187,-1.186978073283333,0.3407564620000008,13.212529841142858
23.05055901,2.3434120984619047,-1.4002629006833327,2.1140679858095246,13.613546157809523
23.06736553,2.5103794336523806,-1.56647291062619,3.228727840000001,13.46333518495238
23.08417251,2.5436733081428566,-1.6365895157166666,3.7729504902333337,12.96365043142857
23.10097877,2.486640146823809,-1.55530001427619,3.870420478376191,12.882666750809525
23.11778923,2.3445285047761906,-1.3634283882380946,3.74159165742381,13.035170255095238
23.13459023,2.1794646751095237,-1.1656866016047616,3.573152609804763,13.221329868904764
23.15141334,2.0211335789619045,-1.0254256695952375,3.3607892302809534,13.45123774652381
23.16821271,1.8900499769857138,-0.9004017085142854,3.0792125740428573,13.748839984571429
23.1850272,1.7845299329142852,-0.7720634169809519,2.7292794946142864,14.111959505380954
23.20182457,1.675488985728571,-0.6510947033428567,2.3749030651380956,14.46805687947619
23.21864059,1.5466688616238093,-0.553631447528571,2.2159948117095247,14.61403573509524
23.23542731,1.389341550228571,-0.4911349273190472,2.2942488075190486,14.515299214
23.25225599,1.2692110070190472,-0.46640742955714243,2.305439653376191,14.486991456333334
23.26906036,1.1670403622523806,-0.4228809134809519,2.064966314852382,14.675960942285716
23.28586796,1.0694088765809522,-0.299655718428571,1.4805159109952388,14.826844705714285
23.3026734,0.9693015927714282,-0.11834006647571386,0.4975420857095245,14.67013038190476
23.31947258,0.8964132979142855,-0.013087709699047191,-0.6438765300999995,14.243436270190475
23.33629855,0.8480855510571427,-0.11022063092285672,-1.7535911516238087,13.574017952380954
23.35308421,0.6633932136285712,-0.26949965383238056,-3.0104222524333326,12.59566586895238
23.36987798,0.38169046810476165,-0.2401113055942853,-4.547748838147619,11.265342489761904
23.38669343,0.06429063705714261,-0.13584557035619005,-6.095854622914286,9.857925422761905
23.40350039,-0.041942346657143116,-0.333786124308571,-7.065177281438094,9.161974063666667
23.42030682,0.01657085191428545,-0.5788789476895234,-7.28355003515238,9.14841964747619
23.43710077,0.33193945599523783,-0.5913805961657139,-6.725217319671428,9.679126112428571
23.45392057,0.781286986090476,-0.6325009210038092,-5.405339626861904,10.291570666380952
23.47073048,1.2821612329952379,-1.0110368615276188,-3.5460393311476186,10.945480245904761
23.48754547,1.8477887284238093,-1.5534686701942853,-1.1661081082904756,11.988214641619047
23.50435521,2.276811778519048,-2.0425512790990474,1.3012844955190481,13.07542128495238
23.52114452,2.521053118328571,-2.384982744908571,3.3495809245666672,13.713899960190478
23.53795416,2.6438276483714285,-2.440107674860952,4.743968760280953,13.679230186857142
23.55475951,2.7184900925047617,-2.444580032718095,5.568992865376191,13.240886302619046
23.57156797,2.7723313903285707,-2.448776392718095,5.91273882342381,12.897687034809524
23.58837426,2.797602902538095,-2.427166565551428,5.800735247233334,13.006881571761905
