Time (s),Linear Acceleration x (m/s^2),Linear Acceleration y (m/s^2),Linear Acceleration z (m/s^2),Absolute acceleration (m/s^2)
0.353302344,-0.2074499584347619,-0.12231822237633332,-0.12377664022380949,2.575336828461905
0.370089057,-0.11969610622523812,-0.11495708280490476,-0.1764031308333333,2.5935237860333333
0.386916359,-0.06235033556809526,-0.12249519708109524,-0.21694337188571428,2.664149250580952
0.403702696,-0.028853813796666697,-0.11127417425014287,-0.42634594443809515,2.8701254770904763
0.42053369,-0.12716117357761908,-0.08847440988823808,-0.3941055479847619,2.894525754185714
0.437341012,-0.1666499716728572,-0.12642283663109521,-0.5028073532419047,2.9360204852809524
0.454147877,-0.21584801161571432,-0.15893977025014283,-0.4437418182895237,2.9462126088047618
0.470960825,-0.24621187787761906,-0.17380609962633334,-0.3932953988180953,2.9904410458333333
0.487761301,-0.2649845793,-0.17496749328823807,-0.34961183586095235,3.0158631605904764
0.504565196,-0.2725274080190476,-0.20659501207395237,-0.3044084225752381,3.0299565871571428
0.521372508,-0.34097207442857147,-0.2270693551215714,-0.31688422536095234,3.026850642538095
0.538188752,-0.4932630998571429,-0.2138619195120476,-0.3309555706895238,3.053500114442857
0.554997804,-0.7379426870952381,-0.18919168192633334,-0.29250883209904754,3.0512794847761904
0.571796388,-0.9549883348714286,-0.2514770144025238,-0.34878129481904757,2.963887349061905
0.588605288,-0.9889224341857143,-0.34807305104999997,-0.5201638043238094,2.9323333631095236
0.605412509,-0.8009705628523809,-0.46665336966428567,-0.42170108642857135,2.8699517602047617
0.62222446,-0.4528915285666667,-0.5887601942833334,-0.18517407490476187,2.5824678923952384
0.639023064,-0.21649251375714293,-0.5842555817690476,-0.10315975547142851,2.5139381187285714
0.65583937,0.019144696909523737,-0.4218683696690476,-0.3499985564333333,2.2965089717761904
0.672644708,0.1820115844809523,-0.19428239547857146,-0.443275670195238,2.184880274014286
0.689449142,0.23693952394285706,-0.06925146916428572,-0.2754564682571428,2.1253919485857145
0.706255255,0.20327621134761897,-0.018730436011904775,-0.14269486780476187,2.085499446538095
0.723065649,0.08524818083809516,0.028588022545238085,-0.08948835590952375,2.075019680585714
0.739872666,-0.004386805314285784,0.042456490694761886,0.017567115138095286,2.0454045325380954
0.756681394,-0.0653134924680953,0.07014883136380952,0.29834357611904766,1.8351366494904764
0.77348544,0.0009747403282856434,0.11210922971142855,0.34162024938952384,1.8449908487285716
0.790291999,0.017808528199714218,0.18087246307333332,0.46358277538476195,1.8356731126333334
0.807100472,0.023227390818761837,0.25972854524952377,0.41148406405523813,1.8722944139666664
0.823908049,0.014201116023523738,0.32681426549238096,0.31536267625047626,1.8673848605857142
0.840716979,0.03979136833304755,0.3209605671257143,0.23732301023619057,1.8695741184761905
0.857523711,0.07279711964733326,0.31128186272523806,0.16272367322190484,1.8432978616761904
0.874331156,0.046974031742571344,0.3793463252966666,0.12923070502476197,1.9054732507238097
0.891148346,0.005979716790190397,0.4958450226490476,0.0828402368580953,2.003642433914286
0.907949483,0.03270102398066658,0.6027406056442858,0.036630464448571494,2.018468742819048
0.924743419,0.0011706664235237188,0.914527983882381,0.04558762481952387,2.1138735932952377
0.941559052,-0.05663797403838105,1.3498077392633334,0.06073363338142863,2.3448667405809522
0.958368572,-0.15964377211933342,1.8964159829299998,0.11889477287190484,2.6997795497714288
0.975177157,-0.14682439111933343,2.3892598379299996,0.3569295548242858,3.086012873009524
0.991974663,-0.032194350452666796,2.7196648007633337,0.7196427470100001,3.4691515515809526
1.008789563,0.012102413737809424,2.7860886937585714,1.0070797588290477,3.709336414580952
1.025597009,-0.004565077166952478,2.499956244568095,1.2108727395433334,3.9147953589619053
1.042402317,0.05388317507114276,1.8780749864728574,1.3099437227957142,4.391501813438095
1.059214867,0.27089845282828556,0.83272745503,1.2322791658385714,5.362850037390476
1.076021865,0.626229621099714,-0.7752357435080952,0.9714006766957143,6.91318315572381
1.09282989,0.9951870724901903,-2.506816659352857,0.9332209044576191,8.617283362580952
1.109638483,1.0491340273582854,-3.567228702943333,0.8404777744766667,9.613020275580952
1.12644365,1.0209158374809522,-4.220255783514762,0.5666791384290477,10.154734607533333
1.143236426,0.8033506018285714,-4.595571222657618,0.5534152558052381,10.419732105295239
1.160058396,0.7724347483238093,-5.058520680276667,0.5947356280014287,10.698511094628572
1.176867815,0.8468809638380951,-5.231137684329048,0.6912186797585714,10.792200729914285
1.193674568,0.8075201056904759,-4.881882167914761,1.0228644864109522,11.17798401667619
1.210478279,0.7614003902047617,-4.3729284374285715,1.2314539919966667,11.689868414333334
1.227286599,0.8726001296238094,-3.895600137190476,1.3732829774319046,12.158848463285715
1.244094095,1.0411578217809523,-3.3890345663333337,1.5053117927033335,12.623877284714286
1.260902881,1.204698565447619,-2.8894709402857144,1.5313842607795238,13.097101878428573
1.277708038,1.3655899166857142,-2.406291530142857,1.536321079342857,13.579064383714286
1.294517222,1.4925807770809523,-1.9872888156190476,1.5204129288952382,14.003329245476193
1.311301951,1.673536144495238,-1.6654343607142856,1.3904157492714286,14.34801019057143
1.328130615,1.8016632084952382,-1.3808687077619046,0.9420906034619049,14.671476862
1.344940868,1.7975699247809522,-1.0168369160952382,0.46772867289047615,14.902533281047619
1.361749065,1.800758103447619,-0.5226348247619047,0.1470677070857143,15.161508447380955
1.378530051,1.8682683790666668,0.2114337731904762,-0.06414601785238093,15.390898838857144
1.395360313,1.8721848243047616,1.260983875095238,-0.2247621943,15.339422479809524
1.418457766,1.6974451569714282,2.7326563417142857,-0.26112540712857146,14.78306306357143
1.435281054,1.3816840080571429,4.773213249190476,-0.1297412955095238,13.620255543714284
1.452088428,1.0196388931285714,6.977203867285715,-0.1577496373,12.333603653714286
1.468884962,0.9581968585380952,8.464043388761905,-0.17624245515714285,11.752807323571428
1.485707961,0.9807955962999999,9.415637923380952,-0.10213991715714284,11.533267329619047
1.502509933,1.2015677158238094,9.621975080142857,-0.01957529357619045,11.289532464809524
1.519316334,1.3154043959666666,8.05844683752381,0.5055786584619048,12.927595397285714
1.536123831,1.532957960442857,4.960180463142858,1.3220118611761904,16.13262758647619
1.552932877,1.9285423507095236,1.408079055238095,1.7617068334142854,19.030244601666666
1.569739874,2.1823164685857144,-1.339131583809524,1.3646615616523807,20.75182725738095
1.586546338,2.2670438324999997,-3.0430764709523808,0.8994983761761904,21.304477889285714
1.603353446,2.133542016152381,-4.065304257809524,0.9015843571285713,21.037362262142857
1.620149996,1.9302057715809524,-4.292595047238096,-0.09935435344285706,21.468571624523808
1.636966571,1.8573044460380952,-4.608671212238095,-0.3183433836571429,21.201416074142855
1.65376574,1.813742930704762,-4.948911327380952,-0.3037820682761905,20.858178040190477
1.670586577,1.7223063175619044,-5.174422151666667,-0.038482906990476205,20.633234354
1.687379206,1.598580312942857,-5.287938096428571,0.4332959172,20.477024427333333
1.704198821,1.485681406895238,-5.2086686873809525,0.793925555247619,20.539514477809522
1.721005015,1.4156648411333332,-4.917531173571429,0.9586745304333333,20.82680586495238
1.737814427,1.4221499968,-4.506215391666666,1.0646277924190475,21.244682382571426
1.754624278,1.5311930272761904,-4.100903534523809,1.2761751047238097,21.680485780190473
1.771426413,1.6797402566095239,-3.7959114492380954,1.396977546947619,21.99998433738095
1.788237464,1.8141517647619045,-3.6142646024285714,1.4635907683904763,22.191679692
1.805040713,1.9322736811190475,-3.524985200523809,1.511152595552381,22.292057294380953
1.821862393,2.0328793506142855,-3.4659563481904763,1.6297714244619048,22.354508643571428
1.838657529,2.121149725314286,-3.370913211238095,1.8084834036190474,22.423899917761908
1.855464217,2.1945209760285715,-2.844369775619047,1.7164349299642854,22.761877469809527
1.872267785,2.190765531409524,-0.4533236148095237,1.1533480841209525,21.208325219571428
1.889081918,1.9651854891,3.2516564179047625,0.29250123252571425,18.323557627142858
1.905893066,1.6351020365904758,6.964696542666667,-0.43238541050761903,15.47429563047619
1.92269461,1.4553645878761903,9.703620977904762,-0.2468109300219047,13.713353910476192
1.939502798,1.378338149742857,11.378532386000002,0.03577031417333335,13.117705256190474
1.956309144,1.4814359561,12.300707520952383,-0.15701864439809524,13.279229870952381
1.973116375,1.6083492794076188,12.378732521380952,0.7117839710304762,12.703535045952382
1.98992707,1.5612039070600001,12.362424577047621,0.9410998763542857,12.631856201523808
2.006731162,1.5217331081504761,11.381425902190477,1.819638788649524,13.227709597857142
2.023544675,1.5176856575790476,7.925924981714287,2.850638255887619,15.756475859285713
2.040344511,1.5774649950076187,3.62547011552381,3.1782076951257143,18.797852033095236
2.057155241,1.6286420765790475,-0.09223474828571401,3.1696579594590473,20.975669208809524
2.073949447,1.5682031824695237,-2.4316462568571424,3.1572860901733333,21.553191310714286
2.090769617,1.420886570502857,-4.032030060666666,3.5801058862209523,21.45035491785714
2.107575973,1.29196959736,-4.904189700733332,2.7147970336971428,21.185068600238097
2.124385086,1.2444426928361905,-5.631742750319047,1.7801633077114287,21.293115438333334
2.141178726,1.2518335552171427,-6.161469142271428,1.38994474184,21.069659850238093
2.15799965,1.2802366556933333,-6.467875004223809,1.3132098073066667,20.787942259857143
2.174788611,1.279683825455238,-6.547333876461904,1.298897454854286,20.709017986761904
2.191612616,1.269249805312381,-6.5132883847,1.287172741549524,20.740687551761905
2.208423596,1.2657720445980951,-6.390174616319047,1.2862817305185716,20.862391991190474
2.2252275,1.2659163503123807,-6.222510497128571,1.2948388583190475,21.029363554761908
2.242035311,1.2676442151647618,-6.019213381747619,1.2842045864490477,21.23205841385714
2.258850634,1.2744045285647618,-5.786231608890477,1.2909953422109526,21.465062620999998
2.275649891,1.2870746992790476,-5.548091638890476,1.386762777772857,21.706031569095234
2.292456333,1.3117120719838096,-5.385446026509524,1.3973468852395239,21.86917870719048
2.309266708,1.4012719066266666,-5.1223528955571425,1.5804570145252381,22.139263883857144
2.32607899,1.4983573002238093,-4.815384569890476,1.6487130634585718,22.442380283142853
2.342867808,1.588296488590476,-4.486210028652381,1.5909606103157143,22.775254167
2.359687357,1.6343685473095237,-3.2779386843666667,0.7382566359061906,22.404904336999998
2.376494203,1.6189668546904759,0.19809425420476204,-0.5403595197604761,19.88199374461905
2.393303321,1.490354810404762,4.393084548490476,-1.2116391884747617,16.716916990333335
2.410110683,1.3431505887095239,7.892665022776191,-1.5068595862366667,14.296523900809524
2.504651469,1.7798529877238094,5.6002205213476195,-0.6176971479509522,16.745654946523807
2.521457987,2.4061621299761904,1.9093944227761914,-1.0599853650461906,20.260950142714286
2.53825887,2.5178716622619044,-0.9242246947761894,-0.531421831474762,22.381012043190474
2.555076539,2.377519782085714,-2.2925286294761893,1.028828859477619,22.968403207
2.571880443,2.1913304172809522,-2.2907584509999985,-0.8247504798080951,24.78415736652381
2.588688213,2.018357011552381,-2.3050325713333324,-1.733844302455714,25.46905208690476
2.605494651,1.9832019990285712,-2.545571100333332,-1.715874035660476,25.23141336509524
2.622298841,2.0230367481714286,-2.630384490666666,-1.5670012798461908,25.183203563238095
2.639108523,2.102036647838095,-2.6598691939999988,-1.355830544017619,25.206172197047618
2.655919335,2.279883999171428,-2.6430369330476178,-1.0843736382604763,25.31579049133333
2.672708785,2.5392604541047614,-2.642073631142856,-0.7411060839380952,25.45638431895238
2.689531172,2.8372220098809526,-2.417768569238094,-0.2579208438095238,25.855754823238094
2.706339177,3.077149846690476,-2.116346994952379,0.017757495666666696,26.247126202285717
2.723146439,3.1398826454047617,-2.1554073606666653,-0.026246981519047596,26.22018610657143
2.739955032,3.089145826395238,-2.34912731542857,-0.2026400136142857,26.019578793238093
2.756762397,3.0273419377,-2.500192052095237,-0.1627560196952381,25.86312321180952
2.773568732,2.974313798395238,-2.583825792571427,-0.21882633325714282,25.782369848952378
2.790376959,2.9128960498800476,-2.6473741078095223,-0.35522104403809523,25.732786552761905
2.807183093,2.8381768337276667,-2.665034112571427,-0.3868463602761905,25.719932008
2.823998583,2.746888480013381,-2.6387134278095226,-0.3488185628476191,25.73765874990476
2.840798216,2.666098781994333,-2.656410262571428,-0.3821539079904762,25.73255038752381
2.857605549,2.125109927994333,1.5978809993333343,-1.5521473426571428,22.342140205142858
2.874412037,1.427510471565762,6.44321205552381,-1.8844933051809523,18.516837291333335
2.891225839,1.140344602708619,9.750665756,-1.899747359895238,16.267084519428572
2.90801481,1.0501379285514763,11.556922640761906,-2.6244281754666665,15.274157860380951
2.924835205,1.0090299078324285,11.887220542285714,-0.33482689512380964,13.478804589047618
2.941637471,0.9590180743229049,12.049293405142858,0.8743385416380951,12.989967164285712
2.958449951,0.9639436545610002,11.907609349809524,2.154345245290476,14.114530143952383
2.975250419,1.1705676061800476,10.530189696333334,3.261207790385715,15.273429247714287
2.992065696,1.5792279497514758,4.931158745857144,3.5877365439095237,19.78418133485714
3.008872173,2.334060512513381,-0.6719008412857138,2.5310080219095235,24.16350401342857
3.025679843,2.350395636561,-3.748579980333333,3.1825771839095234,25.964115123428574
3.042490634,2.517493863656238,-4.87219606247619,-0.16950229847142884,27.754009027714286
3.059296521,2.3307608789419523,-5.672737077571428,-2.226776594709524,28.352675611047612
3.076099766,2.3758366815133805,-6.1172881819523806,-2.221269693233334,27.954845991428574
3.092907078,2.4923098510467145,-6.345692408714285,-1.7937136780428573,27.882319720476193
3.109724502,2.5963169731229048,-6.375932740142857,-1.3311360909428573,28.030205182380953
3.126520401,2.717510925618143,-6.321764765857143,-0.8036125733238096,28.220023045714285
3.143333166,2.794051399990476,-6.11091509442857,-0.23262537141904782,28.52627388142857
3.160137101,2.9767475409523807,-5.758243062523808,0.3438847854857141,28.98043207047619
3.176951697,3.2191016671428567,-5.326750983952381,0.7810952090571426,29.47074153666666
3.193753444,3.4032502399047617,-4.853103911571428,1.190095378723809,29.96594513666667
3.210561937,3.5321871607666666,-4.421459653476189,1.4016982141523808,30.371659118571426
3.227368253,3.6434370532280953,-4.106159802047618,1.5408639562000002,30.638890799523807
3.244178037,3.7695830696066666,-3.9327211396666657,1.5739664344857138,30.785327025238093
3.260992399,3.8626457585019045,-3.8013278887142845,1.4663808056761904,30.92409823809524
3.277791766,3.9082816630923807,-3.6748777134285704,1.2777619527142856,31.059805816095242
3.294598153,3.9303361820447615,-3.5469051106666662,0.8951435595238093,31.121033475142855
3.311404703,3.7853458968066667,-3.0864121593333325,-0.5284519254761906,30.317953783714284
3.326114827,3.381680649378095,-1.6412779507619042,-1.8585941510952382,29.19707017180952
3.342927526,2.7403651893304763,3.869663465428572,-2.473662495904762,24.55796235147619
3.359730042,1.6677708704733334,9.24794592161905,-1.812306750666667,19.883478280571428
3.37653624,1.281678025997143,11.996637480666667,-3.311931593047619,17.880881049619045
3.393327053,0.6911249068542857,12.512891519666669,-0.7944450206190476,15.455985084857142
3.410152166,0.46644887680666663,12.63621614095238,0.8601152842857144,14.106945909095238
3.426949572,0.17049885009238097,12.731261344238098,0.9913704511904763,14.167092467333335
3.443765287,-0.04931398019333334,12.528181848142857,0.9761970614285715,14.007952669857145
3.460568514,0.3519456918542857,10.461263021,1.0411927817619049,14.904689952238094
3.47737887,1.8720736241876192,5.426186198619048,1.5297309332380953,18.886771447476193
3.494191079,3.5284228858066666,0.5340515776666673,1.7808718455714287,22.485357994619047
3.510981022,4.23447654014,-2.3763103028095225,1.3687467008714285,23.611873159380952
3.597134864,3.8848954347590476,-2.8365805937619037,1.0662568184666665,23.10423459795238
3.613942787,3.6640180825209527,-3.291108267095237,0.7304993301809524,22.620848703666667
3.63074899,3.5169007572780955,-3.610058557095237,0.6641387515290477,22.30763591604762
3.647554299,3.4232442031500003,-3.7258124575714273,0.7510112837957144,22.196032793190476
3.664362669,3.2659171805809524,-3.5259621932857126,0.94704985351,22.398327997952382
3.681174823,3.126172746971429,-3.269061678523808,1.2178898398433335,22.653765457000002
3.697966623,3.027025540714286,-3.0128355475714272,1.452019586605238,22.906921319857144
3.714786214,2.9504918598571432,-2.7742523461428563,1.5960080681814288,23.14116779414286
3.731589447,2.888867293142857,-2.6246110818571418,1.67015365631,23.291068182238096
3.748397887,2.826871514380952,-2.5279489237619033,1.7064596458576191,23.394781827
3.765207703,2.783947802761905,-2.484047525666665,1.7524542398242855,23.44172187161905
3.782014059,2.7456482592380955,-2.4423388519523797,1.7987270399195237,23.481015975380952
3.796741646,2.6627506756190478,-2.3288696372857127,2.2589133253480957,23.35304271157143
3.813529145,2.587032187571429,-2.1951990347619037,2.5590553580909523,23.365681702047617
3.830335166,2.5208706912857144,-2.0786642566666655,2.578532785076667,23.494634819714285
3.847131828,2.439871033047619,-1.9316339484285703,2.4776106319528575,23.657827818714285
3.863951684,2.260881480761905,-1.6078159689047609,2.1121835749814286,23.829634967619047
3.880758812,1.4710017272857145,0.377434685857144,1.5692536757814286,22.73137258857143
3.897565083,-0.4058690185238097,5.179491952000001,0.6638499597576191,18.42641328261905
3.914374022,-2.3174222992380953,9.558495726333334,0.28183025832904773,14.369496651666665
3.931180846,-2.7909892628095236,9.996419157761906,1.4901535666004764,14.229081296904761
3.947978978,-0.8133584657619048,4.332238310619049,2.8009519733861907,19.298301290238093
3.964795807,0.9276612031904761,-0.3860444346190472,3.5374034231957148,23.276438908809524
3.981604676,2.284210954190476,-2.619312173190476,2.2520224382285714,25.07746096166667
3.998411266,2.981504235619047,-3.215940771,-0.3302574712285714,26.99742362547619
4.015216859,3.334877252238095,-4.011414641999999,-1.3576905885619046,27.084928579285712
4.032024446,3.574963081095238,-4.670112701333333,-1.5645996774190476,26.445796814238093
4.048834576,3.7270422205285714,-5.082667306047618,-1.4075905640380952,26.08649750757143
4.065638985,3.8743377750142853,-5.258582978428572,-0.9459634863285712,26.06877831566667
4.08244678,3.9935113926238093,-5.178800946523809,-0.39765741707619023,26.30010530423809
4.099254301,4.061894161004762,-4.931044352238096,0.06487558570952398,26.637205995666665
4.11606431,4.0559646569095245,-4.449005854142857,0.4198453199333335,27.161452045666664
4.132864278,4.059758679861905,-3.8964544483333334,0.5855078810761907,27.703870429476193
4.149674047,4.059677401814286,-3.334614436333333,0.6546768148761907,28.251386468999996
4.166485509,4.00390202057619,-2.8841723038095237,0.6437966170857145,28.700102082333334
4.183292267,3.9255818579571424,-2.620039622380953,0.6333412159095241,28.97518469090476
4.200099249,3.875622675242857,-2.51110403952381,0.6582831797190478,29.093609350904757
4.216906002,3.86893476162381,-2.512545359047619,0.6715144713761907,29.09477621519047
4.233715176,3.8754513999095237,-2.5531120759047616,0.6474837689190478,29.056467001857143
4.250522601,3.848882714671428,-2.547191347857143,0.574054462561905,29.077417529238097
4.267328423,3.795575692338095,-2.432351090095238,0.17197839984761926,29.099809073000003
4.284135516,3.183751792957143,-0.49261776657142886,-1.2097416320095236,27.543922715047614
4.300944808,1.1540092567190479,5.071306523857142,-2.7108223609142854,22.427089880285713
4.317752572,-0.6805386488999998,9.737311522428572,-3.4900465522952375,18.433029375047617
4.334559285,-2.1331842911380954,11.885326771952382,-2.237913960638095,16.57597285647619
4.351365738,-2.8972303923285714,12.185565608333334,0.26750830250476215,14.386782418619047
4.368167968,-3.2284502471380954,12.435918717619048,1.1830644836476192,13.766321122952382
4.38498018,-3.259335148804762,12.362192267952382,1.8995887667428573,14.155016536571427
4.401777904,-1.5775828757142853,9.938903922666666,2.926766759219048,16.598527999428573
4.418595348,1.6643061584666667,5.525918802190476,3.924959954933333,21.054493668000003
4.435402976,4.472971593142857,1.9914643655238096,4.18763474064762,24.17041635942857
4.452211143,5.821872087380953,-0.4471033863809527,0.44909904107619053,27.124644063714282
4.469017722,5.898979539571429,-1.6365451355714289,-0.9089076180190477,27.13880962752381
4.485825035,5.702034292380953,-2.6119285989523813,-1.4422305426857145,26.657509100380953
4.502620777,5.5089637444761905,-3.5811748842857143,-1.8237726917238095,26.119113991333332
4.588769654,4.96240441052381,-3.8048060166666677,-1.7297304075809525,26.20696745895238
4.60557773,4.396768820190476,-3.763178405238096,-1.5450871332952383,26.565673428
4.622380291,3.9415782069047625,-3.8432511257142856,-1.5441546186285717,26.79615212847619
4.639194531,3.5554735325238096,-4.122012535333334,-1.7548852819809526,26.935301619428575
4.655992669,3.196637812476191,-4.509170435333334,-1.9520505951809524,27.05815631085714
4.672805575,2.878560588761905,-4.9132621057523815,-2.1202411368952383,27.171111275142856
4.689614393,2.606642359904762,-5.329555919842858,-2.2619503510380956,27.26318272233333
4.706422886,2.3679585230952385,-5.753963549595238,-2.369924051561905,27.315771115523813
4.723228195,2.133147489571429,-6.198276156119047,-2.4360160090857144,27.317649853142857
4.740041732,1.894347531571429,-6.687927620478049,-2.5538040059904765,27.27247606314286
4.756842026,1.640853609476191,-7.169346848939953,-2.7351823876000005,27.213922306
4.773653407,1.3266392890476193,-7.484856525892334,-2.894694669028572,27.30053130147619
4.798857763,0.9505726724761907,-7.652783791082809,-2.881647427990476,27.468416266190474
4.815674953,0.34154192619047646,-7.573421444082809,-3.4487160956095244,27.422110213333333
4.832479784,-1.840165592380952,-5.383613211654239,-4.691836459547619,25.01219120666667
4.849284745,-5.477254277380952,-1.4801029024161434,-6.257666383785714,20.19538087409524
4.866093208,-8.547171116238095,1.3719943023457613,-6.853180931023809,16.52339108957143
4.882901313,-9.686091627857142,2.951841405602904,-2.4203991662619044,13.764570041952382
4.899709672,-8.128792331904762,3.7203848081267137,-0.24169086245238058,14.670076565761907
4.9165148,-2.4770665605238102,3.9289948432695714,1.2706904643095243,19.57222171909524
4.933312884,2.5924178778095235,3.4696656128409997,2.275931495071429,23.863469477666666
4.95012987,5.3603648025714286,2.2643360356981423,0.5399700578333336,25.506817278142858
4.966940723,6.519711610142857,1.173899781364809,-1.1475490724047614,25.977703093380953
4.983745187,6.48571943347619,0.8805949972695709,-1.2691057518047615,25.889057792904765
5.000553293,6.249929316809523,1.0314343487457613,-1.462753318138095,26.215738838142858
5.017359661,6.221200513952382,1.0310017496029042,-1.663514114138095,26.333249747666667
5.034172994,6.278199448238095,0.9993599029886184,-1.77737192837619,26.335797634809524
5.050963491,6.298355127761906,1.103778430507666,-1.7327777994714282,26.305033053857144
5.067785717,6.25738636895238,1.2235789584029042,-1.4983626770095233,26.292257730523808
5.084587089,6.13526383157143,1.2764700652362375,-1.0138073417714282,26.41420770290476
5.101385124,5.89330516804762,1.248921320671428,-0.3635528878666663,26.728491241952383
5.118206129,5.579556081904762,1.13073188927619,0.4229098278000003,27.179967480047623
5.135015894,5.360448999238095,1.0086399942142852,1.1116394773238096,27.49290021671429
5.15182178,5.266444095904761,0.8510223769952376,1.380452133714286,27.600478881
5.168625156,5.273755144952381,0.677065576923809,1.3210068433666668,27.551650172428573
5.185434941,5.239304659238095,0.5637086346857136,1.157068900066667,27.573556842428573
5.202230576,5.124379501857144,0.5648356335904756,1.0401752793523813,27.71566874214286
5.219046249,4.927717030238095,0.6025076423999995,0.6066124783523812,27.914657433333332
5.235858588,4.331961907285714,0.7214613188571424,-0.7730619110285711,27.31888980619048
5.252665594,2.3874283322380956,0.2544592106666662,-2.1635882286,25.877692674761906
5.269471594,-3.3848542705238094,0.11606223228571383,-3.4783146722666665,20.945384429047618
5.286280219,-8.525974000571429,0.6047139109523805,-4.396515301409524,16.658238039999997
5.303084979,-10.929458345190476,1.1777237767619044,-2.97981997907619,14.47049985190476
5.319890124,-11.629373027666666,1.5415866659047615,-1.7020934424095233,13.314223244619049
5.336710122,-11.115074884,1.3198396819147615,-1.7034755662666663,12.793940833380951
5.353509216,-9.082058770190477,1.2546013650576184,-0.3160684905523806,13.309695037666668
5.370315673,-3.8143241063809525,1.3419468289623804,1.6933676174476193,17.44280603052381
5.38712327,1.0015231993333331,0.9991118056623804,2.874934537209524,21.24094790004762
5.403932465,3.5363037926666667,0.8603274595195233,3.380998679733334,22.78579158766667
5.420729575,4.544959522666666,0.5512462286623806,1.7886112306047623,23.970086365285713
5.437532695,4.888709250047619,0.44681189740047567,1.7604998636047622,23.67446785995238
5.454354177,5.026342437190476,0.48777266909571376,1.7217385884619048,23.538134915190476
5.47116393,5.224664551476191,0.6243489413338091,1.3355046116047622,23.181468929
5.487964876,5.371598379095238,0.7064224141099995,0.787898421557143,22.894067073761903
5.504772027,5.344592956238095,0.7707170957576185,0.4296596564142859,22.894793764714287
5.521587385,5.118130864333334,0.9236565033528567,0.3188792583809526,23.152558687571428
5.538389947,4.897809844809524,1.0642382360671423,0.3724751078095241,23.38459210804762
5.555197473,4.737346647666667,1.183683497590952,0.5459705821380955,23.53185345280952
5.572004877,4.588906968142857,1.282702979590952,0.7893181588400002,23.64401829709524
5.588815636,4.385679834142858,1.4112210273528565,1.0716349911685716,23.809665245190473
5.605621698,4.160487446333333,1.5207314831623804,1.356749642792381,23.99377967757143
5.622411932,3.9730200981428574,1.5341552438766664,1.575333641006667,24.12106169852381
5.639236842,3.8139679305714287,1.5153011991623804,1.7954913437685716,24.199551896142857
5.656039119,3.694569586619048,1.5167776062099996,1.968176206244762,24.243343879476193
5.672836585,3.571103117714286,1.540399000733809,2.112947532387619,24.29529829295238
5.689640124,3.311632791190476,1.64550791467619,2.1282373839590476,24.542523864666663
5.70646301,1.646955580238095,1.4451007956285709,1.0650380796733334,23.512131142285714
5.72326247,-3.503677459761905,1.411466314628571,-0.5562407570980952,19.145428172761903
5.740080646,-8.346248627380952,1.9079610165809517,-1.3913160448552382,15.289518588000002
5.756888467,-10.925692604523809,2.0978100242952373,-1.6837356033552382,13.759758304190475
5.773698923,-11.881393433619047,2.398498892771428,-0.14112057573619052,12.525513625952382
5.790503213,-12.054240727285714,2.5107273544476185,-0.40032538345523816,12.597641996857144
5.807306436,-11.796086698095237,2.496592825358095,-0.53152590136,12.313598833761906
5.82411027,-10.536186014761904,2.487855749453333,-0.01902449116952386,12.693676034714285
5.840925609,-5.138319858571428,2.13694369507238,1.654241096687619,17.25598281852381
5.857731314,0.5244348371428574,1.7671204890247616,2.9718757246876186,21.79305242852381
5.874537893,3.59987756,1.33519996059619,1.4506248411638094,23.834046855190476
5.891346203,4.747175873523809,1.1153093944914279,1.3320235757352383,23.520342344904765
5.908154369,4.815995691619047,1.2197548292533327,1.5556740766447619,23.524344042523808
5.924972862,4.664910882571429,1.408725894586666,1.4937607509904762,23.736820389190477
5.941766035,4.516898766857143,1.4932822471104759,1.1060750547095237,23.975491912523808
5.958577936,4.377177759238096,1.4232194167771421,0.581473526847619,24.227901483
5.975384171,4.229741889714286,1.47830065939619,0.2580557667761906,24.454349199666666
5.992191676,3.9433133473333335,1.6837232197295233,0.0068126863952381695,24.82500981966667
6.00899919,3.6298806082857142,1.9611141141580948,-0.03560510098571422,25.20308891490476
6.02580746,3.5017490140000005,2.1386371083485707,0.23754260691904766,25.375206682523814
6.042613573,3.4462517082857147,2.2934864786342852,0.8040210183000002,25.60887299347619
6.059420791,3.4534680254285712,2.4814210589199996,1.4187174187761906,25.870381696809524
6.07622665,3.5121326653333336,2.6491675801104755,1.7394287873571428,25.951604403476193
6.093036566,3.5985603085714284,2.7571087307771425,1.8024125159714286,25.916761540619046
6.109839881,3.6750658335238096,2.8352327771104755,1.7687453858428572,25.87092713014286
6.126651926,3.669804503142857,2.9383497094914284,1.8230750309014288,25.900532009809528
6.143447568,3.612757113333334,3.0543662563866665,1.8776182479252381,25.980656805666666
6.160266589,3.454659959714286,3.195527360419047,1.619178048557619,26.060653558999995
6.177060566,2.3334473185238096,3.2706275382285708,0.8927786437719047,25.530667674666667
6.193879302,-2.9225243606666664,3.6829566784190475,-0.7958959084661905,20.84403842247619
6.210675944,-8.321330229857143,4.106867932038095,-2.115442539942381,16.070005548857143
6.22749586,-10.82008427695238,4.6084502594190475,-0.5026169875519046,13.555536928809524
6.244289714,-10.442781335238097,5.0690729276666655,0.043643937019523925,14.07080521242857
6.261107544,-6.232663586190476,4.497660001047619,0.47103078863857156,17.045782636238094
6.277919181,-1.8443110561904767,3.935752675571428,1.0113308115433333,19.812730487666666
6.294726025,1.030728816190476,3.522232271333333,1.4835539798766668,20.936625824333333
6.370358586,0.8786381985714283,3.458315128333333,1.9785476667909527,20.947301056714288
6.387165288,1.1230881776190476,3.4005193426190474,2.4225013625528575,20.634089637190478
6.403964941,1.6983768139523807,3.143473960090476,2.6534881790766667,19.97726209895238
6.42077678,2.1988559217142853,2.9293853158047614,3.0549409021242857,19.50611280890476
6.437589627,2.426627635523809,2.9978461436142854,3.4433153556957143,19.557920243190477
6.454387885,2.617041065095238,3.0951618637571428,3.545283848457619,19.550671715095238
6.471198055,2.761113734095238,2.8751522757095236,3.3414039471242862,19.249385584619045
6.488000902,2.9066677316666665,2.566666296580952,2.7303549308385717,19.087633873619048
6.504817666,2.941906179285714,2.4428330262476186,2.4569332686004763,19.046614116095242
6.521623604,2.904530320523809,2.645928916438095,2.1915450835147623,19.249321075619047
6.538432432,2.832370508095238,2.8691356408666664,1.7326433602657145,19.569543736095238
6.555225921,2.7405854403809515,2.8912984642952377,1.3332372393895242,19.775715838000004
6.572043873,2.734399454619047,2.825100813533333,1.0815060480428573,19.83020096442857
6.588857004,2.9211672598095233,2.698154931902857,0.9701160988285716,19.662609535809523
6.605661754,3.3368857017095235,2.605770613383809,1.0321809281476193,19.267720956604762
6.622469819,4.268486612804762,2.502346220402857,1.164239332874762,19.428109273080953
6.639272137,5.929294630852381,2.2562433537123803,1.335314824531905,20.579303416461904
6.656086559,7.1191791799,1.7569366522361904,0.9957483780604764,21.586866007890475
6.672891339,4.966706728947618,1.9529801776647617,0.1805713233461907,19.385621820271428
6.689698285,2.431864374185714,2.0198281946171424,-0.2684085992919045,16.820918609319047
6.706504987,0.8955100370428566,2.0150372527123803,-0.319298681720476,15.294707791223809
6.723312961,1.8835752571047613,1.8199053093790472,-0.21233225434904734,14.495660075461904
6.740121677,1.9888983219619043,1.712510526093333,-0.20033296515857119,14.383006530461904
6.756930241,1.5718247089619044,1.7732050616695232,-0.09361220540142831,14.796669819176191
6.773735397,1.215972990723809,1.7463842430504757,-0.2968118077347616,15.05431337684286
6.79054392,1.065148943580952,1.4918392072409519,-0.8100551140490473,14.863667027795238
6.807349666,0.8830959225809519,1.2030270240504757,-1.5249541430966664,14.688633324461906
6.824159816,0.7371934250095235,1.200540125288571,-2.0535401674299996,14.749526420652382
6.840963588,0.5546685170571426,1.3331049140838092,-1.8751083045728567,14.827398744033335
6.864064521,0.4586374190571426,1.3862227229409518,-1.7596665394299997,14.896831565842856
6.885072578,0.379328500485714,1.2925704291790472,-1.2901782479061903,14.873030974890478
6.901892082,0.34730820381904737,1.1915973453219042,-0.7249198925252378,14.707431426795237
6.918703265,0.3431500476285712,1.2800882175123804,-0.38704991912999975,14.632950226795236
6.935505985,0.30037275924761886,1.4302162130838092,-0.3400115456538093,14.69092423965238
6.952317701,0.10379087329523783,1.6433900907142853,-0.4636167515585712,14.966445817842859
6.969120879,-0.2808079495095241,1.8153880834714282,-0.6897568078776188,15.422076627333333
6.985931824,-1.0013484501761907,2.0560605156904757,-0.7798982177952379,15.176627789380953
7.00273702,-1.8349182035095244,2.719024961714285,-0.30568912469999987,14.818133902238095
7.019548523,-1.029404730652382,3.6124341229047614,0.7250354575809526,15.927815720333333
7.036352306,2.2179748450619043,2.8511067991904753,1.5221728089619049,19.271141360333335
7.053160809,3.8548291079190475,2.8029476312857136,1.9388993754571429,20.943112573190476
7.069968716,4.310396694585715,2.9086840033190473,1.4196639007428575,21.484424397
7.086774416,4.196083251095239,2.8073875557476184,0.42923713312380957,22.22293491990476
7.103581937,3.9448774433809524,2.5630682615571425,0.23801805302857154,22.503282180142858
7.120391151,3.4599820095714287,1.8686858666523807,0.5401118654142858,23.17809290585714
7.137196583,3.2977324443333336,1.7545940048571422,0.2611711991285715,23.360458015380953
7.15400425,3.2316020333809528,1.9402960165238088,-0.134668724795238,23.57371035109524
7.17081169,3.2455097386190475,2.1721764089047615,-0.017778010509523726,23.611722401571427
7.187621866,3.230254401,2.416843734571428,0.31039276587142867,23.68832692395238
7.204428004,3.216684614333333,2.6773026807619043,0.6072383154904764,23.810332936809523
7.221233713,3.2348443895714287,2.838882505380952,0.7372635319809525,23.863137857761906
7.238043137,3.3310446059047623,2.8146009127619043,0.5252506506619049,23.74337205490476
7.254851472,3.4270557679047613,2.806189868619047,0.36555968018571433,23.651177518714285
7.271665239,3.516858782428571,2.8293436731904755,0.3572957856952382,23.584510106333333
7.288462124,3.5617314295238094,2.8730470929999994,0.4919757048857144,23.532599144428573
7.30525986,3.5579970679523805,2.8901883897619043,0.6608792600761907,23.484995451095237
7.322081032,3.4898486820476187,2.8820958728095234,0.7882270813142858,23.489763156333332
7.338874331,3.194131896809524,2.7661289510952374,0.7271956602666668,23.663408574761906
7.355692855,2.104190553952381,2.225055118095238,-0.03927925673333326,23.04067833857143
7.372514082,-1.185200963666667,1.491919236380952,-1.1045107276333332,20.470894951428573
7.389310047,-6.326617831285715,2.4107000629999993,-2.009967089109524,16.18705462047619
7.406116908,-9.425925800000002,2.6813076479999998,-2.733189776252381,13.930856169523809
7.422921697,-10.783126218000001,2.8055055596333327,-2.6028296270619045,13.363878310952382
7.439728837,-10.925237632952381,3.2600652037285704,-2.0774466766809523,12.934869816190476
7.456542202,-8.722569034380953,4.103201627823809,-1.7435330097761903,13.876683412857144
7.473347474,-2.3032929324761913,3.9351964563952375,-1.2302863826333332,17.854873570000002
7.490154456,2.3764774008571425,3.423145384761904,-0.3017317116333331,20.91079496
7.506958793,4.600507531809523,3.1211633168952373,0.39685920279523823,21.802127545714285
7.523767647,5.438321453904761,2.9226362759428564,0.4888305661428573,21.528781396952382
7.540577253,5.6352171896190475,2.6921011661333325,0.29081240128571445,21.246599139142855
7.557382542,5.686768735999999,2.3806501170857137,0.03729422861904777,21.06764667947619
7.574191349,5.3900995936190474,2.1566544087999993,-0.04050308207142842,21.264849205190476
7.590998814,5.055366765857142,2.0724953297523805,-0.8351987659904762,21.878596046619048
7.607804986,4.9027454057619035,1.899532675514285,-1.3085302060380952,22.148585150428573
7.624622182,4.782094977904761,1.6225852680238086,-1.7238420875142857,22.34586482709524
7.641421586,4.683261076523809,1.4001690658190469,-1.9496989252761905,22.442273795666665
7.658228358,4.5903508548095235,1.2827221663904755,-1.9871546202761907,22.497071687571427
7.675034736,4.467202254619047,1.2798321245333326,-1.8411596845380953,22.59618556328572
7.691849357,4.333940483380952,1.3193006286285707,-1.6818095050285715,22.71309961852381
7.708651878,4.1549884481428565,1.4412950899619041,-1.595909521885714,22.90345200566667
7.725459557,4.013585567666666,1.6510111375333327,-1.6132980927619047,23.107867305190478
7.742264661,3.7991901809999993,1.9100518111047615,-1.2700075139904763,23.312046062333334
7.759080442,3.5703246939999995,2.166177442914285,-0.9003605673714287,23.547253169476193
7.775869974,3.3706465229523808,2.4005333240095235,-0.4562349717999999,23.718811709
7.792686817,3.1051323760952374,2.447941064628571,-0.11992845659523807,23.810926021380954
7.809494212,1.1113281712857137,2.0629007587238086,-0.5567102263095238,22.69822183566667
7.826296768,-4.586891492,3.035340592771428,-1.6959678617380953,17.914852289952382
7.843110113,-8.883241199,3.6982402574380946,-2.6510052965,14.52661323804762
7.859902781,-10.916177976190477,3.839801135495238,-3.2392066376904762,13.37925405757143
7.876724254,-11.605566137809525,3.838010589257143,-3.5305817411333336,13.509539677285712
7.967062881,-8.412200495904761,3.359344363161904,-5.532290997942857,16.745213924619048
7.983869114,-7.2729160441904765,3.013291512161904,-5.737756553133333,17.07072078142857
8.000678298,-6.721205415904761,2.8513285943095235,-6.129489257219048,16.76494637
8.01747375,-6.604287805428573,2.6926785934047612,-5.1134777466,16.311523442380956
8.034292679,-6.754805632571429,2.5187223695476186,-4.609412511138095,16.257813165238094
8.051100968,-6.856091612095239,2.4022943235619048,-4.345987683185714,16.233484651904764
8.067908118,-7.01775144352381,2.3142741350952374,-4.06710056457619,16.321122011904762
8.08471597,-7.324940022571429,2.24021320967619,-3.72300002114762,16.62558164142857
8.101521024,-7.699599697333334,2.2411721972952376,-3.2549968274571435,17.106716134285712
8.118332689,-8.010797977333333,2.2164686719619042,-2.699505664014286,17.565079237142857
8.135136197,-8.122901757809526,2.0184828298190474,-2.472852843109524,17.64317681952381
8.151955503,-8.18652868257143,1.7709173502952378,-2.397520042561905,17.636000212857144
8.168753223,-8.165167876857144,1.5212342880571423,-2.543827533666667,17.53962788571429
8.185563985,-8.084775720666668,1.2750487809619042,-2.8578840323333337,17.40864563190476
8.202363433,-7.989572048761906,1.0318477862952378,-3.2268741243809522,17.27872575904762
8.219175526,-7.928680760952382,0.8411036473904758,-3.4483363400619047,17.21283066095238
8.235985291,-7.870214621666667,0.6849111573904757,-3.4973839236809527,17.138126170857145
8.252790059,-7.801121417000001,0.5652595105333329,-3.4537764162523814,17.03065657447619
8.269598084,-7.7187519759047625,0.49581979281904714,-3.4693241459190474,16.95618203952381
8.286406445,-7.671424661761906,0.48194200367619,-3.5442371026809525,16.962011153333332
8.303214082,-7.6707612904285725,0.4677850433904757,-3.569824729538096,16.973135560904762
8.320017192,-10.926372369428574,0.9269280235333329,-1.7571992533,13.867080725666668
8.33683119,-11.983412152428572,1.2821735910095233,-1.7374986579666665,13.549403490904762
8.353641065,-12.131623949523812,1.3913625734333328,-1.6224196864428573,13.557692003761904
8.370442517,-11.829068184333334,1.401600227528571,-2.1552611418238095,13.358462455666665
8.387250248,-11.431773208666668,1.5078769780523804,-2.432836651714286,13.071450869
8.404058792,-11.06593824604762,1.6347023418999993,-2.4837310483809523,12.75694734295238
8.420866388,-9.96707995752381,1.7108656508571423,-2.0516588687047617,12.612814388666667
8.437660232,-5.1674661865714295,2.1484612310380946,-0.6561777138476191,16.037676457238096
8.45448024,1.401683920095237,1.3819545818952377,0.09501387948571435,20.755298748190476
8.471292475,5.522129261999999,0.9881572297047614,-0.09197672203809522,22.940803175333333
8.488090438,7.2346772910476185,0.6912321504666662,-2.0934120248,24.264807568190477
8.504899766,8.091091268333333,0.6591960446809518,-2.6573247454761906,24.101004055333334
8.521708045,8.461503232190475,0.5898162268142851,-2.419707389047619,23.749327126142855
8.538520605,8.347391922190475,0.46310732190476134,-1.8261889502857143,23.907598638523808
8.555324431,8.048973059809523,0.4165225795238089,-1.306637468761905,24.18038873138095
8.572130593,7.777251764857143,0.3487572868571423,-1.096792294847619,24.386485651857146
8.588947061,7.452637558,0.22988776647618994,-0.9960480020380952,24.6588280457619
8.605747008,7.010361602333332,0.18965094712857086,-0.8101879472285715,25.030943893571425
8.622551044,6.595607552047619,0.21840444917618992,-0.5132660014666667,25.363564394238097
8.639371112,6.207116284619046,0.29038255269999946,-0.04103216108571427,25.638425621380946
8.656175771,5.921361036142857,0.313825326271428,0.3037843760095238,25.83739361619047
8.672964772,5.6940531489523805,0.32785486317618995,0.5370808384809523,25.98089150047619
8.689794302,5.50727660195238,0.3811956615095233,0.7220521369571428,26.085639235714286
8.706594524,5.370982555047618,0.4877956565571423,0.8209864694809523,26.174071523333332
8.723400717,5.269436403666665,0.6042198140333328,0.8810788732428573,26.24624872238095
8.7402063,5.199956665666666,0.6952386270333328,0.9091648997666666,26.30309655142857
8.757012923,5.102606045571427,0.7738989590428567,0.613346094147619,26.59162851461905
8.773823102,4.330731935666666,0.8670690455666661,-0.05817023351904769,26.5011818317619
8.790631411,-0.014049167761905764,0.5279357149476185,-1.602619403757143,22.623831333666665
8.807437809,-6.032012985142858,1.2877874203761899,-2.884691857161905,17.259764556285713
8.824240971,-9.677083333380953,1.7697538931380947,-3.359206216638096,14.502088123904763
8.841052658,-11.086656434285715,2.2434526908047614,-1.5786135364476188,12.918689606285714
8.857858077,-11.658444177619048,2.3861153863047613,-1.1931201673523806,12.852679845809522
8.874667435,-11.812539418619048,2.527002998695237,-1.6067673648761904,13.087328901666668
8.891461298,-11.500350361904761,2.622869905890476,-2.3188896008285718,12.822843297857142
8.908280849,-11.046098391380953,2.6063094308428565,-2.7552598827809525,12.365757899142858
8.925089159,-10.477573394952381,2.5670382521428565,-2.615506308361905,11.837756464333333
8.941897212,-8.259915579238097,3.0607671339523805,-1.4644950231238092,12.944698129095238
8.958688116,-1.5493668125714297,2.6742796442999994,0.513121457209524,18.292160780523812
9.042741506,-1.3731861092380964,2.7755691266333327,0.5769725298761905,18.146794750999998
9.059546366,-1.2882573240000013,2.7407350142047613,0.27831963120952385,18.065942247666666
9.076334596,-1.3252219220952395,2.744167061014285,0.14449503868571434,18.10265398147619
9.093164329,-1.4918233759047632,2.7765731754428566,0.20266119063809526,18.271797161000002
9.109962201,-1.781763619714287,2.7498277766333326,0.39023931816190477,18.546246082904766
9.126775068,-2.07408791304762,2.78777052677619,0.8611361979714286,18.836342168619048
9.143588677,-2.247854639714287,2.789345905919047,1.5600494770190476,19.049890378619047
9.160392764,-2.4726311802380962,2.87600101177619,2.270266703114286,19.33753311290476
9.177201064,-2.7745804541904775,3.244942069061904,3.071492660447619,19.538692723380954
9.194008437,-3.132484706619049,3.736371466204761,3.3121316090857147,20.026350253857146
9.210814427,-3.3548510850952393,4.016181894823809,3.165509036419048,20.355507801476193
9.227621577,-3.445573895809525,4.072988958680951,3.069615596633333,20.47714171409524
9.244430954,-3.4439788528095248,4.011520402871428,3.0193523847761905,20.459366822666667
9.267531439,-3.346031641333334,3.986230095347618,2.8795060939190473,20.403614486285715
9.284349784,-3.230017001809525,4.024815462966666,2.7699382019190475,20.375826167666666
9.301143545,-3.1025103823809537,4.067030446966666,2.7236161967761903,20.332654565285715
9.31796427,-3.012737408619049,4.181340314204761,2.680476012442857,20.343521528619046
9.334755241,-2.911697976285715,4.314521999680951,2.3553327884904762,20.54394717447619
9.35157978,-2.9754500825238104,4.49635163952381,1.5722056621571427,21.07791846880952
9.368373818,-4.706214221761906,4.233719360333333,0.09468776225238082,19.773261863571427
9.385191582,-10.80740840147619,4.822715929666666,-2.2888478952714286,14.148139102142855
9.402000914,-10.24526298657143,5.0223618803333325,-2.8641016545095233,14.116167326428572
9.418809782,-8.381647950380954,5.997598160047619,-1.4012916148428571,15.487021910714285
9.435614664,-3.175148078476192,6.863943202142856,0.7593701337285717,19.844783311666667
9.452423808,1.942169212476189,6.711217627614285,1.9569793654476195,23.582776940714286
9.469229945,5.091407617238094,6.725026207280952,2.1645987316380952,25.04139411785714
9.486037528,6.68052757390476,6.3425043281380935,1.5531889766857145,25.03922900833333
9.502852743,7.408402693285713,5.731342119757143,0.38641236482857183,25.098801795000004
9.519652518,7.788536367619046,4.97205433085238,-0.05705321996190437,24.871541611666668
9.536459597,8.086641425809521,3.948061837709523,-0.10156249458095197,24.70390567261905
9.553268324,8.36481301042857,2.811955800566666,0.0019096814952384974,24.438961154047618
9.570078137,8.469789074238093,1.9607707739476181,0.1401367014952385,24.35943296642857
9.586891447,8.400054682333332,1.4125006392333328,0.30159960450952417,24.441665520238097
9.603689701,8.213574387095237,0.968592515519047,0.5252523079380956,24.615444268809526
9.620499785,7.853854747476189,0.6508696840428565,0.9608883287952386,24.915541955190477
9.637304524,7.305742718285712,0.4850422905190469,1.7110904397952384,25.45041692285714
9.654111541,6.56647518742857,0.45846014028095167,2.749357916033334,26.22829797666667
9.670928288,5.923025926476188,0.44865920661428504,3.409778333842858,26.68623849
9.687724962,5.455620198380951,0.4023048106142851,3.8448763520333338,26.822933974285714
9.70454062,5.108593850095237,0.3422175612333327,4.381884524128572,26.682788499999997
9.721333335,4.871000994095237,0.21928097751904693,4.65841933122381,26.653511432380952
9.738150712,4.651118869142856,0.0069661702666659765,4.904838420414286,26.588671426666668
9.754944862,4.280868030999999,-0.4093562880761912,5.149245847271429,26.453092860952385
9.771765175,2.6759727569523792,-1.5522824702190483,3.601490832795238,24.865996005714287
9.788559579,-2.2376661754761917,-2.5939150655523817,1.2434686424142862,20.285700903809524
9.805377786,-6.98850545452381,-2.6418571391190486,-0.2547459885857139,16.261129115238095
9.822189045,-9.684402920238096,-2.853219767833334,-0.8015911749190472,14.424291907142859
9.838980442,-10.84441523361905,-2.8078217822619056,-0.6830332676333329,14.016559770238095
9.855803116,-11.23347207514286,-2.552040517738096,-0.1444977633476187,13.57482704695238
9.872610153,-10.854440439714287,-2.4774882086428582,-0.14305981548571392,13.439428745857143
9.889417262,-8.058759530761908,-2.9280727562619058,0.4188660727523813,15.410195318714287
9.906221838,-3.1932253839523823,-3.2248323162619053,1.1269070368476195,19.254489466333332
9.923032365,0.4449169293809512,-3.1988365622142862,1.5744412288000005,21.783975124904764
9.939843568,2.4101150831904747,-3.0322686235476195,1.655918183976191,22.57803557395238
9.956646569,3.5405207817619035,-2.680281329785715,1.5609789975047623,22.460634036333335
9.973452401,4.5393308686190466,-2.2086955678333338,1.3208687136824766,22.183847973238098
9.990262154,5.782416775333332,-1.6056473736904768,0.8446358215491431,21.95223943371429
10.00707273,7.070939949761903,-1.1056805023095244,0.22914695169200028,21.44004872657143
10.02386406,7.958295572419045,-0.7252885414047625,0.1493803375967621,21.088179772761904
10.04068117,8.400418236371427,-0.4437829225952387,0.2802007992634288,20.86673465704762
10.05747907,8.649462495895236,-0.3004922212619054,0.3462001368348573,20.684282842333335
10.0742994,8.820419970323808,-0.21853161692857212,0.3879100708348573,20.534025675809524
10.09109401,8.854401929323808,-0.1014515897714292,0.6312312284824764,20.47210832314286
10.10791278,8.728868462085712,0.25420569257142794,1.116570007244381,20.6758819712381
10.12472098,8.423460801847618,0.5522484099999994,-0.3903046220889521,22.106206480285714
10.14153004,8.06200320427619,0.8133463066666661,-1.5949001426603806,23.287001370761907
10.15833523,7.786144597609522,0.9673702605238089,-1.7208430086603805,23.586169601238094
10.17513098,7.548524016657141,1.03529674117619,-1.2661706493746665,23.767762539809524
10.19195132,7.275108746228571,1.1121441070809517,-0.6240387531365712,24.074684552904763
10.20875903,6.913055102180951,1.278980556180952,-0.11932989537466639,24.398889388571426
10.22556468,6.144202368609522,1.7552972381333325,-0.09040896106038072,24.609238005380956
10.24235462,3.092928114323808,2.7421383205904757,-1.0913776218222855,22.623547140142858
10.25918115,-1.9326867152000016,3.484036880066666,-2.2680582322032383,18.812363393000002
10.27597321,-5.613518034247621,3.7931892788761896,-3.0589275587746663,16.245389113
10.29279241,-7.545900209009527,3.822654375209523,-3.265237081679428,15.357342463476192
10.30960612,-8.589400428057145,3.6424825108285708,-3.2682898726365712,15.340065309190477
10.32641018,-9.386049634438098,3.2548024755619047,-3.2886116278190474,15.36848340085714
10.34322646,-10.082622710247621,2.5549136415142852,-3.3830402011619043,14.931416319619048
10.36002339,-10.522421292438096,1.7976004578952376,-3.34855382787619,14.410360990523808
10.37683407,-10.53398232287143,1.1525412698476185,-3.0360670656857143,14.320534279095238
10.39363936,-9.582255840633334,1.0390838398476183,-2.4107597212571426,14.865434547666666
10.41045002,-5.803157761109525,1.1449570158952374,-1.5236013842571428,18.05666260142857
10.42725395,-1.1452915103000014,0.35293485560952303,-0.5845204535428572,22.151713727
10.44406519,1.5451117015571412,-0.0734703698666674,-2.7449026447619045,24.846994478714286
10.46086357,2.687453315366665,-0.3432999155809531,-3.3154392355238094,24.82773321061905
10.47767816,3.639211927033332,-0.5979349274628578,-1.757452885333333,23.21939362614286
10.49448552,4.587325323033332,-0.9126808872723816,-0.3585704847142856,21.778885848285714
10.51129281,5.196001506890475,-1.0753478779390484,0.12545357447619057,21.122034642285715
10.52809934,5.4973659061761895,-1.0512998970547627,-0.004749638523809443,20.797293298952383
10.54490637,5.6699882690333325,-0.9660829604261914,-0.41170122493104744,20.507740713238096
10.56171558,5.837922641414283,-0.9268630644261913,-0.7454719882405713,20.281178073714287
10.57852372,5.971189589985713,-0.9276848365023818,-0.8417195250548569,20.15289385752381
10.59532387,6.074510483795237,-0.894346170540477,-0.7299555481977141,20.023699831333335
10.61213582,6.105961254747618,-0.818021100940953,-0.5460744243405713,19.913825939428573
10.62893229,6.040674754747617,-0.7091651850409532,-0.477246273007238,19.938182050857144
10.64575104,5.926624570461903,-0.5669391985885722,-0.538400718007238,20.050298678476192
10.66255889,5.791019984747618,-0.45938008245047696,-0.5543931664500951,20.181877015619047
10.679366,5.667729741414284,-0.4327476358314294,-0.44320461849295223,20.311070116095237
10.6961716,5.383605140033332,-0.4365802797695245,-0.3207226990167618,20.58702757447619
10.71298213,4.995927266366665,-0.45323130843619125,-0.49743059405009515,20.927817024523808
10.72979331,4.494115830333332,-0.4570767560076199,-1.1421428833358094,20.955541926428573
10.74659566,3.262220746523808,-0.7982832895695244,-1.999350772145333,20.48123204166667
10.76340563,-0.7824075330000015,-1.1580587249219054,-2.913736034002476,17.472343199761905
10.84113687,-5.42833709652381,-0.5798320846838102,-3.570827185954857,13.349755165761906
10.8579483,-7.807146684952381,-0.36469517635047694,-1.0855167223834283,10.593983913952382
10.87474861,-8.079551900666669,-0.5863259312552389,0.039823784664190634,10.798129771571428
10.89156154,-4.806992779952383,-0.8984527309447626,0.14019060414038115,14.011669524142857
10.90836885,-0.48562815023809675,-1.0943040909923816,0.47698626342609546,18.306742323904764
10.92518108,3.12304376495238,-1.1429497406114293,-0.3799076506691426,21.797043628
10.94196902,4.600142138999999,-0.9523743497195246,-1.1347942663834283,22.806844717047618
10.95878919,5.0280576894761895,-0.7502906031100008,-1.2184590696428568,22.58005965647619
10.975588,5.151179768380951,-0.715193208448096,-1.4590949074761903,22.54766774552381
10.99239922,5.2054731740952365,-0.7236201500242864,-1.733476715333333,22.60080430695238
11.00919872,5.211952709809522,-0.7040395700861912,-2.064526611761905,22.739304720761904
11.02602094,5.252886182666665,-0.6496075973047626,-2.161907318,22.742517891714286
11.04282502,5.323369345047618,-0.5557312453952388,-2.218733864095238,22.709744799333333
11.0596374,5.343945685999999,-0.42824948394285783,-2.166704004619047,22.696390529333332
11.07643722,5.267326537428571,-0.32351896017619114,-1.9095105527952378,22.817140890285714
11.093247,5.1593756907619035,-0.1574881757190483,-1.9371187544142852,22.941526656
11.11004463,4.894185202666666,-0.11709729396666735,-1.8674782712238094,23.21091284647619
11.12686123,4.598337763619046,-0.09291536034761973,-1.799038126252381,23.501317049333334
11.14367576,4.346513565999999,-0.12012699810952449,-1.7774764354904757,23.745904719809523
11.16047992,4.204794610761904,-0.17112300078571496,-1.7988880360619046,23.892783412190475
11.17728366,4.19430573695238,-0.2547790677190483,-1.872246878395238,23.926291834095235
11.1940901,4.000804537142856,-0.2460366898142864,-2.1456554729666664,24.100177346190474
11.21090102,3.654604207190475,-0.1802851230380959,-2.6234505629666662,24.191262511428572
11.22770525,2.902328286142856,0.025315059152380272,-3.5631222495857138,23.772405815809524
11.2423897,-1.0309715052857156,0.4368099726761898,-3.654067720490476,20.728533237238096
11.26552736,-5.96175368704762,0.9307020633428564,-4.106933877395238,16.706014878190473
11.28233368,-9.898907321857147,1.280051528009523,-3.5472515535380946,13.582749836761904
11.29914055,-11.290690513809526,1.1935475454380946,-3.0407083033952382,12.559763224809522
11.31594926,-11.438120207142859,1.0106727636761899,-2.821244591728571,12.552347405761903
11.33275478,-11.118679342761904,0.9531531972380944,-1.986408835490476,12.625542603857143
11.34956371,-10.495513077000002,0.9493866576857135,-0.7802000616333331,12.895083115761903
11.36637186,-6.98612601509524,1.0019236902333328,-0.04743613544285689,15.137655665285715
11.38317642,-1.7297254527142871,0.3360496121857136,0.5726595262714288,19.263839404809524
11.39999809,2.453701722047618,-0.4669537670047627,0.5238725001285717,22.36255061957143
11.41679235,4.183558939666666,-1.3426088616238103,-0.2337745145380951,23.315078745761905
11.43360084,5.013675847571427,-1.6615885450047627,-0.6228404840619047,22.807731610428572
11.45040631,5.546711898047617,-1.898611830480953,-1.0188533238714284,22.445301365142857
11.46721431,6.0204711407142835,-1.9473469424380963,-1.4564727829666666,22.082244854190474
11.4840282,6.436247121190475,-1.890460063666191,-1.6787242209047615,21.706734823714285
11.50083092,6.729270003571427,-1.6571906673804768,-1.41049782447619,21.440337310857142
11.51763701,6.878756772619045,-1.411597369332858,-1.079725731095238,21.30132933752381
11.53444568,6.826889832619046,-1.08753557823762,-0.7242367495714285,21.389043565619048
11.55124014,6.554049150714285,-0.8082746760471435,-0.3678597950952379,21.70137195942857
11.56805953,6.147988250523808,-0.5672403811566675,-0.08415954466666649,22.13392230314286
11.58486961,5.772016456333332,-0.4314719676328579,0.08729310248095255,22.508110448285713
11.6016777,5.336753185857141,-0.7133291175852389,0.35489125462380966,22.916074519714286
11.61847039,4.888204233333332,-1.2676316623947628,0.5690744943476191,23.368775179238096
11.63528879,4.491930529571427,-1.8182878675376197,0.4384696368714288,23.793725127809527
11.65209618,4.1188659205714275,-2.14938669653762,0.11280007577619067,24.30116492309524
11.66890706,3.783660320095237,-2.318846845585239,-0.45016023103333314,24.747845369380954
11.68570955,3.342594963476189,-2.383561231956667,-1.3144396599857142,24.79055985890476
11.70251541,2.739621706714284,-2.411088697661429,-2.4015268142238093,24.44203375985714
11.71932987,-0.6090959829047633,-2.499183028640001,-2.774986493985714,21.891380312
11.73613132,-5.6721046770952395,-1.9191127261733338,-3.041720049557143,17.502315527
11.75294926,-9.669558185000003,-1.2867411757447624,-2.654488574747619,14.150491591238097
11.76975362,-11.144516627428573,-0.6514822174590483,-1.7656672568666667,12.926589100190474
11.78655656,-11.598042579333335,-0.5609469343638102,-1.6392313866761905,13.025249998761906
11.80336422,-11.714533987904764,-0.5729083604114292,-1.299268767995238,12.956895925
11.82017708,-10.959329741761907,-0.7334673220780958,-0.5820187614238094,13.032506228333332
11.83696799,-6.3700752260476206,-0.8900303670880958,0.3909238631476193,16.773694045952382
11.85378966,-1.7840657008095246,-0.1403336014214291,0.5311133064809526,20.458896512142857
11.87059192,1.9884809310952367,-0.7442642109928577,-0.14473500704285702,23.216106093571426
11.88739987,3.862608092047618,-1.5066826626119054,-0.9201043105666665,23.989283862619047
11.90420884,4.713996841857142,-1.700638038669048,-1.3277249221857141,23.360758094761906
11.92101845,4.872135026142855,-1.7687729369071432,-1.4991275809142854,23.176893680952382
11.93782263,5.173255103285713,-1.9418424253166673,-2.271990106204762,23.24044381047619
11.95463078,5.475188255666666,-1.7948528356452385,-3.3950200423476193,23.54306338761905
11.97144002,5.810891469476189,-1.4273903254976197,-3.926197097452381,23.32822801238095
11.98824401,6.046358154238094,-0.9965175104976196,-3.8708348047857144,23.038121165238096
12.00504166,5.9318985718571415,-0.486967188830953,-3.4309910366428573,22.996179076190476
12.02185994,5.672971635190475,-0.0861558117833339,-2.902790580547619,23.151559744761908
12.03867225,5.370356923285713,0.2047952755976185,-2.5021411237857145,23.405128461428575
12.05547693,5.055807295714284,0.49552566117380903,-2.2182933603571424,23.713752076190477
12.07228521,4.721859569142856,0.8290599416285709,-2.1848720369285712,24.111774118333333
12.08908937,4.437256427619046,1.1939518453523803,-2.386422713642857,24.486756045714287
12.10588738,4.246429512190475,1.5062689102095232,-2.5935571648333333,24.739073148142854
12.12270306,4.11818172890476,1.7617969401142852,-2.7920005549047615,24.913421006809525
12.13951561,4.019238926857141,1.9827489797809519,-3.0288274742857144,25.092266427380952
12.15631914,3.8750761584761895,2.1865999416380943,-3.4026447592047617,25.36978092404762
12.17312954,3.031009402523808,2.563629201638095,-4.187565814966667,25.423512641190477
12.18993513,-1.6328805279523826,2.8838754212571422,-5.22689679682381,21.800782264523807
12.20674683,-6.300477390333335,2.139531822542857,-5.490797031409524,18.172872223095236
12.22354544,-10.02250671309524,2.620459340966666,-4.769219341885714,15.36322405357143
12.24034959,-11.647676875761906,3.1303984437238093,-4.035744576409524,14.302387564333333
12.25716722,-12.039469263952382,3.0508143560666667,-3.715957494219048,14.445846974999998
12.27396291,-11.439427397428574,2.7513082934952373,-3.1835767542523814,14.276949990238094
12.29078251,-10.104735169333335,2.571958076333333,-1.4430128618714282,14.689156119761904
12.30758485,-5.153198672666669,2.186358922947618,0.4984966576523812,18.001966954999997
12.32439522,0.11136416114285569,1.282611512133333,1.6366295247952383,22.11735238119048
12.34120266,3.775003002571428,0.31518440622857097,-0.7961318947285709,25.700305336904762
12.35800933,5.213602952095237,-0.46862550529523844,-0.4012180623476187,25.829515832142857
12.37482008,5.780926636999999,-0.6178017395809527,-0.7512832142047616,25.342355207904763
12.39162544,6.264588652,-0.8051349033428575,-1.4405844553476186,25.171199353142853
12.40843118,6.655189401238094,-1.1363921331047622,-1.8840972583476185,24.897297734095236
12.42524928,6.949357328476189,-1.515854307109524,-2.189841963109523,24.659717603142855
12.44204926,7.137992382476189,-1.8244477250095241,-2.3446062633952374,24.463150867904762
12.4588537,7.211471171904761,-2.040544537804762,-2.469394808823809,24.392333308857143
12.47566087,7.182191145238095,-2.182603767452381,-2.552436647061904,24.426569812666663
12.49246097,6.944281283190476,-2.334531153457143,-2.451155526395238,24.593034607428574
12.50927689,6.587350368714286,-2.4701768069666667,-2.103414319890476,24.808007775523805
12.52607464,6.25604486490476,-2.3609963111095245,-1.5486533188428568,25.040307817428566
12.54289101,5.981836705380952,-2.167152923680953,-1.1291721889380948,25.31860197933333
12.55968928,5.829291820619047,-2.065793193014286,-1.1185337135190472,25.49358951647619
12.57650841,5.671478748619046,-1.961007483866667,-1.390649415233333,25.630532383619045
12.59331325,5.482125350809524,-1.885606858909524,-1.7043480476142852,25.81814308047619
12.61011941,5.26328770347619,-1.8651554636142862,-2.134848634423809,26.07865226052381
12.62693191,4.867802847428571,-1.8217523149476196,-3.0320261037095237,26.160359666238097
12.64374348,3.5646631155238087,-1.7645279390904764,-4.365535412757143,25.443607881
12.660538,-1.3232822416190484,-1.4073001708523816,-5.425624228899999,21.47071041195238
12.6773511,-6.554669652571429,-0.5252837904095243,-6.100258185938095,17.12690001909524
12.69414298,-10.148403758285715,0.2913050198761899,-3.4308078573190475,13.401092865285714
12.71096962,-11.315195492380955,0.7202726886857137,-3.8855266855095234,12.966373519571428
12.7277692,-11.47278581352381,0.5534580406999995,-3.721775639652381,12.998907776476191
12.74457142,-11.396880127190478,0.4897870052809518,-3.0111997183190473,12.596327737285714
12.84122599,-10.145805290714287,-0.11682168076666725,-1.9930709597476188,13.299040296333333
12.85801858,-10.072150979666668,-0.11615083332381011,-1.3501413376047617,13.193630226476191
12.87483865,-9.96864457352381,-0.1806079631904768,-1.4705685600809522,13.19619686409524
12.89163581,-9.934643359380955,-0.3790033147761911,-1.6677203345095237,13.313345309809526
12.90845206,-9.919787929380954,-0.5431396167000005,-1.7667619554142855,13.367379661714287
12.92527281,-9.717033863190478,-0.5935025783142863,-1.7983236252714285,13.189419856000002
12.94207039,-9.394873324142859,-0.6457015020904768,-1.917423832633333,12.88923557647619
12.95886138,-9.147290843190477,-0.9914843383761911,-2.0896177572285715,12.586674690285715
12.97568793,-9.102842263190476,-1.583558278471429,-2.0163293506095235,12.520839524095239
12.99248728,-9.203059083190478,-1.9526113924714292,-1.8224455342047616,12.625602840285714
13.00929717,-9.25555549414286,-2.1350715927095245,-1.588652088204762,12.679246893142858
13.02610481,-9.257403442714287,-2.176476271419048,-1.4448870814619046,12.655589489809524
13.04290992,-9.31205565652381,-2.124859517566667,-1.2895848634619047,12.649453865047619
13.05971808,-9.397481987,-2.0203727328047627,-1.0116891403666666,12.608061905047618
13.07652818,-9.490319638428574,-1.871690178261905,-0.6970643994238094,12.589231327428571
13.09333512,-9.559430690333334,-1.7242461117380956,-0.5908474862333332,12.635613947904764
13.11014185,-9.622338090809526,-1.567598696371429,-0.6666983135761904,12.721919085047618
13.1269527,-9.664821102238095,-1.3708962841333339,-0.8481876903857142,12.826217929809523
13.14375881,-9.69870219909524,-1.1497618145142863,-1.1240022122904758,12.998974005523811
13.16056476,-9.813778354761908,-0.9547550778142861,-1.5489421511952377,13.33598709809524
13.17737148,-10.135040464666668,-0.8021926383952386,-2.0723566721952382,13.776193287761906
13.19418094,-11.656260944666668,0.0051585194142851135,-2.747914138195238,13.19559556490476
13.21099873,-11.826444535333334,0.0901184407952375,-2.8925973289571427,13.286184004285715
13.2277941,-11.849226565857144,0.09709293639047557,-2.4725733654014284,13.115495844476191
13.24459651,-11.651048410761906,0.2364377506857137,-1.6692988474490473,12.860836446285717
13.26141481,-11.084863322238096,0.38709147202857086,-0.35117221421095207,13.193231875809524
13.27821193,-8.914940130333335,0.325285355219047,0.7269352338366669,14.562573649142857
13.29502814,-2.8908564046190497,0.39988655700952325,1.3504212646461906,19.596983902
13.31183177,2.1998936991904747,0.22389394324761838,2.009393789289048,23.615629444857145
13.3286444,4.695065745380951,-0.1292089226095244,-0.12947356632999987,25.459584938190478
13.34544761,5.458517639619046,-0.23234523499047682,-0.9168406605204763,25.199909145809524
13.36225281,5.54320001342857,0.1461316629142851,-1.1449133151395239,25.18348581438095
13.37906153,5.695388587095236,0.3286929015285708,-1.53719666393,25.23144357057143
13.39586935,5.860044544857142,0.35712644298571367,-1.7798206629300002,25.198805021523807
13.41266572,6.0038512291904755,0.38279027722857084,-2.063552191644286,25.19217646009524
13.42947923,6.109717524999998,0.4000851212095232,-2.408550778396667,25.21054630485714
13.44629031,6.20119423795238,0.3870584977333327,-2.690649145491905,25.22434249628572
13.46309639,6.289037542714285,0.351620261019047,-2.863081840634762,25.197678713428576
13.47991033,6.306267576523807,0.27014998720952316,-2.8653294466347616,25.16861513819048
13.49671462,6.23075005842857,0.1688345115428565,-2.631870382682381,25.10979216295238
13.51352251,6.096590969857141,0.04170568339047553,-2.1851504183966663,25.015674408190474
13.53032763,6.02145682890476,-0.053584764571429216,-1.68310937373,24.955487652
13.54713735,5.998175005095237,0.04857153395238031,-1.5489448019680954,25.009638205333335
13.56394619,5.839827739380951,0.3204933162285708,-1.8241599509204764,25.227617216285715
13.58075346,5.536278404047617,0.670983855066666,-1.9847595232380955,25.61860667609524
13.59755659,5.156324792523808,0.9959982674857137,-2.469594114809524,25.91379987904762
13.61436626,4.546215190666665,1.2292992300952374,-3.632988679666666,25.580535573809524
13.63117302,2.38440045542857,1.546405624619047,-4.813062100047619,24.275735188095236
13.64797191,-3.5791734975714298,1.6778791318285708,-5.690555640666666,19.32759243
13.66479045,-8.52627377361905,2.0842618061142852,-6.708840711000001,15.318908421904764
13.68159283,-10.616038482047621,2.7520398157809516,-5.095260393190476,13.119056655952383
13.70469503,-10.812760512714286,3.0182266604952375,-4.640211014619048,12.787189654619047
13.72150416,-10.271120753142858,2.6253190580666663,-4.253067834142857,12.427504640714286
13.73832119,-9.17852229204762,2.5799810404476182,-2.851004737095238,13.005879288809524
13.7551304,-5.417168799333336,3.2253462727476183,-0.8446164816190476,16.22175459119048
13.77193591,0.17504260442856956,2.3706601544095234,0.5812168570952382,20.966098140238095
13.7887471,3.8173597857619024,1.785063615933333,1.5078018276666667,23.64364736642857
13.80555399,5.467413445666664,1.2468246477428566,-0.4148441046666664,25.649585054523808
13.82235863,5.802216799714284,0.8150534317904755,0.10192952795238115,25.515097604285714
13.839166,5.67026864638095,0.7723809736380945,0.5717340646666669,25.632464796190476
13.85597507,5.889664965238093,0.7270526403904756,0.3209546856666668,25.582953521904763
13.8727803,6.125186372809521,0.6266772889238089,-0.08031738414285705,25.559850813333327
13.88958915,6.346334318666663,0.5086825915999993,-0.589091006190476,25.50279120380952
13.90639582,6.587429906952379,0.2086617322190469,-1.0188823885714284,25.334284836190477
13.92320477,6.8468290483809495,-0.1284336987095245,-1.1269003213809523,25.061191398571427
13.94001076,7.05008524690476,-0.48026403927142924,-1.0859589694285714,24.784282217142856
13.95681854,7.09841700738095,-0.8499831812714292,-0.9575943837142856,24.656629985714282
13.97362732,6.958392368333331,-1.2017148676047626,-0.8613923961904761,24.726707895714288
13.99043483,6.756258099761903,-1.4853470438428578,-0.5796584518952381,24.817155015714288
14.00724026,6.52442109942857,-1.717764860080953,-0.2090501561619046,24.88576374476191
14.02405002,6.2930120721428535,-1.9847524336523819,0.128470613509524,24.968675493809524
14.04084686,5.9839707081904745,-2.205671151509524,0.363531231557143,25.17738057547619
14.05766349,5.6288942817619025,-2.3176240750809534,0.43396942357619067,25.51909968919048
14.0744694,5.128880862190473,-2.2420792750285723,0.0081678966238097,25.760384298333335
14.09127957,3.9458861559999976,-2.365280920571429,-1.0910600765666665,25.08445816309524
14.10806682,0.12372979504761701,-3.039431321995239,-2.89552630137619,21.813374808333332
14.12489103,-5.456201008285715,-2.2131402263238105,-4.125229023757142,16.95063700147619
14.14168611,-9.035559245190477,-1.6679969543666677,-4.945601310233333,14.158133049095238
14.15850915,-10.615777196857143,-1.1718153017047628,-3.002253538090476,12.080809183857143
14.17531611,-10.830177170380953,-0.8030568503190484,-3.4362651109952376,12.062959189428572
14.19212234,-10.516482716000002,-0.7934625177142864,-3.8421326194714283,11.751889548142858
14.20893072,-10.446655727047622,-0.7641549876714293,-3.5638498181380953,11.521209154571428
14.22573842,-10.194857006476193,-0.6920003457952388,-3.0137633426142854,11.076083379761904
14.24254659,-7.516479491857145,-0.5677534930333342,-1.827104574138095,12.841816529285714
14.25934165,-1.500052179190478,-1.4109880261761911,-0.30719907513809475,18.048766016428573
14.27616149,2.636834236047617,-2.103491376533334,0.43979921238571473,21.34917135642857
14.29296872,4.309415863238094,-2.2835678904952386,0.5394805443666671,22.075974540238093
14.30977644,4.76832326290476,-2.416579821971429,-0.4676789273476187,22.554478699285717
14.32658226,4.836171059571426,-2.3269234803523817,-0.49528828701428534,22.484896361190476
14.34339162,4.911570095285712,-2.0239087251142864,-0.6669609036904758,22.46466014119048
14.36019866,5.1409083780952365,-1.7679323830666673,-1.177311369280952,22.501812403571428
14.37700483,5.370293572238094,-1.559960026780953,-1.6366103548095234,22.49294584642857
14.39381199,5.608962695285713,-1.3015340076380961,-2.014460790857142,22.438696002619047
14.41062022,5.828882808142855,-1.080104341780953,-2.3511181673523804,22.374277535476192
14.42742809,6.018966993095236,-0.9227302606428578,-2.547236840019047,22.313032232619047
14.44423605,6.160840011952378,-0.7442936379095245,-2.710072619685714,22.29223647404762
14.46104057,6.22186267942857,-0.48101274381904835,-2.7052789757333326,22.310424523095236
14.47784313,6.149559452285713,-0.1646430172523817,-2.6668110235428566,22.456566744238096
14.49465981,6.059012617285712,0.11137434493333262,-2.6757085097333326,22.610225633761903
14.51147417,5.939314819428569,0.3885229720333326,-2.683896802828571,22.781681496142856
14.52825569,5.7381882212857125,0.6832443029333326,-2.790269000304762,23.085739802238095
14.5450797,5.50307389642857,0.9889392349571421,-2.880918241780952,23.420162289714284
14.56187483,5.2539089062380935,1.2694866324476184,-2.9496252310666664,23.75451877852381
14.57869366,4.897214412380951,1.5513490382380948,-3.2120062397333333,24.19167813095238
14.59550369,2.210182076285712,1.737209251999999,-4.149965842685713,22.348182952857144
14.61231051,-3.753532568809526,2.809610627809523,-5.546486729733333,17.05890133904762
14.62911806,-7.797704787857144,3.654587416523808,-6.395930528828571,13.761969136666668
14.64592199,-9.312614441238097,3.963991335571428,-6.711515710666666,13.01511836952381
14.66273517,-9.454126744333337,4.256680318380951,-5.824068364619047,12.264762811476189
14.67954222,-8.857732205380955,4.344453414380952,-5.535736912761903,11.804848410619048
14.69634955,-7.340655168238096,4.598548355666666,-4.196053243809524,12.669218295857144
14.79088956,-7.132429145952384,3.8487527825238095,-3.555933895761905,12.592341098714284
14.8076881,-7.447911194857144,3.564439432999999,-2.9434684004285714,12.711186181095238
14.82450346,-7.672259308380955,3.3017857074761903,-2.961823179619047,12.894709972047618
14.84130192,-7.790028413619049,2.993467694238095,-3.045705148190476,13.040513923952382
14.85811791,-7.91050154857143,2.65684055147619,-3.144744135142857,13.189818117285714
14.8749134,-8.03171589314286,2.309186140714285,-3.1988078412857144,13.294245225380951
14.8917453,-8.130966096333335,1.8777587527142852,-3.275467634190476,13.360398673476189
14.90854305,-8.174071948238097,1.3834343183333326,-3.3279214019047623,13.35197051061905
14.92534593,-8.250832194904765,0.9224256787619041,-3.233092773523809,13.340093986333335
14.94216068,-8.33157721061905,0.4551529543333327,-2.8778756119142854,13.279661681095238
14.95896259,-8.407643409666669,-0.0018527962380959085,-2.3007532869142855,13.263652242047618
14.97577033,-8.490636326333336,-0.4486419360476197,-1.7670198281523806,13.266180005380953
14.99258074,-8.552221434428574,-0.8345515501904769,-1.509201821838095,13.212302663952382
15.00938601,-8.58466657014286,-1.1286969327742864,-1.4375532355047616,13.15123370347619
15.02619197,-8.622758729285717,-1.3342051705742866,-1.454504069885714,13.13882407252381
15.04932107,-8.688412166952382,-1.4532224707647625,-1.5003464676476188,13.188573047761906
15.0661124,-8.795300869904763,-1.5052228855266674,-1.4456069924095236,13.226318837285717
15.08289793,-8.935035455952383,-1.5100063115742866,-1.3858719213142854,13.296745821571427
15.09972559,-9.144517626238096,-1.5032589692885723,-1.434842722838095,13.502931367238094
15.11653808,-9.607710793285715,-1.4704193985742866,-1.8328527042666662,13.883304451428574
15.13334043,-10.964463234238096,-1.7721581375742865,-3.2037852378857137,12.874728454285714
15.15014957,-11.083976564238096,-1.105435942050477,-3.494344961123809,12.645079376952383
15.16695443,-10.586181913238097,-0.8846168888409531,-3.587322961757143,12.117592520238095
15.18376551,-9.76364762466667,-0.8205841185076198,-2.265381586185714,12.209835373571428
15.20057052,-7.002590270380954,-0.2785183164123818,-0.6678120750428567,14.08171834642857
15.21738039,-1.5653986246666678,-0.7823223413647628,0.2766167775761909,18.449176272142857
15.234187,2.663395110095237,-1.50782937350762,0.7613977703380956,21.678651998333333
15.25099382,4.807168325333332,-1.564840682602858,1.0386663389952386,22.725520149285714
15.26779116,5.660727501476189,-1.3624690172076197,0.3585278416619052,23.061877810238094
15.2846084,5.967449415857142,-1.0597294310647627,0.19477794247142902,22.887514298190474
15.30141658,6.134928476666666,-0.7188644093980959,0.029424122052381377,22.750883906761903
15.31822422,6.352481116047618,-0.42444671020761987,-0.48388558375714247,22.561089398190475
15.33503009,6.590107872809522,-0.20294048920761984,-1.1508427578047615,22.43157317009524
15.35184122,6.7637074336666645,-0.04259060925523887,-1.5988162702619044,22.42041293390476
15.36864753,6.823425202238094,0.056634977090475394,-1.8760138696428568,22.492173542952383
15.38545166,6.734063285095237,0.14701051974761828,-2.341669900404762,22.84915463390476
15.40226129,6.563128380714284,0.22175277450952302,-2.7761164170238093,23.26772167342857
15.41906972,6.45871275985714,0.25912443831904686,-3.0040816131666666,23.49439174057143
15.43586468,6.426722481666665,0.2766677655571421,-3.095270043928571,23.573605349619047
15.45268523,6.416526976809522,0.2933662565571421,-3.2012579560238086,23.633592787238097
15.46948733,6.379049801571428,0.32111067465238013,-3.211376304261904,23.676501911523808
15.48629723,6.310478438238094,0.29463342855714203,-3.2304647314999992,23.73721897152381
15.50310214,6.20966884138095,0.31307113203333253,-3.26450979197619,23.844105501714285
15.51991356,6.041222300523808,0.3917761135857135,-3.505004088628571,24.071869829
15.53670625,5.462187041095237,0.5967289326333325,-4.526291325342857,23.622414616809525
15.55352816,2.7997160419047598,0.3591097482999992,-5.78901783672381,21.499038544666664
15.57033772,-2.568973041571431,1.1816115777761897,-6.4560104556285705,16.938614922190474
15.58714255,-6.743935630285716,2.2145966972047613,-6.797044198152382,13.603225195523809
15.60394942,-8.866703078857146,2.5721004065380946,-7.008296285809523,12.509231585999999
15.62075717,-9.659409295952385,2.638361981857142,-6.277537357476191,12.082292962666665
15.63756845,-9.769845735476192,2.5456343065238087,-6.042411361666667,12.026592663190476
15.65437077,-9.54292660666667,2.3747471201080947,-5.630289566190475,11.87995713052381
15.67118172,-8.529583658428574,2.323746161727142,-4.354831048571428,12.557324982904762
15.68798694,-4.7856737318571465,2.9642421658223803,-2.033007655857143,15.89426361147619
15.70479808,0.583861667285711,2.174354283441428,-0.6820880233333328,20.391468555285716
15.72160312,4.172963141095235,1.6263632404414277,0.10535627300000054,22.944067594333337
15.73840913,6.281526019190474,1.0773872504890467,-0.7219178679523803,24.245732017190477
15.75520584,6.87364925535714,0.8133369598223801,0.3571948890000006,23.701264687571427
15.77202544,6.847253457261902,0.7925490395842848,-0.18498694338095184,24.146862490904763
15.78883231,6.76394455583333,0.7361504208223801,-0.8164883228571423,24.67665734614286
15.86236422,6.771167139928569,0.6351587687176181,-0.4952681519952376,24.573028986380955
15.87917629,6.792815638023807,0.49802852529380864,0.07636094081428624,24.569458756857145
15.89596994,6.749878813738093,0.37615952324618956,0.9210698378619052,24.80054062447619
15.91278894,6.628892238357139,0.19954506272238004,1.4687026002428576,24.95426213733333
15.92959273,6.474766389166665,0.005422487150951479,1.7141990549238098,25.052040427238097
15.94640358,6.330349080499998,-0.2037870117538104,1.6872466065904768,25.185826662761905
15.96320954,6.231890336357139,-0.4372116752776199,1.5030061973047624,25.33568284014286
15.98001965,6.166075273642855,-0.6750133974204771,1.3156232040666673,25.457550347857147
15.99682449,6.1404870564047584,-0.890126560420477,1.239297026828572,25.489343828809524
16.01363622,6.173668292452377,-1.0493641325490486,1.2271421184476194,25.444044877857145
16.03043755,6.1565104653095215,-1.1192212161442865,1.2897583304952387,25.437417395952384
16.04724917,6.058013347023806,-1.0990837954300008,1.2320081281142863,25.54978549128571
16.06405386,5.918268293214283,-1.075012215542858,0.5401006086857149,25.75195196966667
16.08084969,5.020142054309521,-1.1562900543285723,-1.0024306775047613,25.158786222047617
16.09767234,1.3848809728809495,-1.8492906660428579,-3.4457652117904756,21.842471440619047
16.11446494,-3.8563946538809546,-1.0914798804238104,-4.885296492742857,17.33063360395238
16.13128421,-7.244393371166669,-0.5715031737095246,-5.7549889318857135,14.703892133
16.14810199,-8.657282147976193,0.04851805600476108,-4.458645491647618,12.819622987952382
16.16489987,-5.483043102714288,0.8035095986714277,-3.515183960028571,15.881157819
16.18170847,0.229882401095236,0.13330482305238012,-1.0141440914571425,20.025815181857144
16.19851396,4.0976498258571405,-0.32643659904285804,0.4521232672095242,22.23060303947619
16.21532238,5.770702704619045,-0.407832457842858,0.4637918584809528,22.965812734
16.23213352,6.365945795095237,-0.6369992096571437,-1.632441100947619,24.175215187809524
16.24893281,6.314908687952379,-0.7792874800857151,-2.246139901585714,23.982057027333333
16.26574749,6.076032163666664,-0.6198665413714295,-2.610258511714286,24.133206244
16.28255035,6.115960145571426,-0.5523066292619057,-3.2759384658714286,24.381962349714286
16.29935463,6.201886383142855,-0.5695708705476199,-3.700618335585714,24.573489313047617
16.31616995,6.2565048551904745,-0.5600510948333343,-3.8727136570619045,24.635731740666664
16.33296491,6.303415958523808,-0.5033995281142867,-3.9217605367761905,24.62130612638095
16.34980515,6.329964253333331,-0.45304135756142944,-3.973643416871429,24.62435781495238
16.36659268,6.343403431809522,-0.42670369422809606,-4.014377594442857,24.629502378285718
16.3833956,6.335844745619045,-0.4368770291900009,-4.010610592252381,24.635892297809526
16.40020404,6.242424717142856,-0.47622867982809614,-3.875074398390476,24.70173622685714
16.41701065,6.0533197970476165,-0.5073384911219057,-3.576626392057143,24.707695254476192
16.43381764,5.849403338333331,-0.5478263013790484,-3.3480460079142853,24.693206010190476
16.45062592,5.649993898809522,-0.589746662455239,-3.180360226580952,24.703140777809523
16.46743455,5.458186719380951,-0.5830680698361913,-3.038011982295238,24.728935436857142
16.48424673,5.266160626476188,-0.5471341892647628,-2.869976588628571,24.747873378285714
16.50104794,4.682257836047617,-0.6192156643123818,-2.9196807997238095,24.98435174904762
16.51785601,1.0828512756190454,-1.121745137788572,-4.4307561373904765,22.02908639952381
16.53466377,-4.544550259619051,-0.4252498773600008,-6.032095080390476,17.204774378095237
16.5514725,-8.360361780095241,0.10168912868761829,-6.588870945485714,14.392083754761906
16.56826538,-9.981793040142861,0.27348740330666593,-6.541473150285714,13.624141160666667
16.58508676,-10.357334477380956,0.5120804111399992,-4.539014464142857,12.181175145238095
16.60188432,-9.891873473285719,0.5812712198066659,-4.042281230171429,12.063599146190475
16.61870025,-8.759247007809526,0.37567648718761826,-3.3000700358047617,12.038661648571427
16.6355005,-4.6341329301904794,0.006163951887618255,-1.6775229315190476,14.983900432380953
16.65231804,1.1820001617619016,-1.0200677232076198,-0.5782850353285715,19.72700291714286
16.6691213,4.657064121619045,-1.2695038575885722,-1.1795340941380954,22.30281769095238
16.68593279,6.0421975925714255,-1.3400298983076198,-1.2665540145190477,22.785972337619047
16.70273842,6.312875318047617,-1.1239001752414293,-0.6227769846619049,22.675408701190477
16.7195442,6.409033436523806,-0.7964615823509531,-0.4484165049952381,22.660596183571432
16.7363538,6.51434546585714,-0.5623115018890484,-0.6843589141380952,22.718876465476193
16.75315543,6.6259315368571405,-0.37752174210809597,-0.995215914952381,22.750138577857143
16.76996755,6.655297484952378,-0.16874081619047696,-1.159804741,22.816852669285716
16.78676389,6.6771799506666625,0.014173510376189705,-1.259966883809524,22.87800696595238
16.80357188,6.68248142638095,0.15808782959523734,-1.4416239484761906,23.01076782595238
16.82039182,6.605192163047615,0.3433912224523802,-1.9473582103809528,23.46291740690476
16.83719955,6.562265283714282,0.5003222367380945,-2.4211090742857144,23.859648520238096
16.85400692,6.579993635142855,0.6196528245952374,-2.7481012229523816,24.082317248809524
16.87081418,6.513634705571426,0.7854457552619041,-3.002367280666667,24.316027245476192
16.88761893,6.407850743666664,0.9722836101190468,-3.0877026148095243,24.49937843738095
16.90442903,6.362446672714284,1.1171794134999993,-2.9920462198428575,24.58387265738095
16.92123766,6.325351239523807,1.2087596908809517,-3.08183463404762,24.640486993380954
16.93804293,6.226181848952378,1.360497610761904,-3.3601641200000008,24.69576697352381
16.95484827,6.010149184999997,1.616198414714285,-3.8463173592285718,24.595581997809525
16.97165541,5.321386111476188,1.9740524858095232,-4.495261555561905,24.24790526285714
16.98846739,1.3386758181428542,2.627865893380952,-5.493664832510476,20.950329216
17.00527264,-4.422377586571431,3.997785080095237,-6.119113241129523,15.924022634571429
17.02206814,-7.829006354333336,4.51208867347619,-5.274145853367619,13.170135057095237
17.03887526,-9.111983572190478,4.741127173095237,-5.062402884558095,12.548206932428574
17.05570021,-9.241887410952383,4.634665807047618,-5.741299902081905,12.591055534761903
17.07250152,-9.11592467671429,4.381308578285713,-5.957957881272382,12.467474459809523
17.08929444,-8.720949559420003,4.171159993999999,-5.535316195272381,12.009666568904763
17.10611818,-7.265674750420002,4.45639158447619,-4.145380383986667,12.949513424142857
17.12291327,-2.970888478991432,4.899769601285714,-2.1270806453200004,16.542509462714285
17.13973686,2.0767436929133307,4.128729945238094,-1.2691855661771432,20.51969550890476
17.15653586,5.55123926243714,3.654735519857142,-0.7272784599295241,22.76609784557143
17.17334778,7.590286957675237,3.022460710523809,-0.7683823680247621,23.482668243190478
17.19015674,8.354211193246664,2.401004314523809,0.043794904208571225,22.966080741714286
17.20696054,8.381544316579998,1.8840280715238087,0.7001571654942855,22.725018851714285
17.22377038,8.380981830389523,1.2718201819999995,1.0196153776847618,22.61288991361905
17.24057864,8.51890225548476,0.5745913415714279,0.8257249196371428,22.646347461714285
17.25738527,8.61878179300857,-0.06929965238095306,0.4253913788609522,22.735441113619046
17.27419108,8.606428440865713,-0.5084938548095245,0.22038902554190454,22.81151162552381
17.29097966,8.501941021532378,-0.8209408804761912,0.13976928163714264,22.924815361761905
17.30780702,8.288279782341903,-1.1764159996666674,0.10640691573714266,23.116686981285714
17.32461426,7.900753383722854,-1.5834957871428579,0.10642435435619024,23.447906391
17.34142132,7.491049584199045,-2.043038856380953,0.17124372435238072,23.79655771642857
17.35823263,7.206036248913331,-2.4642214660952386,0.24890912144761884,24.02086978357143
17.42965912,7.102460973818093,-2.6858961439619056,0.3443135873999998,24.047765488666666
17.44647268,6.979898270199046,-2.8556557183380957,0.43967501316190455,24.098345641904764
17.46327362,6.847016129294285,-3.001501086119048,0.5925503912095236,24.101386217142856
17.4863776,6.66661144348476,-3.1322219314047626,0.633782704638095,24.205918717333333
17.50319196,6.271834054666664,-3.2226615575476196,0.25201395578095215,24.583840073476193
17.52000298,4.892139956095236,-3.7610053790238105,-1.1137831324095242,23.535242818714284
17.53680653,0.7462543297142827,-4.450640635719049,-3.159695988647619,19.802206290142855
17.55361911,-4.153067158142861,-3.8869299463380957,-3.9243037360285715,15.62887030238095
17.57042643,-7.426453227619052,-3.595690146833334,-4.168656440038095,13.015226249142856
17.58722854,-9.124601091952384,-3.2099945361142868,-3.4801013129428573,11.548926496428573
17.60403817,-9.132121199952385,-2.772591572495239,-3.4478155090809524,11.373196297000002
17.62085517,-5.0205265912857175,-2.768606303733334,-2.4464723270333333,14.731434815095238
17.63765334,0.03991883109523474,-2.6606094085428578,-1.2550944828904764,18.765293513666666
17.65446053,3.1123062540952353,-2.4387302441619054,-0.39585590374761925,20.65943448795238
17.67126941,4.622062024666664,-2.1856266700190483,-0.11024018708095255,21.001393987952383
17.68807842,5.370694932571426,-2.0017999680190486,-0.2284384683190478,20.870404130190476
17.70489368,5.855975287600949,-1.7883751548285722,-0.9285346893666668,21.185029787333335
17.72169005,6.412722020139045,-1.4673057212571434,-1.423772561857143,21.14702766780952
17.73849922,7.094001770234283,-1.1726491947809532,-1.6270640461428574,20.579268747904763
17.75530526,7.65403370637714,-0.8290740009714294,-1.6347440421904764,20.04605396895238
17.77211436,7.961889812186663,-0.44118688640000076,-1.4293517041904764,19.790682840380953
17.7889183,8.000712939996188,-0.23279091996190554,-1.2734899858523812,19.763734943047616
17.80571659,8.00486973385333,-0.10260006496666747,-1.2596397169952385,19.762012083523807
17.83295576,7.966956502186664,-0.006267106185715069,-1.2853891279000003,19.809168483809522
17.84984435,7.899595760472377,0.12747366233809446,-1.196616694757143,19.840613861904764
17.86665843,7.803397405996187,0.2888424183857135,-1.0195330889476193,19.86809433761905
17.88346359,7.654659385043807,0.4564429536238088,-0.8228863304238097,19.930819311904763
17.90027073,7.443969090948569,0.6301506119857135,-0.585388841757143,20.04334971904762
17.91707921,7.188551653091426,0.7690861666047611,-0.3904622619952383,20.206004588238095
17.93388432,6.8764063973295215,0.8767335131952374,-0.30736161385238114,20.460236213380956
17.95070076,6.503448940710472,0.9268338794761897,-0.3368860082809525,20.798802464666668
17.96749889,5.72321262837714,0.8711719712714279,-0.6999840619952382,21.139002893190476
17.98430689,1.5390865012342831,1.149390778464285,-2.0928576669476193,17.839811631285716
18.00111629,-3.4347273733371457,1.3614793392309517,-3.4400218437095242,13.694762962238096
18.01792586,-6.409394513908573,1.5203861027357135,-4.12356845494762,11.50182356252381
18.03472868,-7.751636278194288,1.6147382770928564,-4.354830230566667,10.895124353428573
18.0515371,-8.284932658956192,1.6435070890071424,-4.42282403042381,10.929885363571428
18.06834443,-8.507870106652385,1.5602307518928564,-4.013981943757143,10.57238873452381
18.08515417,-8.665341468285717,1.3628847287547612,-3.940646296376191,10.509558435
18.10196196,-8.635232539595242,1.2046032662261896,-4.334355865328572,10.843462464904762
18.11875398,-7.133092176690479,1.3298550248928562,-5.002524955185714,12.008664055761905
18.13558295,-1.4359047996428598,0.8666667399404756,-3.4649954411857142,17.15161554147619
18.15236677,3.65168850588095,0.14170173546428494,-2.075334128952381,21.565416560238095
18.16919083,6.287831191119045,-0.1548052597738103,-1.5610587370476194,23.30944262547619
18.18600712,7.327555359547616,-0.3517563993452389,-1.5039711680476193,23.39923010595238
18.20280671,7.697316349690474,-0.5828539840119055,-1.6763584727619052,23.260941185666667
18.21961088,7.849036669214283,-0.8511276781547626,-2.754561764857143,23.984524614714285
18.23641909,8.024269397547616,-1.1165884532023818,-3.0116944994285717,23.961274899
18.25322868,7.832658607071426,-1.3843252401071438,-2.7610652787619054,24.164144803285716
18.27004045,7.6658445299285685,-1.5727082062976199,-2.5920825912857146,24.321961093285715
18.28683722,7.763019401357139,-1.691608303845239,-2.658806471571429,24.246079065666667
18.30365266,7.837925705166664,-1.7714684972404773,-2.7669165361428574,24.22831219852381
18.32045573,7.782586482309521,-1.8758504189880962,-2.9079283646190484,24.35512446947619
18.33726402,7.606036888499998,-1.9557929902761915,-2.9839736053333334,24.54992345233333
18.35407103,7.400586694499998,-1.983104680076191,-2.971035128619048,24.727676791380954
18.37087884,7.091652255547617,-1.935519368685715,-2.909859055619048,24.981110698714286
18.38768887,6.698507125547616,-1.7994816869000008,-2.6660309633333337,25.23664881209524
18.40449489,6.339811323309521,-1.6407282407190482,-2.322853667428572,25.38862711495238
18.42130135,6.038255235499998,-1.5179561346047628,-1.9532059374761908,25.4392936887619
18.43810873,5.738212356499996,-1.3948430643714294,-1.5476311275714292,25.42582827685714
18.45491725,5.331435337904758,-1.288957042128572,-1.0992576053333338,25.349505027000003
18.47172556,3.617546125238092,-1.501861171842858,-0.6403440064285719,24.37575507738095
18.4885309,-2.147940045761908,-1.2041358122285724,-2.525203727380953,19.267503745952382
18.50533965,-7.22158368461905,-0.6279980156666675,-4.1568318094285726,14.85974703452381
18.52214792,-9.810926937190478,-0.4194048685466389,-4.7505074455238105,13.093341936619048
18.53895502,-10.77450661466667,-0.2968423153323532,-4.824228388904762,12.941223158761906
18.55576465,-11.044713883523812,-0.16170306925140082,-4.695821296619049,12.996149738761906
18.5725573,-11.001772335952385,-0.02021288797997226,-3.7767986910952387,12.154170905238097
18.58937609,-10.883964652428574,0.10143529876764677,-3.6701360998095245,11.976187376809523
18.60618512,-10.163814681085718,0.18833870624383722,-3.97274824552381,11.323803385476191
18.62299382,-7.12127045251429,0.3908839062914563,-3.0796539558571436,13.032951850714285
18.639803,-1.3550759720380978,-0.30031874282759136,-1.1656813964285722,18.043752337380955
18.65660758,2.4295174284380927,-0.6923738058609248,-0.19811844833333403,20.770301338333333
18.67340461,4.340111187961902,-0.6739901666704485,0.19265668724761845,21.35859504309524
18.69021806,5.318874382485712,-0.5868179926180674,-0.17516527851428632,21.39738914595238
18.70703167,5.902455988819045,-0.530056988941877,-1.1129655498952387,21.905820515
18.72383512,6.25278840805714,-0.5124668890752103,-0.8567634425142863,21.532103261142858
18.74064474,6.569393499390473,-0.3908031710752103,-0.7879685335142862,21.266117872380953
18.75744976,6.92851257410476,-0.26996008983711517,-1.1202961491809529,21.164437311428575
18.77426034,7.175766786961903,-0.14716795940854366,-1.5336132618476195,21.21937649047619
18.79106462,7.393819923533331,-0.01920217988473418,-1.9142420406571437,21.28456672
18.80787764,7.578160491342854,0.11765842349621822,-2.209658918038096,21.333734874619047
18.82468578,7.723093896723808,0.29402417935336106,-2.3764077823714294,21.36269981566667
18.84149182,7.805783250104758,0.4998314337866945,-2.4109518188476198,21.37141978280952
18.85829309,7.79511840105714,0.7096444112724087,-2.3541211856095243,21.410251310904762
18.87510243,7.80274961210476,0.9429522667238087,-2.367187818038096,21.465707875952383
18.89191253,7.868424938866663,1.2122667062714279,-2.47106540784762,21.543599428095238
18.90871761,7.9401427233904736,1.5023192032380943,-2.6652117912285718,21.688451882666666
18.92552714,7.9530278171047595,1.8066497508714279,-2.792718228990477,21.853277225714287
18.94233193,7.904237157866665,2.1134146146476183,-2.8921596438000003,22.040328700809525
18.95914083,7.660360496285712,2.4420394818857134,-3.0933971179904765,22.416719838333336
18.97595604,5.060028122523807,2.612779087219047,-4.376494044371429,20.473803229761906
18.99275529,-0.580392610190479,3.6508019460285706,-6.367588701752381,15.48384818166667
19.00956215,-4.258726256047622,4.354995288361904,-7.220364298323809,12.685239388809524
19.0263754,-6.049849373857145,4.696420900219047,-7.304299048190477,11.921111592619047
19.04316601,-6.895271006000003,4.964868826595238,-6.642582428190477,11.722792842142857
19.05999307,-7.299429007857146,5.129233031095238,-5.511245148619048,11.02236517357143
19.07679312,-7.281022230714288,5.120930932852381,-5.45041219404762,11.01845869742857
19.09360119,-6.897205874985716,4.706432717233333,-4.812388340809524,11.22141547238095
19.11040918,-6.04055195779524,4.2814080829,-3.53271258457143,11.788170697619048
19.12721166,-4.155938171604765,4.5774331775666655,-2.0147126632857146,13.191301432857145
19.14402942,-0.0815247357952402,4.467093490566666,-0.8407069731904768,16.53779364809524
19.16081833,4.774963401442855,3.3063276156619037,-0.08702669857142922,20.73109626238095
19.17764035,7.810932431585712,2.86982849685238,-1.6271059288571434,23.55392583142857
19.19444578,9.329604625395238,2.3793911481857135,-1.943756183333334,24.370017373333333
19.21125411,9.742123807885712,2.1048594771857134,-1.4608064950000008,24.18233168709524
19.2280601,9.813485122552379,1.8721430899776184,-1.0638212593333338,24.04011078847619
19.2448653,9.763821124695236,1.5638315707871422,-0.7120005179380959,23.88315933861905
19.26167741,9.664349033361903,1.2007945408823804,-0.5180641699380959,23.770514263000003
19.27847935,9.51080687802857,0.8336889546919041,-0.4497980279857149,23.75805421538095
19.29529418,9.329332555647616,0.4712790337871421,-0.3706055939380959,23.76868117347619
19.31209823,9.132225876361902,0.1003042205966659,-0.18595893070000066,23.763011698714283
19.41294542,8.826048850599998,-0.26382453935571504,0.019529478633332684,23.867257755857143
19.42975326,8.64602474902857,-0.620472780108096,0.14703482649047553,23.880998127285714
19.44655353,8.565501530599997,-0.9218811845271436,0.09319228191904691,23.898706704904765
19.46336568,8.60482215845714,-1.1907646994842866,-0.126811357033334,23.89076798538095
19.48017695,8.743955748076187,-1.4468407572557151,-0.41238799574761975,23.819709506333332
19.50328124,8.858216444314284,-1.60532994479381,-0.7116245657952388,23.825810430142855
19.52008936,8.83259929898095,-1.618991638750953,-1.21307453674762,24.009796040619047
19.53690104,8.524154526538092,-1.4058035383414293,-2.2454768477476197,23.88176998347619
19.55370475,7.666366508919045,-1.22003309481762,-3.5682941507000003,23.291480405380952
19.57051204,5.827161857157141,-1.7523900781080959,-5.054819277366668,21.797204608714285
19.58731996,1.7928359849666642,-1.9153603428700006,-6.2768240768904775,18.43819972252381
19.60413032,-3.003919465366669,-1.0565148478700008,-7.14587423922381,14.279226369666668
19.6209357,-5.871958630461907,-0.9505133742985722,-5.838166225890476,11.533986691571428
19.63774201,-4.769087326176193,-0.9151518799652388,-4.976221732033333,12.520772306333335
19.65455168,1.125922078285712,-1.2471979232509531,-3.4432634515571436,18.355982442571428
19.67135805,5.319328682761903,-1.6425938294714293,-2.7963089151285723,21.954818339761903
19.68816031,7.358826603238093,-1.8945865206142867,-2.79891771392381,23.26693058390476
19.70497179,8.18421142442857,-2.0429267344714295,-2.894836664542858,23.373981597619046
19.72178073,8.528364102047616,-2.2744705365190483,-3.7379750866380954,24.033051456666666
19.73858916,8.757055748095237,-2.342571533900001,-3.759415978638095,23.894960974333333
19.75540019,8.830297345238094,-2.3555199447571438,-3.6404491721571435,23.806291238238096
19.77220174,8.933895394761903,-2.322729522295239,-3.4299423242523814,23.698945399666666
19.78902385,9.005012114761902,-2.2569002679619055,-3.2894171308047624,23.603081987761904
19.80581567,9.011727117142854,-2.1462473159714297,-3.071618432280953,23.533604099190477
19.82260516,8.940959623761904,-1.9969744057761911,-2.68882761702381,23.509652890619048
19.83943325,8.809914191285714,-1.8342074326238103,-2.4302409945952386,23.54040933109524
19.8562318,8.58362378342857,-1.6221931264666674,-2.126360586928572,23.656700756809524
19.87304867,8.301654599523808,-1.3667285130285722,-1.6712963242619052,23.82417692633333
19.88985623,8.037842852523807,-1.1642435392000008,-1.2023023425952384,23.92008674490476
19.9066632,7.708143722047618,-0.9123195580571436,-0.7909029781095243,24.056775702047617
19.92347308,7.3584611866666645,-0.5994728350047627,-0.4814365025380958,24.222052841095238
19.94027953,7.0524723755238075,-0.34461218971904845,-0.24803890530000064,24.295395010142858
19.9570842,6.781328076238093,-0.14255008243333414,-0.030520439300000583,24.312648608714284
19.9738966,6.468282063666665,0.016628583280951563,0.26615183703333267,24.250181371571426
19.99070169,3.7892537798571406,0.27616187504285633,-0.2905761399666673,22.438509373476194
20.00750487,-2.46790935909524,0.7123303413285706,-2.4503936085380955,16.76750497014286
20.0243153,-6.708968208095239,1.1605776661857132,-3.6379299843952384,13.325003064904763
20.04111191,-8.759986241809525,1.5004356219714279,-4.05845923642381,12.20070414347619
20.05793075,-9.589647338619049,1.7620777572857134,-4.189114184519048,12.225037187285714
20.07473615,-9.855474721904764,2.10452432857619,-3.461228575090477,11.583271448238095
20.09154404,-9.929784388857144,2.279355412414285,-3.598432132233334,11.710938792
20.10835296,-9.80661555709524,2.4077467889809516,-3.9976245903333343,11.799513737619046
20.12515878,-9.471897454428571,2.4670841849761893,-4.295335553952381,11.541293507285715
20.14196731,-7.899876106333334,2.7926353088238085,-3.1286213283523816,12.650742660619049
20.15877394,-2.4001836439523836,2.943470431204761,-1.3063691795428574,17.46779525490476
20.17558382,3.104072013190474,2.26733777477619,-0.6613913373714289,22.01663985395238
20.19237194,6.048910310333332,1.9707099921571418,-0.35365579208571457,23.88779409585714
20.20919544,7.329084020809522,1.3729725662999992,-3.7803550783238102,26.842957238238093
20.22600372,7.381128843666664,0.9711555964904752,-3.899008125990477,26.73872556728571
20.24281818,7.170575992238094,1.0652527566809513,-3.7697046478952387,26.986346241095237
20.25962,7.207316113666665,0.9249618379190467,-4.345373686571429,27.165943844428572
20.27641574,7.279856078904759,0.5755245102999991,-4.8191112445238105,27.294117293
20.29323418,7.3218797374761895,0.3199044393952372,-5.069388332238096,27.382521633
20.3100293,7.3313603500952365,0.17522605105238004,-5.190222841761905,27.434934412047618
20.32684392,7.286546739666665,0.048239433909522914,-5.231241918190477,27.49251091061905
20.34364803,7.156818967285713,-0.07345117999523901,-5.066006557761905,27.562462829190476
20.3604654,6.950863961476189,-0.19668685413809617,-4.661531254809525,27.675896188238095
20.37727044,6.70682070190476,-0.3040541482809533,-4.173017149333334,27.78223594442857
20.39408064,6.484527756571427,-0.34174883521571525,-3.7745089752333336,27.824426659666663
20.41089443,6.349985881809523,-0.33367911846809617,-3.48071092594762,27.796643368714285
20.42770783,6.2341851829523796,-0.3015438532347628,-3.225316353661905,27.743435438238095
20.44450201,6.103111004142856,-0.24292426321571522,-3.006850843804762,27.706194042523812
20.46130722,5.971042801571427,-0.16760967044904854,-2.8246294311380957,27.688063790619047
20.47811776,5.750499360285713,-0.07021152133476283,-2.880805253471429,27.908697107142853
20.49492349,4.272140183190475,-0.29272353943000096,-4.279283806995238,26.79699468857143
20.5117318,-1.1285382239047637,-0.3983475340014294,-6.278777587709524,21.958350804285715
20.52853834,-6.5019273308571455,0.27203173014142773,-7.1751495881857155,17.335260893190476
20.54534567,-9.224815142238096,0.4752002756176183,-7.667068310947619,15.325728347904763
20.5621412,-10.182067303904764,0.8727700341795229,-4.468077262233334,12.13426551457143
20.5789621,-9.767790828761907,0.9738515473842849,-4.466162636138096,11.715163505
20.59576774,-8.299141373523813,0.8705607851461897,-3.907354695376191,11.895853263095239
20.61257816,-4.332822425428573,0.9635472099080945,-1.8044695853761905,14.821761772142859
20.62938482,0.38544279028571166,0.34146919966999917,-0.5168803301380954,18.35536256642857
20.6461902,3.5140162988571406,0.09879048928904681,0.2825094408142854,20.345688260238095
20.66299761,5.211688052999998,0.04909444120333252,0.6282944228619045,20.96687354309524
20.67980699,6.033515578333331,-0.11872159032047701,-1.0558237570428575,22.420585501666665
20.6966034,6.546210005347617,-0.27763849513000083,-1.371985253328572,22.325611661380954
20.71342191,6.503549155823807,-0.3317912392728579,-1.2290074706619052,22.412374754714286
20.73022159,6.600506816776187,-0.27590040240190555,-1.3987501002809526,22.303471807571427
20.74703537,6.8209967726809495,-0.28404472997666746,-1.7132632045714287,22.203736807095236
20.76383512,6.953430209728569,-0.39545234484809605,-2.065162045190476,22.279016313761904
20.78065174,7.00806666568095,-0.5169090871338103,-2.281835078761905,22.34781307757143
20.79745744,7.016855410299998,-0.6454261840671437,-2.367173080904762,22.37845764042857
20.81425411,6.946538868728569,-0.7858756881433341,-2.3278856500000003,22.415461779476193
20.8310624,6.803169965919045,-0.9444929689195246,-2.2148909110000004,22.491508997095238
20.84789194,6.647241763014283,-1.1128731499338103,-2.125446160142858,22.581652823285715
20.8646884,6.465824343442855,-1.2802112175147629,-2.092623187904762,22.710638493761905
20.88148353,6.273331449442854,-1.4522432530385723,-2.084621451666667,22.857398629142857
20.89830415,6.021050487490474,-1.5656010524576198,-1.9354517455238098,23.002012960619048
20.91511091,5.750801642966663,-1.6349100571719057,-1.7269721820952384,23.14210395442857
20.93192053,5.409311589728568,-1.6545734535052388,-1.7483871886666666,23.48076238304762
20.94872478,4.252329349585712,-1.908434750252858,-2.598409504714286,22.91825558652381
20.96553794,0.3900582677285686,-2.1506902818766673,-4.269402469666667,19.647809207714285
20.98233974,-4.252016317366669,-1.4923472787290484,-5.1563787800476195,15.799701919095236
21.0768686,-6.421160811652383,-1.031992428300477,-5.153356767761904,13.701904065285714
21.09369241,-3.756444908795242,-0.8428661411100007,-3.8324508324761903,16.56416989004762
21.11049467,0.4234580306333298,-0.7600852690623817,-0.9549226872380958,19.14747652766667
21.12729827,2.971290224571425,-0.45924091758619123,-0.14400492376190524,21.240117002714285
21.14411697,4.732378732190473,-0.28085466077666743,-0.4452733424285719,21.66956907652381
21.16091726,5.520258835047616,-0.21575423926666745,-0.7060764970000004,21.55603470604762
21.17772879,5.984668776761902,-0.16640998912857222,-2.9917293160952387,23.66261543652381
21.19453167,6.143804345476188,-0.19169541479523888,-1.9476290541904768,23.657022287
21.2113453,5.742348693333331,0.1512460112999992,-1.2807617980476198,23.986853787
21.22814785,5.733510357666664,0.5980162393761898,-1.1375172590476197,24.07554013795238
21.24495882,5.80631199285714,0.9786612789285705,-1.315069141666667,24.203040094142857
21.26176418,5.873342627142854,1.2916396601333324,-1.4999347299047625,24.275700924142857
21.2785711,5.922392322380949,1.5661245783857136,-1.626904612333334,24.324005713666665
21.29537929,6.049777915761902,1.774493824919047,-1.732843228571429,24.289088151761902
21.31218626,6.224577562619045,1.8927399800619042,-1.9275939917142866,24.254459449857144
21.32899874,6.403366883095235,1.984970464671428,-2.1933852375714293,24.239046371285713
21.34580395,6.545995325761902,2.059707533823809,-2.5000828105714294,24.25739817652381
21.36260723,6.65938502238095,2.128077206233333,-2.8073199361428576,24.29725098842857
21.37941626,6.773696444999998,2.2007890770190466,-3.071215016333334,24.333503554476188
21.39622388,6.896413325999998,2.2771264485714275,-3.281658127000001,24.355412465666667
21.40883092,7.019977274142855,2.3409693468952377,-3.4655245597619055,24.375904533809525
21.42563728,6.244939077238092,2.230598594519047,-4.169371059809524,24.287884656190478
21.44243353,2.0653133619047592,2.1591678602761895,-5.846343676190477,20.68994384904762
21.45925142,-2.725920631666669,2.3428041963999995,-7.181107021619049,16.60179318952381
21.47606134,-5.518675350000002,2.30492769825238,-8.049081847857144,14.58211862142857
21.49286464,-6.931308451190479,2.301435149919047,-8.40532834195238,13.96252654095238
21.50968057,-7.514342898476193,2.3336440297285703,-8.435986201,14.02642025495238
21.52648367,-7.901251293428574,2.3946263053142847,-6.106843176428573,11.844036504428571
21.543277,-7.8178607623333365,2.506171067661904,-6.81778306052381,11.437783087095239
21.56009672,-6.567696548714289,2.3616552921380944,-6.655576047428572,11.149401360428572
21.5769078,-3.188790434857146,3.056027196661904,-4.570022242238096,14.20783582042857
21.59371295,2.233382112809521,2.6194942224238082,-2.933441843238096,18.70875377947619
21.61052108,5.58190139280952,2.1652733484714277,-2.537853467952382,20.93531579709524
21.62732513,7.433892864714283,1.7437940438047608,-4.874119350000001,23.26504310614286
21.64413553,8.238833996666663,1.1300144535666659,-5.414002259571429,23.718777219952383
21.66094842,8.05646966933333,1.02017691015238,-4.735669204142858,23.789946508999996
21.67774948,7.717072420761903,1.1056348652476182,-4.32647391727143,23.965706033761904
21.694556,7.606442294761901,1.0282348166714275,-4.732396761652382,24.355281547095238
21.71136586,7.58438035642857,0.9478455667809514,-5.140839349700001,24.70406072614286
21.7281758,7.539353509142854,0.9067661137199992,-5.247576486319049,24.81266099614286
21.74496707,7.469395344571425,0.9012554571152371,-5.260073479985715,24.868751276619047
21.76178929,7.3652980236190455,0.9445297462152372,-5.215621448509525,24.914669007095238
21.77859183,7.221208347571426,1.020239319067618,-5.096049376700001,24.94838272233333
21.79540025,7.045797645428569,1.1007580359295228,-4.972753547271429,25.001197233285716
21.81221054,6.881509692285712,1.1357522067104753,-4.849726881080953,25.026822243761906
21.9004495,6.813024386857141,1.1824915522390467,-4.8257565496523815,25.05130667804762
21.91725572,6.751362462238092,1.2123550630485704,-4.849526700319048,25.110812595190477
21.93406293,6.728723959666664,1.1890712067628562,-4.930249917890476,25.181391910238094
21.95087083,6.692811241571426,1.1691860300485704,-5.051732267461905,25.288438502190473
21.96768108,6.5090878145714255,1.2316296440342849,-5.254129296033334,25.566438347619048
21.98447703,5.7821092400952345,1.141769057129523,-5.926226365890478,25.330472327523808
22.00128998,2.763882048809521,0.10173071003428487,-7.569893927747621,21.94873779919048
22.01809096,-1.5250390816666695,0.35657253722476107,-7.699344226319048,18.13253209490476
22.03490863,-0.03486483357143164,1.3258601027961898,-6.169655254890477,19.965524428238094
22.05172478,4.0691463407142825,0.7985376173199993,-2.754281588700001,22.553397381095238
22.0685214,6.291322211095235,1.0109894613199992,-1.6314097357476196,24.13542266442857
22.08531291,7.818097525380949,0.38467601335333257,-3.814265796176191,25.722888005380952
22.10213881,8.155476435809522,0.301375178734285,-3.4485169592857146,25.52660448204762
22.11895258,7.836879459619046,0.767463961929523,-2.608105023661905,25.506875584904762
22.13575229,7.655005411333331,1.0741347298723802,-2.2704219818047626,25.40169080061905
22.15256272,7.5811324818095205,1.2762046368476183,-2.650265285138096,25.78021546966667
22.16936368,7.458727611047617,1.4904229354285707,-3.0987960272809523,26.242005078714286
22.18618239,7.447199550523807,1.6653557388571423,-3.375742594661905,26.495125224428573
22.20299222,7.551031250428568,1.8635177269047614,-3.570960976328572,26.624439772047616
22.21981106,7.73022097785714,2.079229354571428,-3.719979400233334,26.687275372047615
22.23659692,7.93800808285714,2.3198927921904757,-3.820105394233334,26.71432340633333
22.25340665,8.056296554428567,2.5507901619999993,-3.807481153138096,26.725309626809523
22.27021229,8.155847301190473,2.764267994904761,-3.8231499313285715,26.754985291571426
22.2870211,8.183009398952377,3.03767125347619,-3.876102879376191,26.875171683476186
22.30382985,8.245741368904758,3.2690382965714275,-3.894593579852381,26.932658276809526
22.32063513,8.30706700980952,3.496089361666666,-3.8965126223761914,26.979445470142856
22.337439,8.328876769428568,3.7480474139999993,-3.9625246642809526,27.104514773095236
22.35425317,8.143284617619045,3.955518750619047,-4.575768380376191,27.310632360476184
22.37105847,7.17193758085714,4.023636982238095,-6.1020608632333335,26.492095317619043
22.38786511,2.583113808142855,3.4203798258571423,-8.128011022614286,22.309629942857143
22.4088768,-3.096857162285717,4.299629512285714,-9.240662643280952,17.19464673852381
22.42568487,-5.919458003571431,4.684608317571428,-9.780195304709524,14.983469235761905
22.44249116,-7.077974137904763,5.442137826095238,-8.069736798804762,13.063346082095238
22.45929726,-6.7196907771142875,5.387450570185713,-8.03827985147143,12.934060925809526
22.47610638,-5.041711262352384,5.07534891085238,-6.9535284270952396,13.440250249619046
22.49291039,-1.5969785961619078,5.634178990471428,-4.384693531809525,16.315845367238097
22.50972483,3.4566671281714254,4.914119732090476,-2.265197958476191,20.101295206285716
22.52652791,7.150845528171425,4.026605163614285,-1.3003310931904768,22.336377665333334
22.54332281,9.445585024219046,3.375320037519047,-3.1989317170000002,24.706001598190475
22.56013362,10.399075599171427,2.3378354597571422,-3.3766582350952388,25.199650445333333
22.57695114,10.379909175028567,2.1288415707571424,-2.9301528020619054,24.90552489352381
22.59374706,10.35431262450476,1.9129489719952373,-3.5013518559666674,25.359328152095237
22.61056161,10.267439115885711,1.6500286264238089,-3.685273442919048,25.47114426447619
22.62736346,10.15578458445714,1.4643055260428564,-3.641987210204763,25.43324753304762
22.64417878,10.075090476695234,1.2291035428047612,-3.5214634849666675,25.307959647333334
22.66099976,9.932035923219043,1.037660780709523,-3.298320543204762,25.197217231142854
22.67779662,9.640884649599997,0.8831431074238087,-2.921368485400001,25.251588020190475
22.69458743,9.268548670838092,0.6999635813285708,-2.5837203207619055,25.40103766638095
22.71140576,8.892014367742853,0.4818984443761899,-2.345148200095239,25.549893659238098
22.72822359,8.580974670219044,0.26850813379047556,-1.9982999392857153,25.593483327809526
22.74502565,8.295993441980949,0.08484101048571366,-1.5286969230428578,25.593467700666668
22.76183594,8.008251599076187,-0.06641674003333396,-1.0134810039000008,25.710277233095233
22.77863899,7.69501860940952,-0.20592052275238157,-0.8563517843285724,25.87617451442857
22.7954495,7.391259420409521,-0.29457627271904824,-0.976006893900001,26.168455952857148
22.81225524,6.947273118095234,-0.2863894952904768,-1.653382959852382,26.301333247238095
22.82904975,5.636008625666664,-0.3861961304523816,-3.0010710671380956,25.37196250152381
22.90889573,2.3935979658571394,-1.071480994833334,-5.3839568185190485,22.197331749142855
22.92571756,-2.4700173199523845,-0.46853654150000057,-6.757029805899999,17.723032507476187
22.94251399,-5.682456652838099,0.1803488476476184,-6.419603892757144,14.942721383380952
22.95930323,-6.703378178076194,0.602777747919047,-2.7718202499000006,13.195327960523809
22.97612556,-3.341557775219052,2.6111432883952377,-0.41034671228095343,16.55730285957143
22.99292234,2.3519904970666627,2.187368682680952,0.8677156312571419,21.790125293285715
23.0097468,5.750195459304758,1.3532026442999991,-0.16481038493333414,24.572174880904765
23.02654473,7.264376936780949,0.515790184680952,0.1777165504952371,25.352972304238094
23.04334385,7.417447590971425,0.26843915134761853,0.21838063297142762,25.240392403285714
23.06016837,6.781790280352376,0.30656714134761853,-0.03140937683809616,25.90217055757143
23.07695947,6.548123724066662,0.2511492176333328,-0.6278034159809532,26.453559073285717
23.09378242,6.6670611708285685,0.020044378204761376,-1.2106526685952388,26.579247582333334
23.11058259,6.82686533320952,-0.17639610279523862,-1.695560658995239,26.58962703376191
23.12739698,6.903525535114282,-0.29416738770000056,-1.9960256524238105,26.632165093761902
23.14420031,6.815754527971424,-0.19505052306666723,-2.1383878837095245,26.75500475233334
23.16100852,6.580663772733329,-0.05094668095238147,-2.071387312952382,27.009194221857147
23.17781349,6.425108910828568,0.02286933180476139,-2.105518067857144,27.15452707566667
23.19462712,6.401022548923805,0.0549136942380947,-2.0033941488571436,27.168918498523812
23.21143308,6.404529164161901,0.16145963639523755,-1.8462681876666676,27.116802291857145
23.22823686,6.339508330495234,0.3883705170190471,-1.855792850952382,27.22891475804762
23.24504662,6.305937405304759,0.6271930311333328,-2.0342856468095247,27.407798265190475
23.26185532,6.273556710876187,0.715711991228571,-2.1861999709047626,27.553033966142856
23.2786601,6.199702809447617,0.7933505378476186,-2.4524518755238103,27.784253318285714
23.29546827,5.909766539428568,0.9203709394619043,-3.137186719571429,27.729527900142855
23.31227688,4.816975277142854,0.991894767619047,-4.521117152952382,26.678513354476188
23.32908352,0.6471017442857105,-0.22350643357142913,-6.6691083335714305,22.64628643352381
23.34588706,-4.917076837714289,0.12399725690476136,-8.436816385476192,17.602904362095238
23.36269926,-8.206699189761908,0.88835464187619,-6.859108913142858,14.262867684761906
23.37740734,-9.542261305190479,1.7086043981619041,-7.067969355904763,13.289998974761902
23.39421328,-9.451523735285717,1.86447931747619,-7.308531022714287,13.46445603047619
23.41102208,-7.514213652428574,2.223224131571428,-6.984669128761905,13.338902234761907
23.42783063,-1.5444766881428609,2.446280493380952,-4.250002032095239,17.956984565714283
23.44462492,3.784718016047616,1.838369735523809,-2.532130865904763,22.283648715714286
23.46144277,6.516655878428568,1.8439550313333326,-1.7956678868095246,23.87144315952381
23.47825142,7.880910875095235,2.011232106333333,-1.4672126884285726,23.983438343809524
23.49505824,8.55349070863809,1.9870700749999994,-1.5435184865714295,23.57697883761905
23.51186486,9.00749788020952,1.7850116802380949,-3.7159897375238105,24.888818904761905
23.52867249,8.815308527352377,1.6999839628409041,-4.506695827285715,25.26976543285714
23.5454838,8.447583609257139,1.7437651752694754,-4.693373691904763,25.66087312904762
23.56228779,8.36250032878095,1.5551058252218568,-4.929490702904762,25.825567055714288
23.57909674,8.407781194019046,1.2121273364123328,-5.14592722509524,25.87587680619048
23.59590484,8.383450691161901,0.8838594385075709,-5.172214031476192,25.86258040952381
23.61271092,8.268162819685712,0.6724816305028091,-5.077663580809525,25.85339911761905
23.62951838,8.106981392638092,0.5714509458361423,-4.942834559190477,25.882259863333335
23.64632655,7.9144523045904736,0.49619582431233283,-4.89425906704762,26.01362700747619
23.66313242,7.642087756399997,0.4791744748361423,-4.760332062380953,26.181549572666665
23.67993987,7.3108041644952335,0.48842647240757087,-4.438809735666668,26.233724352666666
23.6967478,6.955441340304759,0.5210537597885233,-4.073906694190477,26.264113462190476
23.71355541,6.58863149520952,0.5753293746742376,-3.771674542238096,26.334538338095236
23.73036265,6.222199350638092,0.6397108094837614,-3.4648404575714293,26.381793384285714
23.74716988,5.873915582971425,0.7024500710266185,-3.03359019204762,26.269913716190477
23.76397898,4.534839131923806,0.25112698207423756,-2.962175199142858,25.67516609904762
23.78078633,-1.174995559361908,0.017842048836142304,-5.116130023000001,20.477891107047622
23.79759407,-6.416457017504766,0.7377155905885233,-6.551484619047619,15.888537672666668
23.81440138,-8.977107683885718,0.8066138903794756,-7.1968888216666675,14.111288321714285
23.83119978,-10.04063213440953,0.7126814987275709,-7.530013572809524,13.785249870285714
23.84801511,-10.280555747809528,0.626615325072809,-7.648229633238096,13.947556594238094
23.86482578,-10.059320052476195,0.6893723339347138,-5.756239107714286,12.050340755190476
23.88163159,-8.291693880571431,0.7333563043033328,-4.702270042190476,11.96358532995238
23.89842352,-2.383834076761908,0.9371622277319043,-3.0710707729047626,16.171420272809524
23.91524462,3.330564126571425,0.9274292490176185,-1.5967328318095244,20.703089572809525
23.9320408,6.330013674666663,0.9420475663033328,-0.7422834008571435,22.54822403614286
23.94886393,7.541832324666664,0.7504425944461899,-1.5846343151428577,23.363841356619044
23.9656669,8.012527161666664,0.46458088087952326,-2.0606885974761915,23.593451603761906
23.98247267,7.948677485476188,0.2528927426890471,-1.777863399971429,23.618924837571427
23.99928482,7.365185933095235,0.4122360080699995,-1.3744020799238101,24.217982518047616
24.01608959,7.191351177857141,0.710231904641428,-1.9080108569238103,24.708529471857144
24.03289811,7.149865709285711,0.9510067518795233,-3.433534655876192,25.939167865190473
24.04970474,7.222256992380949,1.1130700269271423,-3.9243940506857147,26.191134136619045
24.06651467,7.359322153333331,1.1992990787842852,-4.190819410495239,26.233176245666662
24.08332097,7.514293117190472,1.2711996054509518,-4.366486378542858,26.209244663761908
24.10013062,7.630073788619045,1.3595416703557137,-4.437784194400001,26.165075442761907
24.11693439,7.683410363523806,1.4468307766414281,-4.291499739019049,26.093040545190476
24.1337438,7.662154052904759,1.4967939159747614,-3.8230491473047628,26.134597337190474
24.15054114,7.59537235038095,1.5397480088890472,-3.18862584597143,26.246837363476192
24.16735683,7.4780305594761876,1.6155273537647616,-2.6066069710190485,26.25811898395238
24.18416448,7.336287467142853,1.6934338502261899,-2.1970499236619054,26.193367868952382
24.20097358,7.170871226428567,1.7844726974999994,-1.9905159353761912,26.183737094285714
24.21778113,6.876446431476188,1.8888048671142852,-2.0839677532333343,26.464824515
24.23459069,5.621455989999997,1.9551316556190472,-2.827272164804763,25.969972498809522
24.25139443,0.3308424508095202,1.7462431930476185,-4.6254453201380965,21.293348276904762
24.26820389,-5.090733050809527,1.8869823160952377,-6.090304873852382,16.54224210738095
24.28500789,-7.88041936719048,2.038930711333333,-6.835381575614285,14.479303978809522
24.30181817,-8.850390161333337,2.383184733857142,-5.959048611471429,13.480322554523813
24.31862812,-9.030541442238098,2.7635876281428566,-5.508959383947619,13.067389750285713
24.33543507,-8.620804718285717,3.0069276832857135,-5.842632588642858,12.823173595047619
24.35224642,-7.458434309000002,2.956345705809523,-6.1952515781190485,11.90240417247619
24.3690453,-5.308650856619051,3.4388401961904753,-4.69490653002381,12.780659354380955
24.38584186,-0.2887711070952421,4.194474413047618,-1.970686344785715,15.723696369142859
24.4026625,5.232186792190473,3.2075984700952374,-0.7788139752619055,20.086810469142858
24.41947136,8.297652083619043,3.1263542965714275,-0.028432210357143717,22.21845434390476
24.43627652,9.629253340238092,2.954034419576666,0.2971128735666658,22.693712572476187
