Time (s),Linear Acceleration x (m/s^2),Linear Acceleration y (m/s^2),Linear Acceleration z (m/s^2),Absolute acceleration (m/s^2)
0.351574633,0.5017965634619047,0.34598818281104765,0.14695421995409524,0.8882615676904762
0.368383124,0.45275565555523806,0.4121868951110476,0.10588028174457141,0.8878003354047619
0.385190821,0.42904706227523814,0.5009166853681906,0.08393138930171429,0.9435246616428572
0.401996381,0.40921449660476195,0.6012986273777143,0.08274762118742858,1.021731101957143
0.41880409,0.34777452831428574,0.7187698909029524,0.06925232920647618,1.1126031652142858
0.43560136,0.21673786071428572,0.8332146916791429,0.06197771854933333,1.211153668547619
0.452420542,0.08147916338095239,0.9788880802219999,0.04841182060647619,1.3721487890238095
0.469216002,-0.09220583098571428,1.205446561164857,0.07003196644933334,1.5902927903571429
0.486034726,-0.26104703404761903,1.4220194135267619,0.11862080718600002,1.840189671747619
0.502830939,-0.38689019566666666,1.5704585938267617,0.10897988645742858,2.0037384083666665
0.519653915,-0.46995701108571425,1.6067600704458094,0.05566340680980953,2.08136568822381
0.536456729,-0.5522822993095238,1.6918814296077143,0.054347991900285726,2.1406863558904763
0.553265302,-0.5913692996571429,1.7820315361190475,0.0665426310612381,2.213730878561905
0.570074851,-0.5922537644661905,1.7599252292242855,0.08628733097076191,2.2414306321380955
0.586877206,-0.5675292355614285,1.4877716019385712,0.08833441701838096,2.454807986933333
0.60369172,-0.5236609436328572,0.9831244378004762,0.01570292843028573,2.8890058782666665
0.620498594,-0.38607875507095235,0.29536413003380957,-0.10815123115066665,3.562368492990476
0.637301641,-0.15093050683761902,-0.5429910251,-0.1873466454078095,4.41121807882381
0.654109258,0.1482475485004762,-1.4493625503333334,-0.09421774923999997,5.332282159985714
0.670922276,0.4305006322242857,-2.3807672088809526,0.16287437895523812,6.281817674228571
0.687729626,0.6897200516242856,-3.376774355995239,0.45477738371238097,7.276281571171428
0.704535361,0.943459976282381,-4.389174029566667,0.6305810227228571,8.27855399622857
0.721342753,1.1797098091509524,-5.382400852804762,0.7303124708847619,9.15506330684762
0.738150521,1.3533243111166666,-6.119110152090475,0.9091961099895239,9.73676062527619
0.754959806,1.45676340373,-6.3902573805190475,1.2241922673657144,10.0174970588
0.771764888,1.501915795434762,-6.281200158423809,1.5518726706180952,10.298526467799999
0.788573206,1.5220256135299999,-5.891495340566666,1.7313801134800002,10.7026242388
0.805375909,1.5226085015300002,-5.270983695233333,1.7154545187419048,11.291299398800001
0.822196372,1.5644148133395237,-4.534752595423809,1.4729927635990474,12.004843156942858
0.838997366,1.6542599030538094,-3.8073118522333336,1.1185739692704761,12.737324949133335
0.855802837,1.749146149225238,-3.1335424918523813,0.8524985170990478,13.432973907466668
0.872611326,1.818853213625238,-2.546087877804762,0.6866944601942857,14.01215693327619
0.889423184,1.8461169117490475,-2.1013561427095238,0.5332750336657144,14.472347834466667
0.906229325,1.8257781493728573,-1.8152309141857144,0.43938950688095246,14.769592545561904
0.923023859,1.7646196569047619,-1.5087584537619048,0.356598748947619,15.023801187
0.939842167,1.671780512390476,-0.9493220417142858,0.2821232732190476,15.103418209190476
0.956640301,1.5456286781904762,-0.11164431314285733,0.30128843717142856,14.990279952571427
0.973458222,1.3358666272,0.9978905863333332,0.37897814443333333,14.707161811761905
0.990249593,1.0266142628904762,2.2613373487142856,0.41667318614761906,14.250847852619048
1.007075793,0.5987733715571428,3.6493509158571427,0.35888759567619044,13.814369074047617
1.023881722,0.059545159271428595,5.217475142047619,0.2555682686285714,13.536632382619045
1.040674618,-0.5267060995857142,6.937333493000001,0.18320450600952382,13.336155267380951
1.057496903,-1.049091424347619,8.293810095190477,0.11933815181904762,12.777663581761905
1.074300765,-1.5643057540142855,9.1862426258,-0.10925869446666667,12.125069623380952
1.091115694,-2.002382227442857,9.5795341898,-0.4185683473238095,11.811271716190477
1.107916597,-2.3589812290619045,9.64353990532381,-0.8789774890380952,11.724275780619049
1.124730846,-2.584749431866667,9.570515609704762,-1.2791290142285714,11.592623622095239
1.141540505,-2.6251591614380954,9.251849310466666,-1.5955133978000002,11.27854104752381
1.158343036,-2.3933173133904764,8.277527990514285,-1.7720083509714284,10.75374931547619
1.175149044,-1.9322924045809524,6.709762890990476,-1.6297536776666666,10.483145653095239
1.191958917,-1.2456621783904762,4.832853180990476,-1.2167385164285716,10.580675376428573
1.208764978,-0.3685846555619047,2.7426784605142855,-0.6694890403333333,11.189924114047619
1.225573042,0.4737745808476192,0.6187189648000002,-0.0572312190952381,12.174286095952382
1.242379162,1.028329179304762,-1.3106356118666664,0.3999963516190477,13.11616879738095
1.259187785,1.539708126071429,-2.9110617862476187,0.6297260494285715,14.043438256380952
1.27600002,2.0160014117857146,-4.1163841427714285,0.7335111044761905,14.76195088447619
1.292815224,2.3792942477857144,-4.996746948580952,0.8543622181428573,15.07967998438095
1.309611813,2.569683506319048,-5.5852080978666665,1.0177320837619046,14.998364163857145
1.326418126,2.569740170466667,-5.864479814009524,1.2005779005000001,14.778520193714288
1.343227482,2.5072741053952385,-5.733100141628571,1.3428865131666667,14.928918858095239
1.360035444,2.4779236203000004,-5.369166214961904,1.3989645611619048,15.29574677952381
1.376828899,2.5378815673952384,-5.125889891628572,1.331066594257143,15.505371614761906
1.393650422,2.6423548403476196,-5.091949894009524,1.1901397960666666,15.483631554285713
1.410457529,2.677927936871429,-4.799336138104762,1.060244597157143,15.715540190380953
1.427259163,2.7075578485857146,-4.288862160142857,1.088225095061905,15.965277439238097
1.444064277,2.726844344871429,-3.673310120809524,1.1077545739666668,16.049032274523807
1.460880397,2.768060218776191,-3.2387285458571426,1.1515829705380953,16.151338937285715
1.477684238,2.784888823871429,-3.030019146952381,1.1763718923142856,16.294255210190478
1.494492425,2.747041214109524,-2.864707515238096,1.2574403172523811,16.437987667761906
1.51130539,2.5216309343,-2.3296153430476187,1.4284016695761905,16.532605636095237
1.528111298,2.0415641125857142,-1.362883840095238,1.5087667540428573,16.199439633571426
1.544906026,1.297959759204762,-0.10070264895238104,1.4585029972809527,15.459395985999999
1.561719561,0.32548527487142864,1.5360343572857142,1.3055130761857143,14.36428833761905
1.578538438,-0.6655721779380951,3.528528032047619,1.105549835804762,13.240321331428571
1.595336228,-1.4081388995095236,5.489541099190476,1.0326779463761906,12.362632666666665
1.612153823,-2.097553446128571,7.123410270380953,1.0738284822333335,11.543226948571428
1.628957817,-2.8051451387476187,8.293005080571428,1.207262272661905,10.95768259704762
1.645762667,-3.4771273816999995,9.03256596847619,1.293246678709524,10.749056414619048
1.662572937,-3.954143921509523,9.313855727619048,1.2268902610428571,10.797931753761905
1.679380808,-4.105608735761905,9.060039350047619,0.9161036164238097,10.856499954809523
1.696186725,-3.9263014566666667,8.194098438666666,0.44097941623333337,10.759418043857144
1.712998867,-3.2261299406666666,6.647565489619048,0.011434507566666799,10.827718661
1.72980336,-2.0380594049523806,4.628159852,-0.23086007643333323,11.427831796714285
1.746609471,-0.812044745285714,2.471175976761905,-0.394137004242857,12.322558256714284
1.763416731,0.37459399600000004,0.030922491999999937,-0.45783509733333316,13.634300654809522
1.780221712,1.3972005504761906,-2.005507594190476,-0.43611697561904755,14.815257861476189
1.797036204,2.216833943571429,-3.5494321075238093,-0.28313584195238084,15.664754525761904
1.813841145,2.8056757224285716,-4.631187518619048,-0.14106650219047606,16.10159219104762
1.830649219,3.2164954572857143,-5.186515388238095,-0.07929940658095226,15.971384580095238
1.847454617,3.4167420184285713,-5.21418706595238,0.007531169671428692,15.924351545142857
1.864264339,3.4257585663333336,-4.855348258190476,-0.012743763933333213,16.27281481457143
1.881070571,3.3621425403333336,-4.347736324952381,-0.0470898232542856,16.778846940904764
1.897878868,3.257961829666667,-3.8773699379999997,-0.14799665514952368,17.25687142752381
1.914689719,3.1599150954761903,-3.6005452594761898,-0.339982171482857,17.549781616380955
1.931494527,3.1475368570000004,-3.579535905190476,-0.606460914387619,17.563828632095237
1.948301554,3.215328977428572,-3.6016252275714287,-0.8906314341019046,17.500558877333333
1.965096841,3.2979100660952385,-3.5210799382857143,-1.173327181625714,17.52298888638095
1.981914964,3.4504215606190476,-3.4670903916190476,-1.4533323301019048,17.441698706095238
1.998729,3.6700736002857144,-3.398353123190476,-1.6406520487638094,17.294542758761903
2.015531804,3.8521832400476193,-3.186765603333333,-1.6667492641209525,17.264230158666667
2.032341291,3.8854488080476193,-2.7716130535714285,-1.4443972192161905,17.344506117190477
2.049141797,3.64821321652381,-2.1219344826666666,-1.0257656485495237,17.245840933142855
2.065960715,2.878241845857143,-1.0640514016190477,-0.6386314257876189,16.729326419714283
2.082763264,1.5878891606666667,0.46299212280952373,-0.380929642835238,15.707932092571427
2.097949573,0.19039325495238116,2.3431056337619047,-0.11951393421619037,14.649068969714287
2.112093336,-1.1945194175714284,4.726308141380953,0.1676637817838096,13.406141759238093
2.128999069,-2.3843624137142854,6.882205190904761,0.44628845830761915,12.441461451619048
2.145788976,-3.3508923053333333,8.541420255190477,0.6405673115933335,11.809619081142857
2.162604504,-3.9793588206190473,9.530357860190477,0.7288829347361906,11.348574024476191
2.179406796,-4.291807572000001,9.614708014714285,0.6731484677980953,11.213328956333335
2.196222698,-4.489833570619048,9.261448950814284,0.5773611923980952,11.018680362333333
2.213023009,-4.470687026047619,8.535307634471428,0.4879079195361906,10.439697467238096
2.229819568,-4.006458191619048,7.36006262185238,0.2768075948952382,10.025837408142857
2.246644395,-3.080785228999999,5.738253979471429,0.138754603457143,10.259525282428573
2.263447322,-1.9794046538095238,4.026214395185714,0.2528582045619049,10.903513796238096
2.280253911,-0.851410741095238,2.138060228995238,0.5842578610380953,11.954551589095239
2.297055758,0.20647608623809535,0.06872942328095244,0.9165372990857144,13.174878384809523
2.313870485,1.0113576361428573,-1.8679649038619046,1.0824031745142857,14.247806457666668
2.330656882,1.5430260380000003,-3.260599205004762,1.2109125597428572,15.062064504714286
2.347480834,1.9829330438571429,-4.145164013242858,1.3432040441666668,15.483973654952381
2.364296954,2.411546876857143,-4.556030364576191,1.4014564184761906,15.498968715095238
2.381100766,2.8302115252380955,-4.569234280671429,1.3608648776952381,15.548874216190475
2.397901373,3.234653585809524,-4.22546709162381,1.2664375731000002,15.891859759761907
2.414718469,3.6123000774761906,-3.5964972179095236,1.1360419449095238,16.482509953666664
2.431527671,3.9438856890952385,-2.992644128528571,0.9913187395761905,17.000418039857145
2.448328004,4.3108181947619055,-2.731342089004762,0.7917125366904763,17.123019450333334
2.465144776,4.6729979509047626,-2.8061017085285718,0.5777274114428572,16.88744085795238
2.481951161,4.966095628571429,-3.019976616338095,0.39517307846666677,16.53129383447619
2.498756092,5.161852086666667,-3.16130994657619,0.20732920508571434,16.261016530190478
2.515560034,5.186707768476191,-3.0774042269571424,0.11464595789523815,16.281881573666666
2.532368282,5.091854821428571,-2.7030447554809522,0.13865991428571434,16.46193942685714
2.549179783,5.0525936165714285,-2.430986586438095,0.13116888200476196,16.627752033047617
2.565972577,4.9212995023333335,-2.0716109506666665,0.16408216381428575,16.901826976285715
2.582789543,4.414759453666667,-1.353347597,0.25985597424285717,16.910012186333333
2.599602551,3.4896098992857145,-0.07340662842857129,0.31893307814761906,16.365915787761907
2.616407002,2.376824401047619,1.4875528696666667,0.18725456504285715,15.58846213538095
2.633217029,1.1903285294761907,3.3493826277619045,-0.1415747915285714,14.530968605380952
2.650022285,0.04823761876190501,5.361536888714285,-0.4615130311,13.283087580619044
2.666830429,-0.865822406095238,7.2106696991904755,-0.5598249378857143,12.164441119761905
2.68364363,-1.550171625095238,8.644510791619048,-0.5818479330952381,11.456174660047619
2.700447034,-2.1119309380476188,9.525831722095239,-0.6558128694666666,11.109247828047618
2.717263053,-2.607648100190476,9.720477853476192,-0.6923301262285714,11.011805935904762
2.734062897,-2.986441839285714,9.241540227571429,-0.7264300258190476,10.827001672095237
2.750867402,-2.8773183595238097,7.955318587095237,-0.7526346884619047,10.802721840666667
2.767679136,-2.123335202428571,5.895053182333333,-0.6872765449666667,11.185168692095239
2.784469337,-1.085255214095238,3.6702605204285716,-0.6076841864857142,11.801358259238095
2.801293666,-0.07790270309523807,1.3260563899523807,-0.5001465535999999,12.888857435428571
2.818089054,0.8257195609047618,-0.7352371667142857,-0.43321266059047625,14.092899245904762
2.834906884,1.7045293536666666,-2.510822068904762,-0.3883032202333333,15.259067012714283
2.851717348,2.464279629095238,-3.784490153904762,-0.30142812780476186,15.95106527033333
2.868523875,3.0185863405714284,-4.451266879142857,-0.20051015266190472,16.05006518304762
2.885329752,3.285075914428572,-4.493045897761905,-0.10386742573809522,15.970331533047622
2.902138416,3.328439531,-4.050875118619048,-0.13126819753333333,16.36721649757143
2.918948484,3.3342412768095238,-3.614957378047619,-0.2771308847714285,16.790512992761904
2.935754664,3.3122638294761906,-3.28503838052381,-0.3211651501047618,17.105558084190477
2.952562668,3.284068471047619,-3.0998482252857142,-0.23295411890952378,17.274271439904762
2.969367974,3.2827343033809524,-3.091499487666667,-0.009628730147619002,17.277046141809524
2.986175936,3.2830966541904756,-3.226715882904762,0.2922061029000001,17.181735597047616
3.002971578,3.2715883029047617,-3.418538547857143,0.5492407566142857,17.056132257809526
3.019793395,3.2537981215714287,-3.636762619142857,0.6475314838761905,16.91090786347619
3.036597176,3.2144187746666666,-3.8130390986190474,0.6595691258238096,16.83306674542857
3.05340639,3.1110321227619044,-3.8001744180952377,0.6901964105761905,16.92521621571429
3.070216467,2.8914511999523813,-3.4962602344285716,0.760480743147619,17.27338522533333
3.087024592,2.493738265476191,-2.9090697426190477,0.9017048010428572,17.721062931333332
3.103814619,1.6578584401904761,-2.0177063037142857,1.0439612709952382,17.59228687752381
3.120632479,0.32981999738095236,-0.8282101953333335,1.1107046746904763,16.615753064761904
3.13744516,-1.146271569095238,0.45362808538095234,1.1566147549714285,15.373606526857142
3.154253306,-2.570149830047619,2.136070761761905,1.1805694927333332,13.957374714095238
3.171059527,-3.8346197942380953,3.789446989047619,1.2374784521619049,12.677124046000001
3.187869554,-4.985963912,5.196518238995237,1.2526217784952383,11.510457062619048
3.204672267,-5.932969887857142,6.054167996947618,1.091094276790476,10.799947834714285
3.221483861,-6.501267864380951,6.376871789876191,0.8874499216333334,10.547968125142857
3.238290765,-6.540627888038095,6.169571058780951,0.7291898713952382,10.377128713904762
3.255098646,-6.005866890609524,5.3306839120190475,0.5225584039666666,10.164403119619047
3.271907095,-4.943232059180953,3.8686365167809527,0.2660417203,10.52086636247619
3.288713653,-3.700634184180952,2.3396430920190476,-0.05382581122380961,11.088190769619048
3.305511758,-2.375049068514285,0.719305197257143,-0.296750654752381,11.84859709295238
3.322327359,-1.0857373416571425,-0.9759680656,-0.45282922041904766,12.835191876285714
3.339141344,0.23121559100952385,-2.6999703589333333,-0.6049396664904761,14.052617452952383
3.355947596,1.4036596392,-4.110820452552381,-0.7769168459000001,15.087021959333335
3.372755099,2.3023199358666666,-4.968648819838096,-0.922359189804762,15.68512106357143
3.389557395,2.9460486916285715,-5.22201242912381,-1.0010139814380952,15.637637418428572
3.406370199,3.3394027442190475,-4.976575124885715,-0.988843462295238,15.685278202523808
3.423171682,3.5940392816476194,-4.545646644838095,-1.0003635869142857,15.926051806809523
3.439967996,3.819781439933333,-4.149245920647619,-1.0582639816285717,16.11617935204762
3.456790035,3.954417728409524,-3.713754154314286,-1.1159213142952382,16.349586340619048
3.473599525,3.975987252933333,-3.2574207441238094,-1.1426692080380954,16.624652188142857
3.490405237,3.9680990039333337,-2.8541729108857146,-1.1764640851190478,16.846337015095237
3.507216333,4.026304336028572,-2.617646455695238,-1.231716563352381,16.90587513214286
3.524029319,4.113371258885714,-2.4709028742666668,-1.3319934081761904,16.881156136904764
3.540829235,4.198988483266667,-2.2444489568809525,-1.4448928010238096,16.86946665157143
3.557636677,4.293139526028572,-1.923212414595238,-1.4594076914809524,16.867354671190476
3.574446156,4.294309207552381,-1.6495735076666669,-1.4005862815380954,16.970049338333336
3.59125254,4.0380273094,-1.4160575865714289,-1.255379268157143,17.234578550571428
3.60806101,3.4090272814,-0.9537080582380953,-0.8829748290619047,17.14335984295238
3.683694815,2.2060992832571427,0.10328601680952365,-0.43299862321904764,16.46547259438095
3.700504088,0.8454046478761905,1.2752467566190475,0.01793664411904766,15.630950506761902
3.717309528,-0.5747896602190476,2.5103829930476187,0.2999289144304762,14.600055735666666
3.734105272,-1.9218206404095237,3.870385737619048,0.37181977094476193,13.366130867761905
3.750924902,-3.2214079811714282,5.276548908,0.2960020780971429,11.871732453809525
3.767735651,-4.166820117242857,6.204320975999999,0.20222300807809526,10.622544496952381
3.784542066,-4.248053323433333,6.365256877428571,0.17324191279238096,10.456055238380953
3.801347067,-3.470636208528571,5.719854854714287,-0.026436530921904716,11.46523737652381
3.818147319,-2.194097972642857,4.111418269952381,-0.4922216142552381,12.714424318904761
3.834963357,-0.7505792887857142,1.8574982142380945,-0.6730766443980952,13.835737494619046
3.851769681,0.5639072148333333,-0.2822767438571432,-0.6898771955885714,14.673590175571427
3.868580238,1.8223138539761905,-2.0027680624285713,-0.8325926837314286,15.221781667
3.885386308,2.887520972261905,-3.099450156714286,-0.937428713417143,15.374198947476192
3.90219315,3.6542248049761903,-3.644116855714286,-1.012690456712381,15.149358219523808
3.919006423,4.062264670014286,-3.794205324904762,-1.0496506781838097,14.846360106380953
3.935787864,4.128547578157143,-3.6266538301428577,-0.9895927315504761,14.934113296380954
3.952618897,4.019888674014286,-3.3151524179523815,-0.8684352570838095,15.243369480333333
3.969426259,3.8203085952047617,-2.985788345333334,-0.7318204064933331,15.627226046238096
3.986235868,3.562484174490476,-2.72791594552381,-0.6089308125171428,16.004362588190478
4.003018247,3.27737331482381,-2.5825064522857146,-0.5144546406123809,16.32676071290476
4.019849067,2.9781864264428575,-2.5962225822857143,-0.4392497913742857,16.55803677195238
4.036643518,2.8276160112523807,-2.745928764285715,-0.28311939802666664,16.61058716195238
4.053463148,2.7553364671571434,-2.946186451666667,-0.14954382803142852,16.566574484809525
4.070258833,2.7633098429190475,-3.0616189638571436,-0.09511995034285711,16.500764398238093
4.087078227,2.782338393014286,-3.0829703921428573,-0.07538674561428568,16.474276020238094
4.103883962,2.702362765252381,-2.881155763380953,0.017347545828571464,16.65962220257143
4.120693815,2.3793812941333337,-2.284819534857143,0.13819542380952385,16.984624896095237
4.137505124,1.479482378847619,-1.3268735295714287,0.2531289882016191,16.789305679904764
4.154306778,0.01926002094285728,-0.18052975347619077,0.5070995588775238,16.010657903714286
4.171120385,-1.6406236145333335,1.2502169382857142,0.9220997208346668,14.744591404666668
4.187925215,-3.2094673196761896,2.894327515904762,1.0325073911918095,13.163662271904762
4.204737734,-4.495834509009523,4.390602089142857,1.0034959671060952,11.774297730904761
4.221540193,-5.612060046866667,5.634150641380952,1.0813637872394286,10.747501254761906
4.238348784,-6.449355806390476,6.3564449491428565,1.0529278474299049,10.178435775
4.255155435,-6.933393182961903,6.49455638152381,0.9270877114251429,10.003031907190476
4.271965329,-6.907243955476192,6.148368585619049,0.8009649018441907,10.011018517
4.288768866,-6.145052183238095,5.189328216428572,0.6965269091394286,10.198014130809524
4.305580164,-4.933721224285715,3.8655613264285713,0.5547334225156191,10.587514421285714
4.3223777,-3.590361186666666,2.487725099285714,0.10451535808704773,11.038968133666666
4.33919331,-1.9699673885714286,0.7067955340476191,-0.6097382948177142,12.102461203190476
4.355999391,-0.21301855428571398,-1.246393634666667,-1.0689621782939045,13.45042316557143
4.372809641,1.2761885776190478,-2.8392885519523814,-1.094628948770095,14.420406139380955
4.389617694,2.364075523809524,-3.817426363095239,-1.0683211842462856,14.82401004842857
4.406424404,3.015343801666667,-4.301106316142858,-1.172945245226762,14.714612194523811
4.423219082,3.2601246146190483,-4.475716613038096,-1.3852991275600952,14.518559213047622
4.440040452,3.172355446857143,-4.441679431704762,-1.6486267318029524,14.66923606947619
4.456848157,3.000876085476191,-4.3576703519904765,-1.884510728422,14.875573322523808
4.473655225,2.8277557683809524,-4.18264500232381,-1.9457930622934287,15.12046437395238
4.490457612,2.639781360809524,-3.9652646147523813,-1.9047403800569525,15.408607298238095
4.507269286,2.4816204925238097,-3.9169675501333336,-1.893749642785238,15.555704998238095
4.524066994,2.323765912761905,-3.96914668232381,-1.9338340033995238,15.657992531571427
4.540883268,2.1112853221904766,-3.930108194466667,-2.0191083194233332,15.867262364333333
4.557699073,1.8886752572380954,-3.858726341752382,-2.1153694531947616,16.101926845809523
4.574499538,1.687544730857143,-3.870988958609524,-2.172367053232857,16.258755911
4.59131114,1.5006177529047622,-3.828405538419048,-2.1918304107090476,16.41877327547619
4.60811487,1.3058963266190478,-3.6311550359428577,-2.136869331042381,16.622755469666668
4.624929852,0.9394546226666669,-3.2142571940857145,-2.066064996232857,16.818259582238095
4.641728485,0.13362057928571439,-2.4170005655142863,-2.05331476089,16.529656196809523
4.658543761,-0.9697666404285714,-1.3974426354190481,-1.9999429340804762,15.83625892761905
4.675346454,-2.143257641380952,-0.35503044541904816,-1.620670441937619,15.020891527714287
4.692155483,-3.5892334444285714,1.1882765181999997,-1.0206729638471428,13.655251658333333
4.708973597,-5.153697014285715,2.9966889338666665,-0.7387167481614286,12.045189062904763
4.725767775,-6.394484202666666,4.468665202533333,-0.916031801642381,10.77682618995238
4.742580496,-7.166601817190476,5.289632059485714,-1.0827715776804763,10.006043138666666
4.759386212,-7.329796655190476,5.480267400009524,-1.1253351526904762,9.763949024333334
4.776192738,-6.811008476428572,4.992005132666667,-1.0357456817857145,10.250247808714287
4.793006001,-5.75090748952381,3.9033472764761905,-0.8152715549952381,10.910809726761904
4.809809782,-4.558749744380952,2.7388722671428565,-0.6622880626523809,11.380268936285713
4.826600215,-3.113559904857143,0.9404132595238094,-0.701056427904762,12.140623253904762
4.843426314,-1.6438806172380953,-1.1160534333333336,-0.765168719352381,12.963821171523808
4.860235142,-0.26093750914285707,-2.8354863550000005,-0.7427638017047619,13.779335779142858
4.877039533,0.9838972999047619,-4.051730280761905,-0.6984861620857142,14.382387790571428
4.893844474,2.046428271809524,-4.713657549380953,-0.6842653424904762,14.521435457238097
4.91064265,2.908234687238095,-4.844219423380953,-0.7597292845857143,14.40995620657143
4.927462381,3.543424901666667,-4.501499323523809,-0.8982045664428572,14.589280576571428
4.944270749,3.956763335761905,-3.9319236052857143,-0.9778930246333334,14.99949450233333
4.961076383,4.204548200095238,-3.235862289380953,-1.0088507461571428,15.55624079485714
4.977897272,4.348068646142857,-2.5832298029523817,-1.0070593370619048,16.086363654666666
4.994696792,4.4771955809047626,-2.0856533843809526,-0.9692765587190476,16.46222492295238
5.011487897,4.566441831238095,-1.6957871230476196,-0.9100991685714286,16.74482444690476
5.028304567,4.633390563,-1.4368721982857144,-0.8470176287619049,16.91591301538095
5.045118713,4.690707229571428,-1.3258087179047622,-0.7579987077095238,16.97221305047619
5.061911985,4.735967250238096,-1.3069287820476194,-0.6623099644428572,16.960355947476188
5.078732084,4.767365387619047,-1.3173297244285718,-0.5672774654857142,16.93442438704762
5.095536271,4.694742180142858,-1.2197435013809528,-0.4707394837809523,17.055068639238094
5.112333653,4.354201725619047,-0.8773625235238098,-0.3297083490761905,17.30561928033333
5.129156906,3.6270506950000003,-0.11137839700000035,-0.15457581331428571,17.0544234367619
5.1459662,2.6036574726666664,1.044310570238095,-0.005099691009523809,16.36789179047619
5.16276696,1.5309288844285716,2.1051876888095236,0.2126458656952381,15.753815552714286
5.179578532,0.230684325904762,3.5094027293333325,0.5060815641238096,14.685053545428573
5.259414078,-0.7601936885238094,4.308550743619047,0.25353558008571425,13.666082844
5.27621913,-1.1597968055714285,4.6922226402857135,0.038348513014285726,13.14745370209524
5.293030754,-1.3756066731904764,5.290831202428571,-0.09381443542380949,12.581464130666667
5.30982478,-1.191198122238095,5.106826600333333,-0.4801694182571429,12.930169041142857
5.326645182,-0.7374856586190474,3.813518251238095,-0.8871106049714286,14.068371302761905
5.343444731,-0.24822214690476171,1.8773359564761902,-1.037223801590476,14.989336476095238
5.360259408,0.14401606133333353,-0.29151090019047643,-0.9289116829714287,15.556475833238096
5.377054378,0.43542496347619064,-2.3248247420952386,-0.7895505398666666,15.681799929428573
5.393874711,0.6449086323809525,-3.9105718254285713,-0.7690680111000001,15.412667536095238
5.410681421,0.7473599568571431,-4.842070648333334,-0.8538740872238095,14.80135805504762
5.427489993,0.7690649258095241,-5.09592149447619,-0.9266034987857142,14.554564532571428
5.444296389,0.7414000146190479,-4.875031721619048,-1.028404107984762,14.759265554952382
5.461102347,0.711985610619048,-4.510727724190477,-1.1216181430133334,15.083890972571428
5.477914651,0.6683580760000002,-4.082590080952381,-1.2376880247180952,15.458029044809527
5.494720101,0.5622247739523812,-3.6310609867619044,-1.4186170951466666,15.87337276009524
5.511531948,0.4650782855714288,-3.2836389772380956,-1.6076725720038096,16.185136767285716
5.528334814,0.4710869560000003,-3.121638820666667,-1.7359159871419048,16.286986974904764
5.545142735,0.5754508175714287,-3.098314217571429,-1.7822126290942857,16.227767324380952
5.56196036,0.757206405761905,-3.1126590914761905,-1.765089883618095,16.123197187333336
5.578760164,0.9857592921904764,-3.0850751063809527,-1.7315317873799998,16.04147020795238
5.595564759,1.2014945233333336,-2.920266537857143,-1.7328788069038095,16.02100011604762
5.612373035,1.0796697251904763,-1.9319594023333333,-1.2508229157609523,15.842276352714288
5.629183775,0.42065073180952406,-0.6871880351428574,-0.9183507389990475,15.291921166809527
5.645999356,-0.28910947976190454,-0.019705749857143066,-0.7243898679990476,15.052685721428572
5.662796147,-1.2377120197619045,0.8857530865714284,-0.2596359734419047,14.356055407380953
5.679605789,-2.2831147058095236,2.364735739714286,0.2938604525152381,13.145925833190477
5.696411431,-3.2152958596666665,4.050802049523809,0.6368429008057143,11.958153799761906
5.71322221,-3.9191290990952377,5.781710761190476,0.6755338083771429,10.995646765190477
5.730026918,-4.336122887428571,7.0813322069047615,0.6188116726057142,10.192445063761905
5.746834898,-4.409038282519047,7.663794086428571,0.507108969315238,9.699076393857142
5.763640206,-4.109271287852381,7.372149376952381,0.4599336754580952,10.017596708714287
5.780451739,-3.233581463614285,6.074194000238094,0.35153479516285707,10.709466818809524
5.797246048,-2.158710264185714,4.121579352142858,0.17534391650476183,11.403856164999999
5.81406692,-0.8656800475190474,1.582641420238095,-0.012516515609523863,12.654084189285713
5.830860904,0.1835495515285716,-0.854945091666667,-0.1939940538095239,13.785015193095237
5.84768386,1.0115555920047623,-2.787379855,-0.26540951223809534,14.454466056904762
5.864490754,1.6443897994809527,-4.06267806452381,-0.10008417714285722,14.639948862619049
5.881290861,2.0221105414809526,-4.582472301571429,0.11513955813809515,14.404357792095238
5.898109393,2.1798675398904765,-4.415224847238095,0.2319872776142856,14.544983577142856
5.914910865,2.2470818017952383,-3.9118371462857144,0.16895987304285703,14.989889216190477
5.931721949,2.3103388829476192,-3.4345762842380956,-0.062009875304762006,15.379304278095239
5.948525069,2.3724994657095237,-3.140339987571429,-0.3671768010190477,15.595304182523808
5.96532407,2.392808482519048,-2.9551210854761907,-0.6509431955904763,15.72125751252381
5.982138999,2.400029863376191,-2.8238167988571425,-0.8203867064047621,15.811278369857142
5.998964245,2.376000903614286,-2.7369286218095237,-0.8656515380142858,15.89120717838095
6.015757772,2.3592890781857143,-2.7084047906666666,-0.8448784678095239,15.926385561190475
6.032558195,2.3208308217095244,-2.7590275490952383,-0.7755120893857145,15.919790348904764
6.049372963,2.267625331566667,-2.8237703413333333,-0.6451147497238097,15.911816126285714
6.066182511,2.2262891130904765,-2.851981707904762,-0.4677755932476192,15.922541476619047
6.08299858,2.1186150252809526,-2.6495435350476195,-0.27262555281904777,16.158476012809523
6.099797051,1.8439814133238097,-2.153980822714286,-0.036038062485714395,16.498166696047615
6.116603782,1.3108607130380956,-1.3398488361904763,0.10121509706666657,16.479848413666666
6.13970457,0.300158307561905,-0.18013463700000026,0.23705003225238086,15.770608337333334
6.156527072,-0.8331601393428568,1.2368247168571425,0.42740993689999984,14.683220864761907
6.173330498,-2.1497444313428566,3.1460411436190476,0.5468356821380952,12.972450192619048
6.190147086,-3.1594389393428566,4.92655218204762,0.6910309095666666,11.361151238571429
6.206946594,-3.868503877104762,6.167188235666665,0.8003391921380951,10.223091889761903
6.223753488,-4.302485976914285,6.771282286857142,0.6828503367095237,9.63878706204762
6.240561475,-4.426163639338095,6.611883821904762,0.47826200011428555,9.679658641380954
6.257370795,-4.241948684033333,5.570430551285714,0.22056483225714274,9.79342090852381
6.274176371,-3.8830127375095236,3.6867880822380945,-0.02287656783809535,10.171359471857144
6.290985392,-3.55799040337619,1.593256973190476,-0.20078101334761916,10.755397093285714
6.307792015,-3.18804626237619,-0.6877742268095239,-0.2508194078238097,11.753220654238097
6.324597098,-2.7911284537571426,-3.0730501130000003,-0.2520909735857144,12.971473586142858
6.341411464,-2.408875578947619,-5.3037660006190475,-0.22889348623476202,14.169523269000003
6.358214558,-2.094056015947619,-6.894243717,-0.13997734629190486,14.89799195061905
6.375023456,-1.8152970813761902,-7.616808096380952,-0.017681313863333454,14.963596180047622
6.39183192,-1.488477547995238,-7.619294370714287,0.08028134942238085,14.911600589999999
6.408638112,-1.0780118079476189,-7.1400720049523825,0.05859458542238085,15.280880797476192
6.42545403,-0.6596768924238093,-6.533939542904763,-0.1309475378157144,15.789176799809525
6.442253441,-0.2813908713285713,-6.090136346238095,-0.4410230819585716,16.154215474095242
6.459065961,0.022870086485714414,-5.833879833809525,-0.7440977937680954,16.345743397904762
6.475864538,0.3064376513047621,-5.725228559095238,-0.9470906871776191,16.365178846
6.49267311,0.617033231809524,-5.615311122761905,-1.1038518140300002,16.326052997333335
6.509467038,0.948106266194762,-5.465586798238095,-1.1805469723919049,16.28836375047619
6.526292609,1.273875032142381,-5.174237432666668,-1.1374208093776192,16.354035157
6.54310051,1.5461134683357143,-4.716340337285715,-1.0507024289347622,16.567052688190476
6.559890065,1.7757883298880954,-4.113107454238095,-0.9434736304300001,16.842438589857142
6.576715121,1.8988263720404763,-3.4245413373333338,-0.8614545993680954,17.14007059042857
6.593548362,1.865329810559524,-2.634005024428572,-0.8308652884728571,17.359452179238097
6.610331554,1.6033190999404763,-1.572186856333334,-0.7477068237966668,17.24326472304762
6.627130146,1.1226264635119048,-0.01645962433333383,-0.6085379453919049,16.564499396380956
6.643945677,0.6108876863690478,1.6933635753809517,-0.481855249487143,15.660415752714286
6.6607546,0.08188967475000015,3.6507427804285704,-0.4490484329157144,14.419561404238095
6.677560903,-0.4622491201071427,5.748546940571428,-0.45286223324904773,13.027192894809524
6.694369923,-1.032061531440476,7.739694072619048,-0.475479015252381,11.756860514904762
6.711176323,-1.5168993813452378,9.019451549619045,-0.6256770122333334,10.971837181666666
6.72798693,-1.8627481460595234,9.352732567095236,-0.8793214899476192,10.838464996142857
6.744791347,-2.0617305437738094,8.80833312395238,-1.141561445661905,10.894540222142856
6.761599562,-2.0581944329642856,7.3563663387142855,-1.3036394288523812,10.86923342547619
6.778408562,-1.8571353867261902,5.272138913,-1.2839447656142857,11.057912976904763
6.795214419,-1.4354810939642855,3.13669663347619,-1.1706967750428572,11.52586149357143
6.81202212,-0.7692109970166664,0.9023531953809518,-0.9803113454285715,12.525397565952382
6.828818562,-0.10124749207380933,-1.21477799252381,-0.7343691955714287,13.777739540714286
6.845629154,0.4258026852785716,-2.935083049476191,-0.5315861445714287,14.841018267619049
6.862446337,0.7918935506552384,-4.0682651664285725,-0.45685278084761916,15.363769820380954
6.879252824,0.9986666728028575,-4.679516520619048,-0.5194388329095239,15.253857053571428
6.896064148,1.1053729968952384,-4.910154570428572,-0.6334669149238097,15.056860339047622
6.912862272,1.0923310237809527,-4.843629701380952,-0.6934028820523811,15.12357385809524
6.929675788,0.9738884089142859,-4.552490143761905,-0.709747761404762,15.427096084285713
6.946485072,0.7701103236285715,-4.2142819909047615,-0.6979369931857144,15.802178077142855
6.96329161,0.5489557928190477,-3.9966427490000003,-0.7106236119238096,16.08188752952381
6.980099862,0.36226060310476205,-3.938752538142858,-0.7602248403761906,16.226810366190474
6.996910539,0.21934746591428592,-3.983435653952381,-0.8256783867571429,16.292372442714285
7.013714478,0.10679427815238117,-4.028235004523809,-0.879741797757143,16.351575667380953
7.030524581,0.09816252653333356,-4.054971059619048,-0.9375212120904763,16.35550148995238
7.047328448,0.18259047362857161,-4.008713155000001,-1.0140481122428573,16.329951536666666
7.064136741,0.2872270065333335,-3.730088302476191,-1.0254156858666668,16.396448781619046
7.080933595,0.3026603861523813,-3.2818480677142863,-0.9595643040428572,16.538044813142857
7.097741713,0.12108072820000026,-2.628122012190477,-0.8381306869238098,16.642735757809525
7.114562437,-0.3504065895619045,-1.5968863627142862,-0.6664306748285715,16.376908293238095
7.131366644,-1.054919231133333,-0.1803686056190481,-0.4679918998761906,15.702407282761905
7.148166383,-1.9525167713714286,1.3373691463809518,-0.15034306330476202,14.86180750847619
7.164981943,-3.021863199133333,3.1213843477619045,0.15157896565238085,13.682327500857143
7.181794538,-3.9955636318476193,4.863280523095238,0.23186730769999989,12.310817366523809
7.198599123,-4.807561613228571,6.322060743857143,0.22365642727142848,11.199034024952383
7.215406678,-5.395747423133333,7.228785492047618,0.1277785598809523,10.594372401428572
7.232203058,-5.646778276947619,7.203722613095238,-0.028631396309523886,10.615925819857143
7.249023395,-5.548632315185714,6.277129513857142,-0.24195015297619055,11.065624604380952
7.265830009,-5.109675963671428,4.691236473380952,-0.47280790273333345,11.558480912
7.282639929,-4.4025017191952385,2.4918012843333326,-0.5730555185857144,12.215948249619048
7.299445805,-3.5372584206714284,-0.08642898280952407,-0.47742997043809526,13.17477645295238
7.316254311,-2.6973515918619047,-2.5113536061428574,-0.2592690204238096,14.217923794380951
7.333061536,-1.8674351373380949,-4.450025217571429,0.014015993861904694,15.115078099619046
7.349851629,-1.0976203735761902,-5.768956638142858,0.2530903035285713,15.649781233428572
7.366675679,-0.4015750657190475,-6.601397695476191,0.40561615990466665,15.818871348666667
7.383484597,0.19091998970952395,-6.984163624380952,0.4851424197141904,15.690573757000001
7.400291262,0.7073511396619049,-7.026743116333334,0.548510161180857,15.590341355952381
7.417099564,1.1154739289476194,-6.808307170142858,0.6445324151189522,15.719835802809522
7.433910085,1.4360109284095242,-6.384354567714286,0.7679332735808571,16.052796491476187
7.450714085,1.7278675011428573,-5.816794848571429,0.8483573368427618,16.512104855904763
7.467522346,2.0263531208380954,-5.239131336142858,0.7906701167237141,16.94519410809524
7.484330181,2.339360248504762,-4.760111671333333,0.5889462800094284,17.233578178095236
7.501127649,2.6563923018857145,-4.430698257142858,0.21275344915228564,17.31163441952381
7.517945026,2.9814740590285718,-4.304124104142857,-0.2592413141810478,17.191299362428573
7.534752667,3.212927398314286,-4.14638437404762,-0.5822619427048573,17.131374952666665
7.551561854,3.359039749504762,-3.886532736714286,-0.767105000371524,17.209187681619046
7.568359094,3.408644574076191,-3.5502324771428575,-0.7301805586953335,17.430288036095238
7.5851755,3.307273626366667,-2.883423281571429,-0.5389589184572382,17.571969869095238
7.601986539,2.980289016461905,-1.793953962380953,-0.27270112146676206,17.271042674238096
7.618791825,2.4420364357000004,-0.39072134257142915,-0.08920222803819061,16.618986399904763
7.635591328,1.7227077142238099,1.3729725579047614,-0.08985321860961919,15.554906125952378
7.65451129,0.8682230200333336,3.4824464447142853,-0.28101312546676205,14.169417029809525
7.671316066,0.045702059985714485,5.558646929999999,-0.5499805382286669,12.826772291380953
7.688121606,-0.8182777791571425,7.2711721612857145,-0.803210627471524,11.792684906619048
7.704933476,-1.624938204252381,8.325564181095238,-0.9318028631858096,11.151094510238094
7.721739383,-2.35765505977619,8.72820461452381,-0.9039496864761906,10.92177039095238
7.738547201,-3.0322206248238093,8.65896794995238,-0.8273446219666669,11.05494547452381
7.755353689,-3.4505284741571427,8.163604487428572,-0.9271081345761907,11.046878730285714
7.772161263,-3.4110112531571426,6.972769170285713,-1.2666651181000002,11.121320876
7.788964811,-3.086498226523809,5.1076614974285715,-1.6121461731952382,11.480462878380953
7.805772651,-2.7467393421619044,2.972662903142857,-1.8100988524333335,11.841485944095236
7.822588435,-2.3119820186666664,0.5338074140952378,-1.7932474329428572,12.536130213142856
7.839391992,-1.8710440908571426,-1.8708391416190477,-1.5414534012285717,13.436847473619046
7.856190961,-1.503424088190476,-3.871482190666667,-1.1488647290380953,14.306464695047618
7.873010845,-1.2664687179999998,-5.221361727904762,-0.7685137191809523,14.935141658333334
7.88981901,-1.0886841729523806,-5.9235419999523815,-0.5099996214190478,15.064096097761906
7.906620116,-0.9273054941428569,-6.065682297619048,-0.3323351768952382,14.878694342904762
7.923433194,-0.7751112212142853,-5.794225533952381,-0.236408210904762,15.117418374809523
7.940248014,-0.7455658459285711,-5.243590786333334,-0.09254491323809536,15.657019698190473
7.957057826,-0.847181433785714,-4.672776653619048,0.09594978043809513,16.243860923047617
7.97385351,-0.9867294856904759,-4.341397308190476,0.24036857067619039,16.598552262142857
7.990653995,-1.0822128795952377,-4.260944707047619,0.26903319362857137,16.70730939704762
8.007468609,-1.0707508269285713,-4.356979688,0.23035155029523796,16.63427113047619
8.024271241,-0.9547264008333329,-4.519395010809524,0.1432647705333332,16.469681516047622
8.041084259,-0.6990788096428568,-4.628834860666667,-0.0051874489857144275,16.271910429761903
8.057881081,-0.38071705045238063,-4.51448517752381,-0.15965876122380968,16.12989012890476
8.074705716,-0.06753905616666638,-4.050040335904762,-0.29551641711904775,16.05656172890476
8.091504777,0.24208572930952407,-3.427941276904762,-0.3330436604142858,16.060483771857143
8.108313868,0.35366695269047643,-2.710977236238095,-0.2298219232095239,16.223287301285712
8.125112807,0.09470399221428599,-1.6313477014761906,-0.014110948352381072,16.03945055985714
8.141931185,-0.3941308543571426,-0.09281367323809546,0.09820277631428558,15.376831546047619
8.158740031,-0.884768576833333,1.5301872439523807,0.06331201107619032,14.548499549095238
8.175542755,-1.4942682129761902,3.3966268135238096,-0.10012714920000014,13.361340744619048
8.192357267,-2.1540934471666664,5.331972077142857,-0.4095776393428573,12.105193994904763
8.209164406,-2.7405216580238094,7.0130050298095234,-0.7622534405809527,11.032146493619047
8.225962388,-3.1845191092619043,8.238751411571428,-0.9714843914952382,10.351870943333333
8.24277574,-3.4683290663095243,8.877663090238096,-1.039613811761905,10.186960661809524
8.259588301,-3.568313734880952,8.729568481571429,-1.0873699613952381,10.086307596380953
8.276380169,-3.4817698796666665,7.734715462047618,-1.2341659438238097,9.65549103847619
8.293200166,-3.050331910476191,5.9309631077619045,-1.54482292282381,9.548261490857143
8.310011525,-2.200381574380952,3.4318566553809524,-1.8665252896333333,10.13900094752381
8.326815357,-1.1505421460952379,0.7374542329999998,-1.9272502576333335,11.434349919904761
8.34362458,-0.04871647738095218,-1.472725550047619,-1.5414168239190476,12.865303526571429
8.360432074,0.9405418574761907,-3.101707276380952,-0.8728007448714288,14.125759042619048
8.377242995,1.6428097085714288,-4.311782427904761,-0.21303457025238123,15.071878626428573
8.394047305,2.0103741370000003,-5.117213703142857,0.18781661131904737,15.488526897000002
8.410853193,2.0397618608571433,-5.563584418333333,0.21100100160476168,15.509156303095237
8.427659181,1.8273524100000005,-5.706876992952381,-0.04884164396666689,15.664210895238094
8.444476816,1.518049557714286,-5.683596531333333,-0.4103620024666669,15.937576937714287
8.461277199,1.2020623680952385,-5.6146605922857145,-0.6183034693380954,16.17030539342857
8.478083341,0.9180622325238097,-5.520867131809524,-0.6846646184809526,16.379975324857142
8.494895249,0.6885129040476192,-5.440852040047619,-0.6926959072428573,16.548940647238094
8.51171319,0.5231685862857146,-5.32488892152381,-0.7101121573857145,16.726575805619046
8.528509271,0.4452399069523812,-5.144337642523809,-0.7047585817666668,16.91362723485714
8.545319898,0.4553445859047621,-4.962699492333333,-0.6553509804333336,17.046458903142856
8.562124228,0.49408322261904775,-4.786006892952381,-0.5772015141523812,17.153823546809527
8.578933064,0.5324954530000001,-4.658380723666666,-0.517340629009524,17.223103122523806
8.595734525,0.5216366901904763,-4.59075261252381,-0.4857644099333336,17.28219409161905
8.61254912,0.4007101965238097,-4.439078682523809,-0.43892826082380976,17.477880081190477
8.629352159,0.1258847143809525,-3.8950438609047615,-0.2869602017285717,17.532332891333333
8.646165817,-0.41914079319047604,-2.691485120809524,-0.015801801680952594,17.09199515566667
8.662960951,-1.291843346190476,-0.6909629617619047,0.2563200705571426,16.03381300852381
8.679782931,-2.3631651739999997,1.8030941034761905,0.33274227936666645,14.56538046804762
8.696581361,-3.4780174434761904,3.9980148249523815,0.05789443698571407,13.127049734714284
8.713392852,-4.509462992238094,5.698590857714286,-0.516703527609524,11.933213537238096
8.730198017,-5.330832458523809,7.051340319095237,-1.105268763752381,11.14169571852381
8.747007789,-5.874679565285714,8.022529659142858,-1.4274168824190478,10.910004876523809
8.763818294,-6.074827966095238,8.523988939809524,-1.3909021574190479,10.993408895523809
8.780623053,-5.89653539647619,8.417746044666666,-1.136651267657143,10.666859912333333
8.797430738,-5.363055342619047,7.761910756761905,-0.9043392014190478,10.233054368857143
8.814248334,-4.440296286571428,6.521853356285714,-0.8015136846571431,10.368427377428572
8.83104706,-3.432873885,4.717301096285714,-0.723707813609524,11.04090206742857
8.847855326,-2.323643616285714,2.1068678358095236,-0.6146234004523811,12.57708038695238
8.864662546,-1.3290362359523809,-0.6155786513333334,-0.3921402025952382,14.26418222409524
8.881470314,-0.4341565089523807,-2.8072704132380952,-0.16754646102380968,15.46683221695238
8.898278418,0.4255746655714288,-4.366883596095239,0.04572712669047604,16.14084698838095
8.915084243,1.200336228666667,-5.421183859095239,0.1449946548380951,16.448865550285714
8.931891646,1.8441072185714287,-6.117368925666667,0.03159730918095225,16.567945787238095
8.9487015,2.3533917602857146,-6.5245308426666675,-0.2355877317238097,16.59871677452381
8.965494081,2.6592427202380953,-6.595621665761904,-0.4171649316761907,16.48374136404762
8.982316202,2.8215668081904766,-6.343682982142858,-0.5018389437619049,16.66219871704762
8.999114948,2.9445529431904767,-5.9970397612857145,-0.6135429753904764,16.952380592714285
9.015931893,3.0662714293809525,-5.719768581285714,-0.8317308638666668,17.182246185571426
9.032727738,3.189775704761905,-5.5232391022380956,-1.093703841866667,17.341357692714286
9.049545201,3.2704611386190483,-5.350412289904762,-1.3582389113428572,17.497964074142857
9.066342125,3.337334348428572,-5.288282883238095,-1.5638495343190477,17.562182496380952
9.08315963,3.3625732938095245,-5.383256583619047,-1.664875592509524,17.51234736209524
9.099970563,3.3318334414285724,-5.5401829544285714,-1.6717659121761907,17.446974149428573
9.116771616,3.2186648612380955,-5.606449911238094,-1.6440575009380953,17.493458951095235
9.133593362,2.9713178923809522,-5.416786478333333,-1.586353273652381,17.765762973571427
9.150377439,2.49686503352381,-4.887292124619047,-1.445595307061905,17.956145013761905
9.167334181,1.6842795207619052,-3.8306790197619045,-1.2762812660380953,17.57041529995238
9.184007146,0.7806898181904764,-2.2121636419523805,-1.1747698699142861,16.67564721947619
9.200816309,-0.27938571480952357,0.23109564247619094,-1.0680538785476192,14.972665580904762
9.217623731,-1.303815399285714,2.8119512844761907,-1.0314315529761906,13.185982144238093
9.234432902,-2.292396398095238,4.828050079095239,-1.0277211808809525,11.902503234238095
9.251236593,-3.254161414809524,6.180017164285713,-1.0996746535476194,11.135389299857142
9.268047687,-4.161879959571428,7.072321039952381,-1.1362541148333336,10.795764634761904
9.284855822,-5.010110185285714,7.659962551571428,-0.982766858214286,10.760435101904761
9.301662218,-5.6921171801904755,7.9248193896190475,-0.7331278721857144,10.797827579142858
9.318468786,-6.000043698761905,7.784470625914286,-0.6592778365333336,10.821751230428571
9.335276932,-6.0019274326190475,6.949171656342857,-0.6485609895238098,10.609168838190477
9.352085402,-5.756262041333333,5.2912794292,-0.6606011561333336,10.795522742
9.368891938,-5.190389792190476,3.225657644438095,-0.5941568897047621,11.351491168190476
9.385700013,-4.165737424523809,0.9918684730095239,-0.5376897766571431,12.287631204380952
9.402508381,-2.9604599817619044,-1.3193410693714287,-0.4304407210857145,13.576326564380953
9.419299925,-1.7821696828095235,-3.602144332133333,-0.31753502575238124,15.169646185333336
9.43612231,-0.6987994514285711,-5.308566275038095,-0.18985380449047648,16.43150347357143
9.452930852,0.3396892774285717,-6.433385746657143,0.09355714203333304,17.203129856333334
9.469740971,1.2746612228095242,-7.013812609895237,0.39131989360476166,17.499954349190475
9.486546734,2.065911973952381,-7.114556494038094,0.4656942003904759,17.51541038552381
9.50335306,2.690502098333334,-6.82153767632381,0.24575889960952355,17.765930550714284
9.520150564,3.0743350752857146,-6.286521253085714,-0.1468477533190479,18.26547078404762
9.53696588,3.2743144940952384,-5.725305625180953,-0.4883999853000003,18.779778538333332
9.553774238,3.3722085041904766,-5.1987533338952385,-0.7729854328238097,19.22972713547619
9.570583614,3.4664922666190483,-4.8038622763714285,-1.0064171807761908,19.522751950238096
9.58739541,3.6218870705238095,-4.539819967180952,-1.1968792648238096,19.650782378809524
9.604199437,3.842536642142857,-4.295096192847619,-1.384216351109524,19.74214102128571
9.621008874,4.142399617333334,-4.057739325657143,-1.5796872518714287,19.809810072095235
9.637814627,4.554146686938095,-3.8417623834666665,-1.7845413202047622,19.78044751304762
9.654628032,4.926134234152381,-3.5536893659904756,-1.908619545709524,19.779705668380952
9.671432331,5.089299644533334,-3.1390139031904765,-1.9121839318380955,19.98100737609524
9.688237415,5.0506795586285715,-2.3976028984761903,-1.9623392762857146,20.11111141147619
9.705045864,4.807702529819048,-1.0641499926190474,-2.023018706380953,19.61919113352381
9.721854589,4.256951252438095,0.624271029761905,-2.1136774562380958,18.706320192333333
9.738662409,3.2467793166285723,2.5110999973809527,-2.123177551047619,17.431395580380954
9.755468406,2.053285848390477,4.581306775809524,-2.172707432714286,15.907173826952382
9.772276612,0.8679471242476194,6.858411743714286,-2.2439301921428574,14.295899901714284
9.789086274,-0.16706010275238053,8.758418128761903,-2.337240332547619,13.132864541714284
9.805892039,-1.1027409237523806,10.060316199428572,-2.6407047452142858,12.404496977142859
9.82269655,-1.9070344425142853,10.644966375333333,-3.0117293538333336,12.027456720428571
9.839512224,-2.5684932527047613,10.518556049961905,-3.1898464020000006,11.847310479666666
9.856315171,-2.9755148433238094,9.815484274247618,-3.1530336878571434,11.364006440761905
9.873123021,-3.0157658258999995,8.718640418485714,-3.030650229571429,10.688744700285714
9.889931909,-2.630393573233333,6.891476631342858,-3.025156747619048,10.662798719809524
9.906740246,-1.906113874138095,4.0991769065809525,-2.891038037380953,11.67568774504762
9.923545869,-1.299913133661904,1.2643404008666663,-2.3443741172857147,12.99908883647619
9.940338438,-0.7756752511380948,-1.2958634238952382,-1.660954702428572,14.43528084552381
9.957162148,-0.3173548037571424,-3.4716957181809525,-0.9385258812380958,15.662829377428574
9.973960985,0.004807006957143291,-5.376065526752381,-0.43867933200000037,16.573814622666667
9.990773658,0.10572652611428612,-6.839261645514286,-0.3503490602904766,17.10602156695238
10.00758639,0.05778821332857185,-7.610944611799999,-0.551434786719048,17.158452185238094
10.02439651,-0.005849701814285304,-7.694427899038095,-0.7943145521000003,17.192355351809525
10.041196,-0.0187530629095234,-7.2749301818,-0.9245559745285719,17.62629008961905
10.05801147,0.009229819185714708,-6.604512078133333,-0.9198101391476194,18.27768173138095
10.07481496,0.012162935376190901,-5.927983919561906,-0.8634226408619051,18.923480428761906
10.09162091,0.014144466233333758,-5.4859377543238095,-0.9155308946238099,19.351423240238095
10.10843139,0.011166198090476613,-5.281400362752381,-1.03221086962381,19.57316888890476
10.12523874,0.030800444900000428,-5.287849244704762,-1.1820522803857147,19.63237169319048
10.14204826,0.05290062104285757,-5.354413986276191,-1.3383478070047623,19.63793547604762
10.15883086,0.0955765929952385,-5.29967046927619,-1.4562294570523815,19.707941036333334
10.17566755,0.17981176166190518,-5.052794842561904,-1.5120916113380956,19.873742806380953
10.19247113,0.3011920680904766,-4.634745734142857,-1.4946134064333338,20.076124933428574
10.20927589,0.37592212375714323,-4.1699396769999995,-1.396396117766667,20.23547213052381
10.22608482,0.3462079708285718,-3.685226168047619,-1.1785270346809527,20.22837230533333
10.24289394,0.10624691435238136,-2.5441519194285713,-0.7948437051571431,19.542755472904762
10.25970173,-0.3393188772190472,-0.3307981721904761,-0.5798141646333337,17.947329980809524
10.27650724,-0.689273096333333,2.152582054857143,-0.8415067113000002,16.25095956614286
10.29331668,-1.101643857523809,4.530874047952381,-1.3101951538238097,14.620424141190474
10.31012484,-1.610309328380952,6.521481445666668,-1.8107248289190476,13.243299532809523
10.3269293,-2.1751870200952377,8.175215017142856,-2.0857459732523815,12.216658667857143
10.34374162,-2.648140521285714,9.374419870809524,-2.09722604072381,11.654839880809524
10.36054686,-2.9322675864285705,9.766301995195239,-2.0540366286761906,11.621801159285715
10.37735023,-3.0011060692380944,9.159218810814284,-2.059660082819048,11.59761053352381
10.39416325,-2.89901236130419,7.628064768433332,-2.053111065057143,11.425832450666666
10.41096179,-2.6789668969232374,5.471510682242857,-1.862162720676191,11.419429717333335
10.42781004,-2.2094634261137136,2.7574678370047616,-1.4543041389142861,12.031276775904763
10.44458856,-1.5766588506851424,-0.1759789563285714,-0.8377313955333334,13.345657142095238
10.46139203,-0.8602227595422851,-2.896404743471429,-0.0686858837238098,14.93184242590476
10.47820148,-0.14386800363752325,-4.7953262103761904,0.7830032734666664,16.046234758285713
10.49500195,0.46352101502914345,-5.909500235757143,1.4463116214190472,16.453541125904763
10.51181794,0.8766650358386673,-6.511205650661904,1.908442167990476,16.280511994809526
10.52862189,1.0500779264815243,-6.7084577652809525,2.0696663288476187,16.01607445490476
10.54543605,0.9332105658624767,-6.573120435233333,1.8401964505142856,16.260903520142858
10.56224324,0.5580727145291435,-6.123059818090476,1.4268594638476189,16.926029268142855
10.57904524,0.0622038953672387,-5.573408944614285,0.9876688433809522,17.703366791904763
10.59585635,-0.4525154546327613,-5.063126723233334,0.5898966560952377,18.363998525761904
10.6126603,-0.9403296085851423,-4.777944042852381,0.23354979909523776,18.76741258547619
10.62947518,-1.354899122708952,-4.772406510233334,-0.10214744309523843,18.94013802585714
10.64627801,-1.6389094081375233,-4.894634723947619,-0.3730506330476194,19.003796322714287
10.73871017,-1.6576435226137138,-4.895771458328571,-0.398520259714286,19.006006313857142
10.75552284,-1.5364816076137136,-4.80353548442381,-0.4232823054761908,18.99518821052381
10.77232618,-1.3391792434708567,-4.6199201859,-0.35338419398571463,18.97583064809524
10.78913833,-1.1730808077565709,-4.303254400238095,-0.13845506741428604,18.935069411761905
10.80595868,-1.165374108851809,-3.7462220194761904,0.11465939448571397,18.842987615904764
10.82276511,-1.3529767083095234,-2.835629440809524,0.2463604438190473,18.43833583085714
10.83956269,-1.6790355842619042,-1.4573145595238095,0.14514318246190444,17.70623305395238
10.85637346,-2.1617509298333326,0.5249873115714285,-0.17878020099333364,16.37473248209524
10.87318181,-2.6775557655619044,2.864019848238095,-0.6171973064409526,14.43573506452381
10.88999759,-3.051740555847619,4.9322983878095235,-1.2323222472504767,12.387474364238095
10.90679653,-3.252165135990476,6.069461777,-1.9107945392504766,11.22099178947619
10.92360322,-3.1739096642761897,6.012727782714286,-2.359814663821905,11.23596810852381
10.94041298,-2.79704389127619,4.500781649476189,-2.561256766398096,12.687052828666667
10.95722221,-2.2723939303952374,2.190997827380952,-2.480861930679048,14.581654474285713
10.97402699,-1.577190013014285,-0.4203532764285718,-2.068753339055238,15.93524997904762
10.99083506,-0.6063353898714281,-2.9217981383333336,-1.3391785678171433,16.636816523333334
11.00764515,0.468943346319048,-4.761292843571429,-0.5154578401504766,16.77805486142857
11.02445072,1.4316152167476193,-5.9854260172857146,-0.022704084674286053,16.53655205952381
11.0412583,2.073981943938096,-6.5631068547857145,0.17080165381142823,15.990048695
11.05806563,2.2951665382238096,-6.444302241119048,0.25291649790666637,15.953159099285715
11.07487622,2.258722237509524,-6.056987898595238,0.14701649409714257,16.283764560714285
11.09168286,1.9926337291285718,-5.8550154366904765,-0.32251042690285747,16.692410764619048
11.10848957,1.7268241250333338,-5.703740210642858,-0.7970304687123813,17.08325979385714
11.1252949,1.5902841435571435,-5.577788920452381,-1.121735887774286,17.336602126666666
11.14210497,1.5632076494619052,-5.406194664023809,-1.2735354643933336,17.53076503966667
11.15889908,1.5979349390333337,-5.22717148897619,-1.3331970003885718,17.686446257142855
11.17572015,1.64777818222381,-5.053974560166667,-1.296222621379048,17.810173197142856
11.19251396,1.6392253698428578,-5.016648133452381,-1.285340008174286,17.846446539047616
11.20933673,1.5561270150809527,-5.079891136595238,-1.2783305416852382,17.828894610809524
11.2261329,1.3616953468571433,-5.0528876666428575,-1.2539722407471432,17.933726594714287
11.24295347,0.9442844963333338,-4.6562036785476195,-1.0836357387947624,18.147598720571427
11.25975921,0.3644201079523814,-3.9297667910714287,-0.8801046779376194,18.098745558047618
11.27656184,-0.38046120409523765,-2.719811076071429,-0.7611424752042861,17.649153733761903
11.29337548,-1.260250624666666,-0.6133342923095236,-0.7638041773809527,16.346189842333334
11.31018211,-2.1026806488095233,1.8398048312142858,-0.8357133325476193,14.695916545666668
11.32487694,-2.862376655571428,4.1916560672619045,-0.9583098235047622,13.056776011333332
11.34169654,-3.693868126095237,6.155101185880953,-1.2686088794571433,11.70969108452381
11.3584982,-4.559558493476191,7.43604056054762,-1.7210393775047623,10.898298039333334
11.37530971,-5.304198594190476,8.126485915547619,-1.9297039423523814,10.529835831047619
11.39213208,-5.755003213761904,8.249384017333332,-1.9293084712095243,10.58700661042857
11.40892758,-5.583934749766667,7.411284288,-1.966212408876191,10.33401978304762
11.42573218,-4.70011262657619,5.581507342285714,-1.7804601646380955,10.73330557542857
11.44254569,-3.981693937623809,3.67703689847619,-1.7282345975904765,11.33527301257143
11.45935216,-3.1996517521476187,1.6263441132380956,-1.6041775998285719,12.127816751619047
11.47615869,-2.2401406990999995,-0.776294276761905,-1.1943421931619052,13.447132653047621
11.49296496,-1.3275092328619043,-3.0504638353333333,-0.7801290012571432,14.757355929238097
11.50977416,-0.5807206177190471,-4.847646554428572,-0.34866996040000026,15.738114101619047
11.52658316,0.05915294380476231,-5.997514747619048,-0.023616660219047958,16.260607556666667
11.54338986,0.6789837565190481,-6.486484391523809,0.1342166662190473,16.352757900714284
11.5601958,1.2398439589476196,-6.36177523947619,0.04754254932809492,16.54836380747619
11.57700525,1.7480952172333335,-5.82445950752381,-0.19224895182904794,17.082420148761905
11.59381104,2.119274752471429,-5.110521452809524,-0.4657209373528574,17.73202561747619
11.61062133,2.2836896805190485,-4.400366192809524,-0.6733131975909528,18.368192305238097
11.62742828,2.331395194614286,-3.9284151620952383,-0.8908565441338099,18.79894567095238
11.64423085,2.3184302648047623,-3.680644443952381,-1.0994708537619051,19.047839333809524
11.66104305,2.294664246709524,-3.611852645761905,-1.2465100628380956,19.145900774285714
11.67785277,2.2566789218523815,-3.598291851095238,-1.295312654314286,19.19185207814286
11.6946562,2.221062024471429,-3.585275990476191,-1.2877360865047622,19.22394825204762
11.71146417,2.1938687052333337,-3.551563399,-1.2533614180285717,19.261126976428574
11.72827052,2.1527625038523817,-3.470055602666667,-1.2468947795571432,19.34862821633333
11.74508032,2.1206507909952386,-3.3063073837619052,-1.2406020844676051,19.482991546619047
11.76190207,1.8935181300000006,-2.7232492763333336,-1.1174950683914144,19.535551371380954
11.77869751,1.170054140571429,-1.320293131238095,-1.0577491819037956,18.664637884428572
11.79550248,0.6487584568571434,0.29385662095238085,-0.7165390593037956,17.62131325942857
11.81231242,0.03337801076190526,2.0867493493809524,-0.4146386051037955,16.414448876952378
11.82910719,-0.9142229443333327,4.25970113847619,-0.5074279343133193,14.83985212457143
11.84592976,-1.9497182255238088,6.2688596589523815,-0.7574327580466527,13.36509209752381
11.86273356,-2.870917115714285,7.8165307046666666,-1.1360625900942718,12.277601163285713
11.87954358,-3.6537672905238088,8.646253222761905,-1.4725651960609385,11.62343026495238
11.89635141,-4.3153618630476185,8.81072425867143,-1.533596673870462,11.384309066761904
11.91315762,-4.740287848857142,8.3741227107,-1.2912704369657002,11.010680297619047
11.92996495,-4.678694497952381,7.219904877128572,-1.0926048350799862,10.60806168904762
11.94677309,-3.8657978604761896,4.860720429985714,-1.192468545937129,11.176408765238095
11.96358344,-2.6861057509523802,1.8091197466523812,-1.0925350011752242,12.338646859047618
11.98038986,-1.32593779347619,-1.2068661966809524,-0.4466597288895099,13.886750623809524
11.99719572,-0.13177640119047562,-3.474146956680953,0.25054115992001397,15.04753238857143
12.01400297,0.8776434943809529,-5.091545218871429,0.5781291050152519,15.818668057619046
12.03081371,1.614732265476191,-6.179617768633333,0.4197157856342996,16.232690237142858
12.04762098,2.078402791714286,-6.829492932680952,-0.03666479746093846,16.432602067190476
12.06442647,2.2985388438095247,-7.110387075942857,-0.39324639455617655,16.40701927038095
12.08123607,2.399670532809524,-7.075009232895238,-0.5127476560371289,16.40185449095238
12.09803373,2.4517699196666674,-6.903261253228571,-0.45433433213619084,16.525089890095238
12.11485515,2.4527202788095246,-6.642671562752381,-0.2918697276409527,16.76489725842857
12.13164492,2.4058086077619056,-6.281000251180951,-0.152829866319048,17.099346350619047
12.14846676,2.312383129476191,-5.934313183847619,-0.11811464953333368,17.429627787999998
12.16526153,2.192278453238096,-5.6387095679904755,-0.22926937540000036,17.73524566857143
12.18208223,2.0897219520952386,-5.467881475323809,-0.46240912023809566,17.967235275238096
12.19888261,2.0180146580000007,-5.3860775858,-0.7128629684571433,18.13815546657143
12.21570216,1.9543704759047624,-5.32404720227619,-0.898726202171429,18.27722869890476
12.2325049,1.8452839396666672,-5.095531009609523,-1.0123012434428575,18.503006468666666
12.24931031,1.6815462793333338,-4.777514503233333,-1.1549263653000004,18.77850313352381
12.26612075,1.3797485033333337,-4.428132511452381,-1.301953872028572,19.097209875523806
12.28292752,0.6637758073333337,-3.7850792749761903,-1.2247418051523813,19.090702342666667
12.29973571,-0.6278835929999996,-2.2143459091666666,-0.8104764336761908,17.906805647190474
12.31654272,-2.056438150714285,-0.050274292500000026,-0.6372503950571433,16.068718654761906
12.33335039,-3.5456843601904753,2.2403164480238096,-0.9772363220095241,14.009908511190474
12.35015936,-4.771557376285714,4.034046615928572,-1.3632727181523812,12.499058111761904
12.36696724,-5.765465168714285,5.440384808261904,-1.4252383823904766,11.541059532285715
12.38376167,-6.4744554474285705,6.4443125386428575,-1.0750634444857146,11.035725063714287
12.40058358,-6.890213671190475,6.989910614166666,-0.4947092420238099,10.726269383000002
12.417391,-7.004135290809524,7.030815249619048,-0.0783928122523813,10.519794563095237
12.43418216,-6.760899498380951,6.4420917263333335,-0.01698996915714321,10.352200142095237
12.45100425,-6.01435309352381,5.002273798238096,-0.2330829871095242,10.919278604952382
12.46781342,-5.154295807523809,3.291956368238095,-0.5511241527761909,11.624860785428572
12.48461954,-4.1739198362380945,1.196407374904762,-0.8730022000142861,12.55683011352381
12.5014288,-3.090677624142857,-1.0376317955714285,-0.9792969085904766,13.630994219238094
12.51823467,-1.9646009257142851,-3.1959129403333333,-0.7082681514952385,14.699640358761904
12.53504242,-0.956647917571428,-4.934656585904762,-0.1938357439238099,15.48815619352381
12.55185922,-0.13483574199999943,-6.053679091619047,0.31947634607619013,15.806396472571427
12.56865771,0.5047151936190483,-6.518276884476191,0.6549192183619045,15.587790917714287
12.5854661,1.0500585245714293,-6.47799885842857,0.7311021854571426,15.458373769095235
12.60227481,1.5315332647142865,-6.117455062428571,0.5905173930761902,15.670323155285715
12.61909155,1.9149328647904769,-5.615324690047619,0.35352739823333307,16.032681376238095
12.63589112,2.1554501177428578,-5.069755883428571,0.09400699242380925,16.433647660047615
12.65269137,2.301335312790477,-4.579075438761905,-0.2175100531952384,16.784672822666668
12.66950519,2.400656973314286,-4.187386354,-0.5586151623380955,17.040471996047618
12.68630095,2.500322319933334,-3.8985050067142852,-0.9005227657190479,17.183311059619047
12.70311802,2.5801445877428577,-3.7395495916190473,-1.2155771142904765,17.258624587666667
12.71993096,2.627205894790477,-3.653892721619047,-1.491226485861905,17.321153094285712
12.73673468,2.714085216314286,-3.5954924085714284,-1.7248161123380954,17.33942261361905
12.7535451,2.8227573583142864,-3.503686269333333,-1.8838124559428573,17.355751294999997
12.77034855,2.8317707954095246,-3.2209565754761904,-1.9439895834761909,17.556936744
12.7871618,2.542158252409525,-2.5964089576666667,-1.8731099026911906,17.75638391295238
12.80396467,1.744652850838096,-1.2689780282380947,-1.6803274041388097,17.113900096571427
12.82077794,0.833241201980953,0.23147280985714325,-1.4798509166673812,16.241663490380954
12.90690476,-0.16212516716190406,1.8447269030476194,-1.3375956955673811,14.965834143333334
12.92372171,-1.1131610527809517,3.4794334001014287,-1.2938797062769052,13.425771111619047
12.94052901,-1.8132613612571418,4.767168794339524,-1.5338650189911907,11.989121231
12.9573348,-1.8587065312571418,5.012889157672857,-1.9322878165150006,11.724046248619047
12.97414308,-1.5640928748761898,4.54381836005381,-2.309701055276905,12.25034757195238
12.99095839,-1.1562021915428564,3.277761209387143,-2.48533899303881,13.518602333
13.00776035,-0.49208267525714194,1.2269299140061904,-2.309531812134048,15.01671751352381
13.02456591,0.12423580050476286,-0.9653881393271428,-2.001053082086429,15.94412101304762
13.04137582,0.6875921320000009,-2.9774225102795233,-1.638956613467381,16.41285707638095
13.05818319,1.2304448743333343,-4.646938937422381,-1.4088814670007146,16.45233685304762
13.07499049,1.7070530598571438,-5.796563852660476,-1.3808417277150002,16.15978516352381
13.09178575,2.1067594916666676,-6.364904608222381,-1.5148475240483337,15.87903623395238
13.10859313,2.376259542880953,-6.32637543922238,-1.6355043776673814,15.90878962490476
13.1254132,2.4850988049761917,-5.828347456031905,-1.5898445517150004,16.297934344857147
13.14219945,2.4756491414047628,-5.202147847412856,-1.399527515581667,16.82578719247619
13.15901442,2.345654658166668,-4.672411623698571,-1.2211355395626196,17.319672782666668
13.17583448,2.0958084722142862,-4.345909822698571,-1.1215426154530956,17.709169402476192
13.19264724,1.8227999326428581,-4.3391570365080945,-1.0969051575721434,17.88726959290476
13.20945012,1.5562065901190485,-4.572131690698571,-1.1427560759809527,17.952280759428568
13.22625915,1.3144614359761913,-4.842652809222381,-1.2334978863428576,18.010835136285714
13.24306703,1.1059177495952388,-5.070289850365238,-1.3308964342428575,18.084115286285716
13.25987369,0.9305740092142865,-5.041179327841428,-1.3350434813333336,18.258762995238094
13.27668357,0.712847142785715,-4.876134520609523,-1.325311804019048,18.504813949809524
13.293492,0.30241096669047696,-4.4429236368,-1.211422098466667,18.596670730809524
13.31029807,-0.5992536762142849,-3.3668875920380947,-0.9976538092761909,17.79875517180952
13.32710545,-1.6605731407857136,-2.0802872068238094,-0.6637049359428575,16.769741323285714
13.34391164,-2.689956005595237,-0.4834714163952378,-0.3428563120380956,15.652513480190475
13.36072311,-3.830100671833333,1.4859471776047624,-0.2402083603714289,14.230252192047617
13.37752715,-4.81793660145238,3.2606275648904766,-0.3280630522761908,12.969031845904762
13.39433771,-5.658403010023808,4.663864385461905,-0.6487323627047622,12.034284569619048
13.41112976,-6.24741756292857,5.59071220674762,-0.940672362076191,11.448825863714287
13.42795998,-6.4828873583333335,6.006179673380953,-1.0265622805523813,11.211175904333333
13.4447607,-6.327653293952379,5.557777722752381,-0.9187684953142862,11.41138463057143
13.46156805,-5.761778876119046,4.12762850832381,-0.8964879157904765,11.98961068057143
13.47837378,-4.935725324690476,2.262592860704762,-1.0683858607428576,12.40481231152381
13.49518267,-3.8473111781190465,0.27259354403809527,-1.3748208738285717,12.770079324380953
13.5119972,-2.5265846924523805,-1.7123124254857143,-1.5142460238000004,13.371506518666669
13.52879806,-1.1221622959285706,-3.7379817050095236,-1.3323769370523812,14.347741954380954
13.545605,0.018984454976191247,-5.289356435771428,-0.8878195115047622,15.187671024857142
13.56240233,0.8608476782619056,-6.138210852485715,-0.32345815516666704,15.603239227714285
13.57922396,1.4397605949761911,-6.396843739485713,0.1497647931190472,15.535406384428573
13.59602405,1.8312602503095246,-6.248817091485715,0.4443696565476187,15.377053866047621
13.61283709,2.125182106785715,-5.952115728342857,0.5690390608238092,15.352614235571428
13.62963282,2.30869188802381,-5.577960252152382,0.5215971014571424,15.473063857476191
13.64645105,2.3750869890714292,-5.170156228295238,0.3864284922857139,15.677077954238095
13.66324366,2.3652314689285725,-4.706667922104762,0.2214976831904758,15.916152909428572
13.68006898,2.317272754309524,-4.29241259822381,-0.019684661123809913,16.109405054619046
13.69687431,2.2555598762142868,-4.03723178522381,-0.3209247987428575,16.236096538190477
13.71368559,2.1254915513571433,-3.968402157985714,-0.636063888076191,16.343431930619047
13.73048992,1.9780129481666675,-3.994564782366667,-0.8211514326476194,16.469531678666666
13.74729422,1.8633351102619056,-4.045868282604762,-0.8220484768857146,16.534595945380953
13.76411042,1.6769463906428579,-4.041348025271429,-0.68485672712381,16.598294407904763
13.78091395,1.3039834616666675,-3.884398584619048,-0.4746953136476194,16.717709280142856
13.79772389,0.6704999836666674,-3.2231095966190475,-0.25254819514761945,16.528266278
13.8145298,-0.1972870598095231,-2.015063432952381,0.10747750590476153,15.757607614380953
13.83132454,-1.1405727749999994,-0.7362359472380953,0.5850954508571424,14.872091797714285
13.84814527,-2.2118895165714276,0.5211179941428571,1.0607420942380947,13.890353657952382
13.8649556,-3.4143982160952375,1.8597204234761904,1.3379877292857139,12.71005749838095
13.88176033,-4.66010525095238,3.4908120407619045,1.2577084017142852,11.33748158004762
13.89856874,-5.656843662285714,4.954769759333333,0.8048132712619045,10.331755564190477
13.91537441,-6.453152315999999,5.876257045142857,-0.26767782921428596,10.146708329904763
13.93218316,-6.8472529820476185,6.061192478690477,-1.4607528731190478,10.53538683557143
13.9489972,-6.7457314219095235,5.5011864959761905,-2.1527555328809522,10.715962709190476
13.96579925,-6.2373355683857135,4.005183163309524,-2.3980591977857144,11.30036463252381
13.98260466,-5.3817805790047615,2.038849864738095,-2.5032743215,12.239678247285713
13.99941616,-4.200288386433333,-0.24052230526190432,-2.596451657119048,13.575016676809526
14.01620142,-2.9418844038619034,-2.476571775738095,-2.355988275404762,14.914883954904761
14.03303087,-1.7128782722904756,-4.58859054245238,-1.772866822471429,16.241467366333335
14.04982457,-0.562849089861904,-6.176318180166665,-1.0879611685666668,17.159358723476192
14.06664824,0.5177626388523817,-7.000599759023809,-0.7405807802333335,17.415003678714285
14.08343786,1.3694635578523817,-7.406408548404762,-0.8465971436619049,17.416346745857144
14.10026418,1.9271740237571438,-7.495361861785713,-1.1308661132333337,17.468861797809524
14.11706753,2.2293558126142865,-7.137938874166665,-1.277797965852381,17.61530408595238
14.13388072,2.333193666042858,-6.590039094309522,-1.315766033757143,17.98379164690476
14.15068277,2.295947961042858,-6.010132948499999,-1.3000120549809526,18.466616614761907
14.16747099,2.1693615011380962,-5.444864863595237,-1.328267120261905,18.995998452190474
14.18429857,2.045654093138096,-4.9823454450238085,-1.4754304829690479,19.41485638219048
14.20110436,1.945753484185715,-4.645689896404761,-1.6886816309214285,19.702748222904763
14.21791835,1.8794267070428579,-4.4444840978809514,-1.9441083329690476,19.87688085057143
14.23471068,1.8611616640428577,-4.427597477595238,-2.1420767818738096,19.908601065761907
14.25152883,1.9207011183285723,-4.5071379346428575,-2.2104920262785717,19.825957728952382
14.26833928,2.127504621804763,-4.496559574785714,-1.7340729636119052,19.427012452714287
14.28514409,2.252150445328572,-4.251018728809523,-1.0156248638976193,18.931377197904762
14.30195478,2.1006361308571435,-3.606748944523809,-0.5854545435452384,18.762701842666665
14.31876161,1.665843192142858,-2.1760018214761896,-0.4228240508166669,18.083945581809523
14.33556843,0.9557732292857152,-0.333268029666666,-0.23665622316428597,16.97262142757143
14.35237599,-0.034112044285713516,1.9027248560476195,-0.0010985080690478924,15.511643193761902
14.36918346,-1.0919768239523802,4.145019848904762,-0.16082807963571455,14.077126993285715
14.38599926,-2.108034905714285,6.295328730333334,-0.7364991393023812,12.66756234995238
14.40280111,-3.0143861768571423,7.882822717857143,-1.3918263856071431,11.600813176428572
14.41960706,-3.886276949047619,8.650882539095239,-1.7006819873214287,11.149576533380952
14.43640089,-4.561861333380952,8.989889508000001,-1.461051396011905,10.940033314666668
14.45322477,-4.813406217666666,8.963553564714285,-1.0257192595357143,10.52905458357143
14.47001884,-4.642816293809523,8.117595377238095,-0.8051185296309524,10.382656073190475
14.48683627,-4.153525420619047,6.277137733428571,-0.7555779418214288,10.768860016047618
14.50364375,-3.416866620428571,3.910376389619048,-0.7925717973357145,11.493697506047619
14.52045339,-2.4746072860952375,1.5226074172380952,-0.8990567100119049,12.233588606999998
14.53726986,-1.5043889000476183,-0.6518355099047619,-0.748220316066667,13.00435494842857
14.55406732,-0.5759111814285708,-2.587866034190476,-0.40616987720952397,13.863834072714285
14.57085584,0.17631905409523863,-4.157127721095238,-0.03927910616190487,14.64495157985714
14.58768675,0.6700416518571434,-5.170399824857143,0.32763753898095227,15.097759749666666
14.60449353,0.8739646956190482,-5.633870056761904,0.6510879226476189,15.103077010999998
14.62129547,0.818458148333334,-5.691373405047619,0.850882169695238,15.121956533809524
14.63810726,0.5798516726666672,-5.39816121847619,0.9209926894238094,15.494906079095239
14.65491313,0.2634203207142863,-5.011860450238095,0.8945920665476189,15.98979305909524
14.67172831,-0.0694915680476185,-4.670384236619048,0.7752194574380951,16.45517871757143
14.68852637,-0.36584242185714233,-4.428579296047619,0.5921765593571428,16.818497139428572
14.70534117,-0.6125269617619042,-4.373406057952382,0.3979603193571427,16.99387429371429
14.72214605,-0.7757650557142852,-4.514492681714286,0.25563928906666655,16.97397711657143
14.73895989,-0.8762754031904756,-4.772340286095238,0.2083012972095237,16.832329165190476
14.75575919,-0.9821432885714281,-4.957621858,0.20984634610476183,16.754525149809524
14.77257087,-1.0153067906666662,-5.027545713,0.2789887445004761,16.723541489380953
14.78937778,-1.0044840858095232,-4.99194716247619,0.348399832105238,16.73935468309524
14.80618678,-1.1689247176666662,-4.780584369142857,0.46111057200999994,17.00586477366667
14.82299179,-1.579453127714285,-4.059193803904762,0.5903150098671428,17.06739221752381
14.83980172,-2.163291817619047,-2.493698312904762,0.7054212292004761,16.478472647047617
14.85660646,-2.8544698442857133,-0.46982421180952383,0.8083090242957143,15.434551387523811
14.87341495,-3.7201812153333327,1.5885579586666667,1.0010162336290476,14.381147316095237
14.89022232,-4.6199288368571425,3.4677591212380956,0.9590281673433333,13.334545788476191
14.90703086,-5.439766316142856,4.908558471285715,0.6590762521052381,12.067064422238095
14.92383887,-6.036277157857143,5.842647972761905,0.24608162896238098,11.09711277852381
14.94064678,-6.253009637147618,6.339811813428572,-0.1901523002757143,10.585120812333333
14.9574549,-6.072145507385714,6.237874133380953,-0.5408661550376191,10.646619864238096
14.97426293,-5.494429610957143,5.4374164174285715,-0.7605303994661906,10.965186817190474
14.99106317,-4.661764212909524,3.6164059188571436,-0.7937149675566667,11.561027576238095
15.00787712,-3.604970001004761,1.1735962236190478,-0.5313656571757143,12.508655494809524
15.02468829,-2.64546687257619,-1.2717746778095236,-0.03193924689000004,13.448024510999998
15.04149335,-1.7914929843380945,-3.5297333625714282,0.5555917180147618,14.358395218142856
15.05830534,-1.0772596085761899,-5.316978250190476,1.0718859816814283,15.033013020047619
15.07510759,-0.5777015458142851,-6.523971898333333,1.5765417174909524,15.470604136238096
15.09191625,-0.2746842020047613,-7.334734076809523,1.8897244631576187,15.716232665238094
15.10872681,-0.12190514509999938,-7.894364538904762,2.0456339219480952,15.735818275333331
15.12553244,-0.06780449538571366,-7.9331070016666665,2.1150012512190473,15.67737932290476
15.14233731,-0.011028425957142231,-7.515008370333334,2.1276813247809523,16.015633995523807
15.1591489,0.0983075869476197,-6.840448822571429,2.081837811523809,16.598162842714284
15.17595962,0.24210521161428633,-6.209775096095239,2.0210218655238097,17.122947969714286
15.19276041,0.39528122413809585,-5.894895406142858,1.9428786563285714,17.340178041619048
15.20957065,0.5017916589952387,-5.907969872285714,1.7798685983761906,17.284830459238094
15.2263765,0.5714485305666673,-6.165627786095238,1.508202378138095,17.075332965333335
15.24318674,0.6137992088047624,-6.378188485190477,1.2318021412809523,16.92599795161905
15.25999113,0.6091839246619054,-6.119470539571428,1.075834472852381,17.110534050809527
15.27680117,0.4914875939952386,-5.346194687238095,1.0893453244714284,17.404054191666667
15.29360833,0.2418759438095244,-4.453558774095238,1.1586501653761905,17.758788379285715
15.3104174,-0.09877470547618984,-3.533977247476191,1.1835189602333334,17.956319478238097
15.32722251,-0.5485100063809517,-2.5534295923333334,1.208418635995238,17.678270536523808
15.34403334,-1.1373433611904757,-1.0672341643809526,1.191201607290476,16.67063288504762
15.36083912,-1.9577341760476183,0.9275639054285711,0.9677079375761904,15.221905058
15.37764911,-2.6875363530952376,2.9779081682380952,0.5583996289523808,13.819187634714286
15.39445386,-3.3298921811904756,4.932825326571428,0.0506844094285713,12.531145620761905
15.41126372,-3.816759881523809,6.461966094238095,-0.5059512655714287,11.548596781761905
15.42807094,-4.1158362116190474,7.366819461047619,-1.1228411283333333,10.882566839666666
15.44487861,-4.362628051238095,7.963766745147619,-1.4772180347619048,10.525030949285714
15.4616847,-4.44379688447619,8.283451182504761,-1.627635129895238,10.36231656409524
15.47849386,-4.18959292915238,7.762340908933332,-1.756079642561905,10.426687738142858
15.49528524,-3.5679412115333324,6.0250068846476195,-2.126261015752381,10.980698545761905
15.51210233,-2.9560631572476184,3.6470436822666663,-2.665673068733333,11.63736420052381
15.528916,-2.083015941819047,0.9869600932190475,-3.073495650733333,12.527506157190476
15.54573797,-0.9683733445333329,-1.2428823196380951,-2.9290558186333335,13.49229459004762
15.56253,0.07047012822857197,-2.8139045803047615,-2.311160408347619,14.465745215285716
15.57934114,0.9526650786571434,-3.901968819352381,-1.4775622826333334,15.314892358238094
15.59614337,1.6085211203238101,-4.733071054257143,-0.7297194710142858,15.86139321195238
15.61296379,1.9833234145619054,-5.4110623309238095,-0.24131104172857146,15.92086267947619
15.62975975,2.1007797258000003,-5.9103781832571425,0.004706016938095174,15.484131721904763
15.64657356,2.092514094276191,-6.056883948019048,0.08921742758095232,15.345288087142857
15.66337604,2.0121451894190483,-5.926920845161904,0.17001120285714277,15.487048100952382
15.68018924,1.86801334732381,-5.614601021257143,0.17963903323809519,15.827122151238097
15.69700052,1.7144245528000008,-5.203844274447619,0.11556147425714279,16.26113445604762
15.71380099,1.610978069180953,-4.917184079971429,0.0009281212571428004,16.564958711190474
15.73060999,1.492167256514286,-4.773728915161905,-0.11313912669047625,16.76757399161905
15.74741746,1.338812339276191,-4.746430918828572,-0.18758601488095245,16.897707901285713
15.764225,1.137461809276191,-4.7175263445904765,-0.15743648688095244,17.028997152190477
15.78103198,0.9118819571333339,-4.511690616161904,-0.05711454688095243,17.21812407052381
15.79784112,0.7748722229428578,-4.224016143738095,-0.04248030097619053,17.44232534852381
15.81463384,0.6205097714666672,-3.8559932704285713,-0.09446093836666672,17.735031307761908
15.83145426,0.2296116119047625,-3.191465400047619,-0.06813192623333339,17.860795254380953
15.84617496,-0.5078565172380947,-1.8300247869047621,0.24563309296476188,17.038012914952382
15.86296532,-1.2840196636666659,-0.18523897390476204,0.7984689350599998,15.796172158190476
15.8797761,-2.2982557503809518,1.696709020190476,1.265882332155238,14.282885192142855
15.89659011,-3.491129205523809,3.366181441857143,1.2138004747266666,12.879206695380953
15.91339383,-4.509668293619048,4.655441431809524,0.791086525012381,11.666435677571428
15.93020502,-5.227432353238094,5.604679732047619,0.23343213267904758,10.599794247523809
15.94701232,-5.651813041666666,6.178055842619048,-0.20836942689238103,9.820684819190475
15.96381666,-5.715447323761905,6.203892946142857,-0.39368679560666675,9.687077282190476
15.98062608,-5.334427629285714,5.530749922761904,-0.3474718404161905,10.21374787642857
15.99741682,-4.708084151952381,4.175472679904762,-0.22897099463047627,10.631583073571429
16.01423849,-4.080491247714285,2.053624800857143,-0.3028150386209524,11.362805027857144
16.03104991,-3.513187590190476,-0.33716196057142833,-0.3667649528114286,12.352666887857144
16.04786022,-2.856666633142857,-2.5838739186666664,-0.33785572938285713,13.245778919761907
16.06466269,-2.167034194666666,-4.4125341572380945,-0.016915598144761883,13.891643767380954
16.08147768,-1.496784028619047,-5.833642675809524,0.5188104268552381,14.334541643571429
16.09827357,-0.8949727558571423,-6.870065405238096,0.91680930476,14.518186108809525
16.11508619,-0.3617123422380947,-7.517937489904762,1.0133213045219047,14.407945346476192
16.13189685,0.1687100047142863,-7.765510888304762,0.8501354015219048,14.279955984714288
16.14870341,0.7903941245238102,-7.742607536733333,0.6453475340933333,14.297478137571428
16.16550929,1.5086744626666673,-7.515017407114285,0.5648677078552382,14.460196141857145
16.18231694,2.231409595142858,-6.877772569304762,0.5315924725790476,15.005099774238095
16.19912985,2.723787058000001,-5.948233161495239,0.4507140743333333,15.81773131509524
16.21593304,3.1403196539523814,-5.154804263542856,0.22938861723809537,16.476278530428573
16.23274403,3.4790011587761906,-4.59283766287619,-0.14343763542857138,16.92924015885714
16.24955068,3.7491183621576196,-4.192217384066667,-0.6402024769523809,17.318751821809524
16.26635737,3.9199323881433337,-3.864896501638095,-1.2030704248571429,17.737019228190476
16.28316361,4.021176576610001,-3.452335743304762,-1.7777173632857144,18.246170167285715
16.29997126,4.0870448975338105,-2.831277642447619,-2.298101027809524,18.777771358
16.31678076,4.0674968560766676,-1.9700479049714286,-2.692709355142857,19.002187850714286
16.33359007,3.835900113724286,-0.8686417623047618,-2.9513323988095235,18.780816307857144
16.35039437,3.491594269171905,0.4060534069809524,-3.1033405406190475,18.225591618190474
16.36720377,3.246957370219524,2.2064391090761903,-3.1071806578571426,17.13960007342857
16.38400429,3.120813210838572,4.3320683069333334,-3.1099731070952377,15.855235725428573
16.40081892,2.9185664767909527,6.319131215504761,-3.1308340969999997,14.635942643857142
16.41762562,2.604887258495715,7.859438692028571,-3.3552268346476186,13.590133534999998
16.43443444,2.25720437373381,8.920123486695237,-3.7564956702238095,12.654803275571428
16.45124167,2.05169166843381,9.497291270076191,-4.038021372914286,12.008174327714286
16.46805112,2.0412272044814292,9.275949932838095,-3.980735431150476,12.20861547052381
16.4848515,2.010574454386191,8.183065483142858,-3.568296607102857,12.96265529938095
16.50165194,1.8834218298147627,6.205997808380952,-3.0456876911028568,14.121130247
16.51847433,1.7760141463861912,3.570787089809524,-2.508560400626667,15.544105541285713
16.53527944,1.5516527494338102,0.543039163142857,-1.9151995904838095,16.66284467461905
16.55208785,1.3524813425528577,-2.5215685478095238,-1.3586684677219047,17.379985522238094
16.56889547,1.1666468325528578,-4.996159031142857,-0.9231257252933334,17.86302003890476
16.58570594,1.1159972009623815,-6.643915879714285,-0.5752539335790475,17.940221049857143
16.6025085,1.211832625580953,-7.446248303619048,-0.30182221238857143,17.482160169047617
16.61932137,1.4706988335000006,-7.471197604666667,0.002575574897142827,17.345270880476193
16.6361295,1.7241328444142863,-7.000068141809523,0.3486700015638095,17.670156047619045
16.6529336,1.9270164853476197,-6.323312599904762,0.6452867488495239,18.249593995238097
16.66974101,2.0509048757571438,-5.60488339752381,0.7551000303257143,18.92731072047619
16.68655184,2.1190698147285723,-5.0503144711428565,0.6382099972304762,19.497045819523812
16.70335652,2.069312890419048,-4.736609935190476,0.4237654848019048,19.856959797285715
16.72016579,1.8763078281333339,-4.6813329282380955,0.2662549317542857,19.969907589190477
16.73697217,1.5812538010857147,-4.886118070857143,0.18717350994476198,19.853517142476193
16.75378032,1.2797597249428576,-5.182022639142857,0.1250891587066667,19.70308152457143
16.77059804,1.0325698398571435,-5.348907583666666,0.07394123797333338,19.688573162714288
16.78739684,0.8643265224761911,-5.268679777190476,0.04573422964476195,19.852916500809524
16.80420307,0.6507709593952387,-4.894409792190476,0.041371124235238144,20.116224255761907
16.82101246,0.296740622776191,-3.959482397,-0.03947766329047614,19.951923623476187
16.83782019,-0.03875094365238042,-2.5024062108095237,-0.29088843143333326,19.305540522380955
16.85462616,-0.4197378158428566,-0.47690632214285666,-0.6471242534809524,18.114086244761907
16.87142242,-0.9850061734619041,1.976342019714286,-1.1420160786714286,16.53614227142857
16.8882436,-1.5100415547952375,4.458530153904762,-1.6952596079809523,14.955059832380952
16.90503785,-1.9015372367238088,6.636276949428572,-2.1827446421190477,13.528493648571427
16.92185998,-2.1817962101523807,8.094638143733333,-2.444789463602381,12.370920218666667
16.9386499,-2.350211472719047,8.535836628733334,-2.501754803335714,11.962028378666666
16.95547439,-2.303570985766666,7.787321681209524,-2.4544224143357143,12.660807631380951
16.97226802,-2.0912035873380947,6.087671961304762,-2.3791590162880953,13.424640573285714
16.9890879,-1.9087889648142853,3.553520429876191,-2.053803372954762,14.042960806619048
17.00589663,-1.8836046740523802,0.5116776513047624,-1.5253875227166669,14.647973693285714
17.02270567,-1.96170224457619,-2.387109166314285,-1.0728018028119046,15.062574002809523
17.03951267,-1.9996539183571425,-4.72350788107619,-0.5425983014309523,15.367797244238094
17.05631874,-1.953889880814285,-6.276377405361904,0.05903547437857154,15.507466363761905
17.07311532,-1.9037697769095234,-7.067727906266667,0.5997451742833334,15.471184906714287
17.08993711,-1.9139384200999994,-7.256478014338096,0.99367530295,15.38813610990476
17.10674258,-1.963276647338095,-7.072909218814286,1.1708895763214286,15.491049022523809
17.12355229,-1.98465825257619,-6.763356935338095,1.08150155775,15.742422134666665
17.14035926,-2.0063524359095233,-6.443764186957142,0.8471770258452382,16.082878212666667
17.15716707,-2.0409672032428565,-6.113620031528571,0.6387853140404763,16.44021225842857
17.17397286,-2.0597016129571424,-5.7611458190999985,0.5639266542785716,16.78275471166667
17.1907809,-2.0501033123857133,-5.4311062724333325,0.6053861125166667,17.07236317942857
17.20759748,-1.9443537052904758,-5.1925725710999995,0.678191085754762,17.22819266895238
17.22439643,-1.7653475942428567,-5.076683884861904,0.6776998299452381,17.24365027942857
17.24120382,-1.5703641345761898,-5.026077974719047,0.5666139893023809,17.19780908752381
17.25801198,-1.3971800349571424,-4.878920101290476,0.4533027553452381,17.217533500857144
17.27481955,-1.3010960532904756,-4.406174591928571,0.3720691630666667,17.395999167904762
17.29162902,-1.39994517957619,-3.4676266855,0.3692684656952382,17.473844483619047
17.30843496,-1.8328001726238088,-1.9842213450238093,0.5093860655523811,17.106629886
17.3252338,-2.5512282394333328,-0.2550884654999995,0.6522967277095238,16.360129814095234
17.41138254,-3.133140257433333,1.3598460695952386,0.4225739724095239,14.895931055619046
17.42817809,-3.489037445623809,2.8340359640238098,-0.06022430594285706,13.374066780904762
17.44499505,-3.4419245038619044,3.5889215921190485,-0.45359046113333323,12.602704400428571
17.46180991,-3.2458867118428563,3.8095031916428574,-0.6561969234190477,12.377739575666666
17.47861325,-3.0022918837619046,3.3025519049761916,-0.7210880800857142,12.874979632333334
17.49542016,-2.6714541798571423,1.7559576939761914,-0.709040425990476,14.366727255095238
17.51222399,-2.5350221225333325,-0.12701534128571335,-0.8143383207047619,15.979268747571428
17.52904219,-2.3998472122952372,-1.853739670904761,-1.0172654134095236,17.08122379347619
17.54583833,-2.117213294628571,-3.2632728082857136,-0.9603847917428571,17.565901530619048
17.56265467,-1.7694132441999995,-4.295252550666667,-0.6729181181095237,17.459259164428573
17.5794589,-1.4817590941047616,-4.984037013523809,-0.32581025358571425,16.882350847476193
17.59626631,-1.2541560559476186,-5.380775383571428,-0.1207563507761904,16.441996698095238
17.61307529,-1.1175459907571423,-5.508780638333333,-0.08146630863333326,16.28740889904762
17.62988224,-1.0732454118523802,-5.421058677380951,-0.15962561820476184,16.376040814761907
17.64669397,-1.0450160730428566,-5.170741058333332,-0.22071261344285706,16.621115205238095
17.66349848,-0.9746653352333328,-4.869999272190476,-0.2168015610142857,16.886392882857145
17.68030695,-0.8755077747571421,-4.596139748761904,-0.1688505779666666,17.106959754761906
17.69711582,-0.7666020279476183,-4.408925170047619,-0.1074737508428571,17.239372734285713
17.71391895,-0.6328676881857136,-4.405586764809523,-0.1405469036571428,17.192210843809523
17.73072816,-0.4782813276142851,-4.549726281857143,-0.28492202356190477,17.009186007
17.74546498,-0.312375193519047,-4.721967061619047,-0.49928902724285706,16.823175785857142
17.76224506,-0.26423679075714224,-4.43063549795238,-0.6481669374666666,17.05946158352381
17.77905347,-0.255701110471428,-3.7231009349999997,-0.7691549914,17.140291469333334
17.79586307,-0.4780873798047613,-2.450199286238095,-0.825616416447619,16.64288262390476
17.81265469,-0.822617905471428,-0.9690161888095232,-1.0044932308285714,15.920943785809522
17.8294748,-1.2136464232333326,0.7998220579523815,-1.2948699792,14.95887180647619
17.84628516,-1.6439927986619043,3.1574269929523817,-1.5879190308585713,13.464381639809522
17.86309122,-1.7748356319380947,5.446914377666667,-1.6602543138252384,12.055688770571429
17.8798865,-1.8280907926047614,7.237416630857144,-1.469722509382381,10.961883872285714
17.89670596,-2.048418544604761,8.454149019333334,-1.3801098550919046,10.254745977095236
17.9135017,-2.325088898319047,9.096561250238096,-1.4578639439157144,9.944940446904761
17.93032089,-2.431006783499999,9.057318278714286,-1.6730147089157144,9.970977582142856
17.94713051,-2.132603395514285,7.77162538257143,-1.9608234280585715,10.682967658190474
17.963937,-1.774122953419047,5.509199642095238,-2.0170200041538098,11.814223668190476
17.9807358,-1.4553528853714282,2.9390646616190486,-1.765690241582381,12.976066552476189
17.99755237,-1.1516606580380946,0.480473291142858,-1.298774043772857,13.918793892
18.01436081,-0.8535088697999994,-1.6350670317142846,-0.7157379956776191,14.575646496285716
18.03116749,-0.597816569466666,-3.47839600695238,-0.10068603382047618,15.076304743428569
18.04798684,-0.4511290391238089,-4.93375841742857,0.34248162991285713,15.338441074380953
18.06478301,-0.40349693526666597,-5.78712549647619,0.5890241574509524,15.248653564428569
18.08159059,-0.3595219680285708,-6.089799767285713,0.7596349032128572,14.966291178333332
18.0984005,-0.2488398665395232,-5.8859895522857135,0.8706626775938096,15.115768646619047
18.11520589,-0.05508048192047556,-5.342291854380952,0.8538461750700002,15.628097484571429
18.13201541,0.1321371737461911,-4.62465165890476,0.7541083492128572,16.333801219190473
18.14882189,0.2658111822319054,-3.990765525761904,0.6085042837366667,16.973046704142856
18.16563328,0.35098698029381015,-3.671213603666666,0.3837590271652382,17.33415695557143
18.18243837,0.37790354096047685,-3.654788016761904,0.12789635406047625,17.426458239190474
18.19924468,0.35365983419857205,-3.7842577066190466,-0.12438505061428563,17.39711640152381
18.21605184,0.28509452229381016,-3.919688928190475,-0.28763588859999994,17.344711879619048
18.23286264,0.1689018294842863,-3.977052597238094,-0.3682777827095237,17.37033554852381
18.24966785,0.0702701636747625,-3.948936348333332,-0.3866627644333333,17.46054344309524
18.26647668,-0.04529996146809462,-3.813311417333332,-0.3685926740523809,17.62974333147619
18.28328373,-0.25901919319190414,-3.396336577619046,-0.2469792794014285,17.875033741142857
18.30008023,-0.8788400831919041,-2.140271027333332,0.08588232574142865,17.273973634666667
18.31690384,-1.6396850177157138,-0.17607927290476066,0.3411450185509524,16.114533891333334
18.33368947,-2.2639888809061897,1.7578993754761914,0.34099910640809533,14.664459832047621
18.35051722,-2.7635788236680945,3.4484519509428577,0.05851653344142863,13.256722036238093
18.36732829,-3.162043685049047,4.875569298609524,-0.34865566395857134,12.052867610809525
18.38413269,-3.446921008049047,6.116800376704764,-0.8174895984347618,11.019569119
18.40092661,-3.5312349002490473,6.966334638400001,-1.2679594669395238,10.190899261857144
18.41774716,-3.456553890672857,7.139550776971429,-1.5553061819395237,9.974225463190477
18.43454555,-3.378774972258571,6.6332642694000015,-1.68034123513,10.264882493047619
18.45136142,-3.383354380086666,5.335963295114287,-1.5319449361299997,10.507585613047619
18.46816934,-3.4217892148009517,3.1785938632095245,-1.1536004457014284,10.874898421619047
18.48497832,-3.4192682902771416,0.36005011130476255,-0.574019934320476,11.491348443047618
18.50178395,-3.420390106458095,-2.460665112028571,0.06350587391761914,12.283275001142856
18.51859019,-3.4792601722342855,-4.661795207266666,0.728076636917619,13.05863191257143
18.53540116,-3.5401152883771423,-5.980508486171428,1.3549209522033334,13.486680956380955
18.55220882,-3.4812823590914275,-6.41678019907619,1.941130998679524,13.425936601
18.56901656,-3.224998803377142,-6.170479933171428,2.332481517727143,13.607517035
18.58582278,-2.8283946968057134,-5.559303578742856,2.45178854187,14.109919744857145
18.60263363,-2.4207941123295234,-4.836587406123809,2.3320030428747622,14.724730691190477
18.61943946,-2.125124897267619,-4.201340402790477,2.0542808033985716,15.298842180619047
18.63624793,-1.946582487648571,-3.776535533838095,1.6783078455571432,15.726693413142858
18.6530536,-1.7741351467914281,-3.477034796028571,1.328002197461905,15.948616219619046
18.66986289,-1.4703747658390471,-3.318143981028571,1.0601237331761906,15.875065967238093
18.68666943,-1.221806548886666,-3.0718300912190477,0.9567613630633335,15.792265068523808
18.70347914,-1.0664524350771423,-2.8238612812571424,0.9896332735680954,15.764489859285716
18.7202845,-1.017434074743809,-2.638329301733333,0.9941929437442858,15.84221721652381
18.7370927,-1.0490649086485708,-2.4320695742571425,0.951358934291905,16.013494480857144
18.75390464,-1.1623559565057138,-2.12426578447619,0.947459899291905,16.317302974714284
18.77070943,-1.3125082991771424,-1.6211459979047613,0.9275564324823811,16.482837425809524
18.78751645,-1.4292803037342852,-0.9382999058571425,0.820324957387143,16.38765546038095
18.80432376,-1.60273328277619,0.1302575607142862,0.6103618286728574,15.980592251238095
18.82111138,-1.85430762877619,1.6843055310476196,0.33973872376809533,15.05961052709524
18.83793223,-2.1136647065380947,3.5896885048095246,-0.10046403466047606,13.591957612333333
18.85472778,-2.313290788985714,5.425153799876191,-0.5872255251842856,11.958005535476191
18.87155527,-2.4452126026047614,6.754854360828572,-0.9602777944128569,10.683989744571429
18.88835526,-2.4835713704142854,7.011008466542858,-1.2466114007938094,10.383174665999999
18.90517062,-2.5111680938904755,5.852341447161905,-1.386357862365238,11.314128567619047
18.92197693,-2.6774904727952373,3.6532508076380967,-1.215306110365238,12.445434157619047
18.93878661,-2.9319334257476184,1.104837576685715,-0.8096700836509522,13.266368400000001
18.9555822,-3.1083251408428563,-1.2428251218857136,-0.19884021941285712,13.71371754
18.9723995,-3.135368052004761,-3.168362867123809,0.5711767233014287,13.870703624761905
18.98921132,-3.0685506321476184,-4.689029942838094,1.2595316923490476,13.879327273809523
19.00601637,-2.976438511028571,-5.767797900933332,1.6591075729680953,13.729063476190477
19.02282766,-2.8810170832666664,-6.2907817244095225,1.8322490864966667,13.360318343000001
19.03963222,-2.709289880063809,-6.292678400933332,1.8581448097714284,13.31494273657143
19.05644091,-2.456123000159047,-5.887438433028571,1.7934056903285713,13.66879717352381
19.07324717,-2.1559269428733328,-5.228373685933333,1.7128054144476192,14.283112769333334
19.09005308,-1.8573275067304758,-4.604015849123809,1.6516106369571426,14.86525934204762
19.10686077,-1.610352062111428,-4.171686444409523,1.618133364652381,15.25194411009524
19.12366902,-1.4596767766733327,-3.9317297705047616,1.605203856985714,15.446596329999998
19.14048083,-1.44518516181619,-3.770216918790476,1.642521961795238,15.567003775238096
19.15728746,-1.457488184911428,-3.7044864833142848,1.664377429652381,15.62180607042857
19.17409509,-1.433479399911428,-3.637142203790476,1.6678439676523809,15.665470578666666
19.19090425,-1.434950715006666,-3.4743923002190473,1.7427942823666664,15.77547121842857
19.20771106,-1.435099896959047,-3.1905754630952377,1.812889446795238,15.918578990666669
19.2245158,-1.3779495216733326,-2.7306816915238086,1.7419021328333335,15.990130918095238
19.24132299,-1.3346260161971424,-1.7726862314285707,1.6153171999285716,15.70373551257143
19.32746411,-1.411366530863809,-0.2535845890476183,1.3533286168333334,14.725585449666667
19.34425709,-1.4867378530066662,1.6493653797142867,0.9196331671380953,13.335274977714286
19.36107939,-1.5010983943876186,3.3064888543609534,0.4246666573619048,11.765259862904761
19.3778758,-1.3743457453399994,3.775164649122858,-0.07048482269523806,11.228581535761904
19.39469557,-1.3290119511590472,3.3129612148371437,-0.1970323182190476,11.63282847957143
19.41150641,-1.33023624191619,2.3799257729323817,0.17684329968571433,12.637968849095238
19.42831065,-1.2609147117114279,1.0632361000752388,0.7265402788285714,14.060736306714286
19.44511802,-1.243092593659047,-0.6536895663533325,1.0375729487285714,15.784380078000002
19.46192438,-1.3316347371476185,-2.600942203258094,1.096994295042857,17.122051397666667
19.47873777,-1.4374553475476186,-4.38759644849619,1.0807776792095238,17.613148388142857
19.49553859,-1.4235854943095232,-5.90059770897238,1.0674123338857144,17.301766140047622
19.51235317,-1.2422314824999994,-6.769130889067618,1.0634924202333333,16.646948035142856
19.52915965,-0.9518593719761897,-6.854032789543809,1.0868278203142856,16.640870083238095
19.54596204,-0.6173948786999994,-6.437205541924762,1.1207198330761903,17.098198747999998
19.56276961,-0.2540320781761899,-5.921059790258094,1.1091423404095238,17.622525500761906
19.57958418,0.0845505623952387,-5.53180873992476,1.0549557919333334,17.98538182947619
19.59638828,0.328590733680953,-5.35038918597238,0.9664962888857141,18.146066117285713
19.61318531,0.5001851036519054,-5.269488880210476,0.9079288954571428,18.196737022904763
19.63000632,0.6108855179661911,-5.181547619639046,0.9350323138666667,18.245484668095237
19.64681109,0.6784936814423814,-5.123630388019999,0.9505947800571429,18.272275419714287
19.66362075,0.7351416179661909,-5.156817118877142,0.9058977621523809,18.23512230709524
19.68042568,0.8685366653947626,-5.117055621019999,0.833392969295238,18.227266585095236
19.69723679,0.9847842398709529,-5.074125653781904,0.7446901061333333,18.22336228414286
19.71404294,0.9961394469661911,-4.728963375666665,0.690217458195238,18.45445860666667
19.73085087,0.7566713833471435,-3.4058181449047615,0.6388386461095238,18.008428861761907
19.75184921,0.5217237700280958,-1.4236214734761894,0.19373821372857142,17.036124241761904
19.76867466,0.3093384561661911,0.7775459508095246,-0.6348636233666667,15.743495136047619
19.7854788,0.005403904747143463,3.014973435190477,-1.5246880592714287,14.364339847952381
19.80228218,-0.2770690009242851,5.199435528333334,-2.117670714747619,13.08139440795238
19.819091,-0.4612157004004756,7.221813677857145,-2.346920339747619,11.927949638904762
19.83590006,-0.612461839381428,8.79578974057143,-2.346223376961905,11.25314517061905
19.85270663,-0.8794832229528564,9.75910627209524,-2.2888427574761905,11.025282291857144
19.86951388,-1.2935971986671422,9.818358829428572,-2.179828212309524,10.918346410809525
19.88631015,-1.6425971076376182,9.00226679257143,-2.025850517342857,10.313103719904761
19.90313046,-1.6717750685423804,7.326249167333334,-1.8765381176285714,10.050744234666666
19.91993486,-1.4624572708280945,4.815709885428571,-1.5517756711047619,10.722184493714286
19.93674525,-1.0014966444471423,1.978538512571429,-1.0572096165809524,12.135063556095238
19.95353386,-0.5754774188280946,-0.4257522312380947,-0.381655477295238,13.56741100609524
19.97035891,-0.1456428372752374,-2.8129869190952377,0.29435031746666673,15.206745694047619
19.987182,0.20626283788666733,-4.7916974113809525,0.470181323152381,16.421538477285715
20.00396533,0.4425850364580959,-5.943628629333333,0.4231471844380953,16.879180887714284
20.0207868,0.45246683941047694,-6.475780124047619,0.46189616967619046,16.805236322238095
20.03759011,0.29360469136285783,-6.786631629866666,0.3599160170571429,16.829929896
20.05440111,0.12233453660095306,-6.747578030819047,0.3016498542,16.96496967609524
20.07120691,0.012632925839048282,-6.34822348215238,0.4257202629761904,17.36638584980952
20.08800539,-0.09857348077999932,-5.81023849767619,0.6726605237857142,17.912609099476192
20.10481885,-0.2150376187799993,-5.349538916723809,0.9686987200238096,18.384490086142858
20.12163507,-0.34607573958952315,-5.134282906723809,1.1880852522142855,18.621811165666667
20.13843854,-0.4674680123514279,-5.182848453390475,1.3128188251190476,18.630706424714287
20.15524518,-0.5893940021133327,-5.348301183485713,1.3912156676904763,18.596885425666667
20.17205428,-0.7303017438276184,-5.531224318819047,1.367008257357143,18.594916534238095
20.18886205,-0.887510027589523,-5.729360376009523,1.261021554357143,18.556625023142857
20.20566923,-0.9908449767323804,-5.764926138295237,1.1753858695857142,18.57806388247619
20.22247807,-1.036599284494285,-5.524451936914285,1.089097218752381,18.798307866190473
20.23927228,-1.1732409571904756,-5.038056237295238,0.9700831031904762,19.015814226142858
20.25609264,-1.6132306716190468,-3.9894835606761894,0.9084074779880952,18.630202057857144
20.27290122,-2.261182138333333,-2.0152875808666657,0.7380092398404761,17.423034536380953
20.28970928,-3.0871729058095227,0.506599608133334,0.40282922691190476,15.713257669714286
20.30651513,-3.785383076904761,2.8321267537047623,-0.13246914614047617,14.217727692571426
20.32332354,-4.388144822333333,5.1097928684190475,-0.7649329531404762,12.505502794476191
20.34013249,-4.86439983047619,6.938634304704762,-0.9778958076166666,11.198918256333334
20.35694548,-5.170919497761904,7.993147191704763,-0.9045194330404762,10.673847398761904
20.37373978,-5.183755147999999,8.46503005722857,-0.8759746948499999,10.675542382190477
20.39055421,-4.904363359680952,8.537790298604763,-0.7960891893261904,10.500466642523808
20.40737224,-4.402834415395238,7.874744369985716,-0.8830802724214285,10.527193129619047
20.42417533,-3.5975198066333327,6.260854494271429,-1.08640684115,10.790537870571429
20.44096555,-2.5514012293952377,3.9532322204619055,-1.1232449411976189,11.340845334857143
20.45779677,-1.5806793714428564,1.2734319147476196,-1.070145252197619,12.17932765295238
20.47458212,-0.7327983719666661,-1.2885013304904755,-1.0673473307214285,13.313196269142859
20.49140302,0.18959560860476238,-3.519660268204761,-0.7970672306738096,14.678744736761903
20.50819482,0.9434204329857148,-5.260684466966666,-0.18501236043571417,15.778109098190477
20.52501397,1.3586015021285718,-6.478414307823809,0.37764867427857157,16.379603216285712
20.54182801,1.4330914135571435,-7.161205291109523,0.7010872278500001,16.497996072809524
20.55863412,1.3749157589380956,-7.300501504871428,0.8041563175452382,16.433824855142856
20.57544189,1.3407769545095245,-6.947341463966666,0.7126997964261905,16.786874637380954
20.59224477,1.2848166058428574,-6.234710828633333,0.4914531451785716,17.515124264047618
20.60905923,1.195526770319048,-5.514387810966666,0.2542716377619049,18.25487975090476
20.6258598,1.1373026826523813,-5.215586388871428,0.15726393452857157,18.558125419523808
20.64267197,1.0755269074619052,-5.4035271680619035,0.21949955388571446,18.44833641495238
20.65948098,0.9954945587952385,-5.774626390347619,0.46280153870000007,18.314412760380954
20.6762851,0.8820921467000005,-5.916726508823809,0.7857466679857145,18.36906985395238
20.69309497,0.834388290176191,-5.9393002069190475,1.0786584473190477,18.438703779285714
20.70990026,0.8167939186523813,-5.874920968966666,1.3064773309333335,18.545800465238095
20.72671013,0.7235837097000005,-5.70825589172857,1.4608299618380955,18.743133895761904
20.74351804,0.46354299509523855,-5.393177360714285,1.657939876790476,18.992590600095237
20.76032379,-0.03325383995238048,-4.770237070142857,1.9711860928857146,18.901987694952382
20.77713237,-0.8953361394761901,-3.674839847666666,2.1752223088380953,18.23229825657143
20.79394724,-2.0129527247142853,-2.0889387691428567,2.0039133656000003,17.098419543238094
20.81073597,-3.0466449030476186,-0.06150862095238042,1.712196676457143,15.727475969904761
20.82755453,-3.883728015904761,2.1049061169047625,1.6005408110809523,14.263066111999999
20.84436483,-4.723450558523809,4.181429943142858,1.3667477000142858,12.731581996238095
20.86117947,-5.355845803333333,5.89524486,0.8950353207904762,11.48863243942857
20.87796864,-5.699694463190475,7.192782686285715,0.5339649518095239,10.839224617571428
20.89477672,-5.7349966026666666,8.015203464999999,0.3708212205142858,10.766270911047618
20.91159537,-5.64612208095238,8.177335591904763,0.3348795743000001,10.826674044047618
20.92840377,-5.473822105490476,7.596402611190476,0.449920256909524,10.213837244999999
20.94520938,-5.100016696109524,6.440681491619048,0.8183397679095238,9.341754002666667
20.96203125,-4.341636578347619,4.892945096857143,1.1082037403380953,8.933180985523808
20.97882671,-3.184569438347619,2.7669225311428574,0.9561114992428572,9.895687832190477
20.99562218,-1.9786328928238088,0.4894218337142861,0.7066662992428571,11.75514364152381
21.01242698,-1.0115767092523804,-1.5727523957619045,0.6984030972904763,13.48746122752381
21.02925047,-0.28129217729999956,-3.526094663428571,0.5631948992904763,14.896281179190474
21.04605622,0.3762976442714291,-5.112977708761904,0.23658310790952392,15.952413862
21.06286564,1.0249051137952387,-6.344242731333333,-0.23784961028095225,16.616700367904762
21.07967391,1.6555227096523815,-7.214279946428571,-0.6727989175190475,16.878958142809523
21.09648025,2.1742752164142862,-7.661194619285714,-0.8928842091380951,16.82021955904762
21.11328515,2.4619281403619055,-7.739499727523809,-0.9358863462380951,16.63055463252381
21.13010005,2.517943699980953,-7.403125989523809,-0.8305955274761904,16.88083028804762
21.14690201,2.523633161980953,-6.885345322333333,-0.5436036984761904,17.31501479995238
21.16371193,2.4372734566952388,-6.412410349571427,-0.2920231195238094,17.74889804233333
21.18052009,2.27600283812381,-6.1667260212380945,-0.3000360273714285,18.037010012142858
21.19732566,2.17102300512381,-6.157456102523808,-0.49379348192380934,18.179565960285714
21.21412134,2.1899366375047626,-6.217500936142857,-0.6901752835571427,18.197168695190477
21.23093012,2.3397034913619055,-6.315978367857142,-0.7821416997190476,18.025962490809523
21.24775299,2.491866293028572,-6.4417013210952385,-0.6885849606619046,17.857635037142856
21.32757483,2.4749974519333344,-6.583879674904761,-0.6174297645238094,17.759401568571427
21.34439447,2.224882148185715,-6.519508702095237,-0.6215853435933332,17.95427865485714
21.36118548,1.6675143238047623,-6.184250286333333,-0.8394295005933332,18.17344579361905
21.3780112,0.7421355245190481,-5.467806588904761,-0.971831205355238,17.943214612666665
21.3948173,-0.5920775052904756,-3.74432977047619,-0.6770296295457141,16.756423706
21.41161944,-1.9090256240523804,-1.3496191389999994,-0.42106449887904746,15.057164676
21.42843623,-2.9166601275285706,1.0556617009047624,-0.6756299875933331,13.498180953142858
21.44523683,-3.6192750934333326,3.228768212571429,-0.8988299227838096,12.150242099809523
21.46204851,-4.3094168393857135,4.821606454428572,-0.905191475402857,11.074663207904761
21.4788513,-4.886183943195237,5.825666836285715,-0.6443027796980951,10.14150059757143
21.49566683,-5.003317333528571,6.165838945428572,-0.013838952459999892,9.879246569857143
21.51247171,-4.620561963099999,5.7100937481428575,0.8032492883495239,10.596927206285715
21.5292766,-3.830747014190476,4.167565641285715,1.1228224835447618,11.989055942238096
21.5460741,-2.782084147142857,1.8549011550952383,0.9198134628304763,13.286293667
21.56289375,-1.8514449258095234,-0.4754224729999998,0.48606206135428576,14.123327069380954
21.57970276,-0.8182252702857139,-2.806736741571428,0.28938450712095243,14.858491284142858
21.596508,0.2560772668571432,-4.817712760619047,0.43931674967809525,15.679203680333334
21.61331341,1.049807321476191,-6.142969676047619,0.78506910244,16.29246685938095
21.63012988,1.5391867501428576,-6.651410102428571,0.9752428021685715,16.319161418190475
21.64693255,1.7963487307142862,-6.518432843857143,0.8126851321209524,16.44000203909524
21.66374,1.8921403430476194,-6.0047006149047615,0.26028228378761903,17.014808820238095
21.68054817,1.9828405152857147,-5.416378565857142,-0.0882517439266667,17.567048113380952
21.69735437,2.022419679666667,-5.027572676999999,-0.09220971940523814,17.86762922709524
21.71416658,2.0608559562380955,-4.893294674761904,0.12388476311857137,17.938849907333335
21.73095846,2.0237815492857147,-4.765558674,0.4829556658804761,18.10110178209524
21.74780903,2.0225779668571433,-4.720849854380952,0.6593339841185714,18.17392118495238
21.76458373,2.0314926419047623,-4.752536410142857,0.7383124091185713,18.16337125495238
21.78138182,2.01763162152381,-4.878265153571428,0.7817949284471427,18.078151753619046
21.79820267,1.9555568694285717,-5.011846110714285,0.7424958377328571,18.031999389333333
21.81499217,1.942976111380953,-5.094948938666667,0.7473996083519047,17.993733306714287
21.83181974,1.7535160609047624,-5.081134852666667,0.8129320173614286,18.166459535857143
21.84861142,1.0689860297619052,-4.703913972238095,0.6498754053614285,18.168074078095238
21.86543073,0.013256186380952733,-3.8439316408571425,0.13535614517095232,17.59301220238095
21.88223007,-1.1490389506190473,-2.2515723706666666,-0.10337067506714293,16.441973261809522
21.89905465,-2.3345801037619043,-0.23797292952380927,0.1032133187423809,15.000789017047618
21.91585805,-3.3796075184761896,1.5307701996190477,0.5193894562185714,13.843000267999999
21.93266456,-4.460500036095238,3.115095240614286,0.7595247228804761,12.742844402285714
21.94947654,-5.5408545903809525,4.6263516174238095,0.8577242720709523,11.726914265619047
21.96627734,-6.405428841285714,5.885172446471428,0.9052827045947619,11.125697412761903
21.98309148,-7.058862141476189,6.3866746424238094,1.0395105991995237,11.203105099190477
21.99989859,-7.456234228285713,5.7633705932809525,1.3814003666280952,11.280808513714286
22.01670393,-7.4964264463333325,4.4158820989952385,2.2109434349614285,11.108068393714285
22.03351362,-7.003063224857142,2.8291794799476193,3.0530356990566667,11.280755921809524
22.0503188,-6.0180151122380945,1.2045840194714283,3.2412008812333335,11.892949433714286
22.06711766,-4.7828680672857145,-0.46264081895714276,2.829205243233333,12.947803931333334
22.08393983,-3.5339949472380945,-2.4280933766714283,2.1169471768047616,14.151645710380953
22.10074467,-2.527343659285714,-4.4367904094809525,1.5156767736142855,15.360628971333332
22.11754689,-1.6658770246190473,-6.104268562338095,1.2750500070428568,16.251954786571428
22.13436332,-0.9265050209999995,-7.332921244052381,1.3583470780476188,16.80636607742857
22.15117178,-0.33847375171428534,-8.022836923814285,1.6346733597619045,16.886636920285714
22.16796333,0.09054917352380995,-8.127768653,1.9020221488095237,16.795412311380954
22.18478376,0.5288234208095243,-7.685315472761904,1.9638880433809522,17.060382051619047
22.20158882,1.0035517099047624,-6.9538381211904765,1.8406490029952383,17.59025103852381
22.21839872,1.4072608944761908,-6.158524853523809,1.6862375536666665,18.193149974714284
22.23520601,1.6262586340952385,-5.497179235619048,1.5483931727619047,18.67370663147619
22.25201294,1.7134560968095243,-5.113994984380953,1.2646006769999998,18.915043031476188
22.26880972,1.7980590430952386,-4.919479597142857,0.8775205298571427,18.942205279095237
22.28562879,1.9430575027142862,-4.7469585509,0.5504796531904761,18.814348806809523
22.30243676,2.1373356521428577,-4.654400893566667,0.25767316404761886,18.61674008
22.31924661,2.3359509989523812,-4.612849099280952,0.010507052714285542,18.442030299571428
22.33603995,2.5280794074761905,-4.458098933757143,-0.21041438423809541,18.351557266666667
22.3528599,2.612651495619048,-3.856271403138096,-0.46514376871428587,18.289173545809522
22.36966663,2.435857602428572,-2.980774833852381,-1.0424800346666667,18.01346938957143
22.38647423,1.7546337558571434,-1.879415194185714,-1.8128852816190477,17.473310136238098
22.4032848,0.6590959796190481,-0.5478198640904759,-2.1787210391428573,16.710053835761904
22.4200891,-0.586073251428571,1.05149650562381,-2.0514269415238098,15.618224161476189
22.43690015,-1.7036734878571425,2.980980010338096,-1.7590837564761903,14.247828127904762
22.45370741,-2.5357010820476185,5.0261313801476195,-1.5052441160952381,12.911617647619048
22.47051625,-3.2009580135714284,6.739136355385715,-1.4743987351428571,11.918966665285714
22.487319,-3.74337382547619,7.970073813719048,-1.558896748914286,11.24591046647619
22.50412911,-4.120282468380952,8.560463337909525,-1.6420210913428572,10.931320893428571
22.52093861,-4.3154726483,8.582082794047619,-1.7066775646761907,10.814652943666667
22.53775075,-4.291801884061904,7.76846013752381,-1.735801711104762,10.565783860619048
22.55454967,-3.9598967461095236,5.586430413238096,-1.7993125491000002,10.854854533
22.57136033,-3.584236735347619,2.539098103714286,-1.7992765422190478,11.732756706333333
22.58817395,-3.0740163552999995,-0.49458022342857144,-1.635002962314286,12.960558365380953
22.60496632,-2.3778483867285707,-2.9414643334285713,-1.188032499504762,14.10235248204762
22.62177911,-1.5963926655380947,-4.890983763142856,-0.688110110409524,15.185040367761903
22.63859559,-0.916067588871428,-6.276434830380952,-0.4077046911714287,15.994010365285714
22.65539785,-0.3714833372523805,-7.079022475952381,-0.3158787879809525,16.333326530190476
22.672207,0.01633524898571471,-7.454295453857143,-0.2895598348380954,16.14929174090476
22.68900974,0.22036412784285758,-7.392327649571428,-0.21356217853809534,16.09136309480952
22.70582288,0.299391031271429,-7.029930410380952,-0.12528173915714297,16.36190680409524
22.72260842,0.34311329750952424,-6.538112050619047,-0.03602220549047629,16.746702022238097
22.73944042,0.40976200784285766,-6.020676023142856,0.029876610319047536,17.135293310809523
22.75623226,0.48931250117619096,-5.546470597523809,-0.0173871481571429,17.497618951761904
22.77305413,0.5618788968904767,-5.215767952,-0.18182665606190482,17.773997215571427
22.78985254,0.6127612817952386,-5.118246578761905,-0.3979056640619048,17.911769578666664
22.80667079,0.5676074141285719,-5.188232013904762,-0.6142330701571429,17.983661041809526
22.82345925,0.4254393009857147,-5.245544752238096,-0.7735260859190476,18.063611775571427
22.8402827,0.2523188137000004,-5.183035692333333,-0.8833690164333332,18.225327998190476
22.85709431,0.09890208922380997,-4.95323524095238,-0.9579179506190476,18.49528711757143
22.87389881,-0.07310013547619007,-4.627749125904762,-0.9875169757619049,18.823842778190475
22.89069315,-0.405227025428571,-3.966471173238095,-0.9358612177619049,18.940210232190477
22.90750254,-0.9978676978571425,-2.3709944777619043,-0.7251432445238095,18.113482791142857
22.92432791,-1.5613834518571426,-0.0473066520952378,-0.4835596218857143,16.592281122666662
22.9411302,-2.1355691411428563,2.4107975950952385,-0.3739668435047619,14.89241522633333
22.95794299,-2.752786908952381,4.497352099904763,-0.46605238664761905,13.440076135095236
22.9747501,-3.3960893269047614,6.346465677619048,-0.6260960349809523,12.196255649619047
22.99155274,-3.968915712380952,7.818747497095238,-0.6912792204095238,11.361156764190477
23.00835853,-4.428288777809523,8.607780160857143,-0.6503203936476191,10.935893358000001
23.02517272,-4.6851730461428565,8.529395579809524,-0.6248917721142857,11.035600399380952
23.04196902,-4.6805828980952375,7.507410571,-0.6941429886999999,11.378304058380952
23.05878858,-4.436717794142857,5.932792367666666,-0.750177462842857,11.630886388857144
23.0755895,-3.973018521428571,3.77831275052381,-0.4485962390333333,12.222937650761905
23.09240097,-3.5359228112380947,1.0608161510000005,0.14562393372857146,13.289212003142856
23.10920881,-3.170073883952381,-1.5090716456666662,0.9118725003952383,14.277416337428571
23.12601473,-2.7300534816666664,-3.331675870428571,1.6946690876809525,14.780708900285715
23.14282633,-2.259444316285714,-4.362815925523809,2.326851867442857,14.869042146952378
23.15963673,-1.787202097142857,-5.143891334999999,2.76098921182381,14.84592221790476
23.17643932,-1.3946163427619045,-5.687182131714285,2.950466334766667,14.57044709695238
23.19324557,-1.0564882982714283,-5.907431852714286,3.020555073247619,14.226906037095237
23.21004493,-0.7362733227952378,-5.85878383595238,3.0174428507809523,14.198678147761907
23.22685825,-0.47775741984285686,-5.503694966142858,2.906417568447619,14.504816104142858
23.24367269,-0.33433985706666636,-4.983150823238095,2.651065945542857,14.986480444142858
23.26047747,-0.313199122685714,-4.517437958238095,2.2915750514,15.427916380428572
23.27729135,-0.35074366835238063,-4.195095721523809,1.8416165680190475,15.736722519857143
23.29409578,-0.39330896873333304,-3.9188362763333324,1.3893560964952383,15.981959782857142
23.31089665,-0.45691209744761874,-3.6693527363809517,1.0112089031619047,16.194548791238095
23.32771402,-0.5203645228761902,-3.545307795809523,0.7105703864,16.31582297766667
23.34451527,-0.540933120780952,-3.49497204795238,0.47549769416190474,16.36834607109524
23.36132482,-0.5539078144476187,-3.311598165285713,0.32168713625714285,16.509641986142856
23.37813315,-0.6020724659714282,-2.7282903995238086,0.29415417558095236,16.628447409857145
23.46216967,-0.7769297418285712,-1.6861056149999993,0.5279436082000001,16.390641294619048
23.47896911,-1.109520094780952,-0.5394783476190469,0.7351480182,15.817821292714287
23.49578626,-1.6373230162571424,0.7654310634285721,0.5344720314871428,14.697118559428572
23.51258829,-2.0475134623047615,2.3346932502380957,0.03135580420142853,13.137760772809527
23.52939933,-2.1708044098142856,3.518094266904763,-0.593251679274762,11.878858622809524
23.5462086,-2.1503426688619043,3.6021275064285723,-1.1616800140366668,11.713098951857143
23.56301722,-2.0906603223380946,2.3234740892857153,-1.468876605622381,12.918986259952382
23.57982179,-2.0419456391952377,0.8495070364761911,-1.369904171527143,14.37429047090476
23.5966341,-1.768441904242857,-0.42971011609523757,-0.8082644966128573,15.77029034661905
23.6134403,-1.3684455554476185,-1.6944965409523807,-0.022401926046190502,17.019096166
23.63024333,-1.0462388312095234,-2.984153452333333,0.36149731422523806,17.566140063285715
23.64705648,-0.8956330391619044,-4.445241224238095,0.17510019317761902,17.600145844238096
23.66386933,-0.805827595080952,-5.8741023880476195,-0.019409085965238132,17.29002729566667
23.68067188,-0.6511858305952376,-6.867501531095237,-0.04937344215571431,16.660481136190477
23.69748766,-0.4545966785733329,-7.285057044809524,0.1417890986538095,16.180205004761905
23.71428379,-0.26891215657333295,-7.295139153857142,0.45754627108238094,16.095505544761906
