Time (s),Linear Acceleration x (m/s^2),Linear Acceleration y (m/s^2),Linear Acceleration z (m/s^2),Absolute acceleration (m/s^2)
0.358737834,-0.28827921552438096,-0.07860064576552381,0.5580650766709523,1.0896961933966667
0.375540406,-0.39297789622914286,-0.1491366830512381,0.7229068648090475,1.224047245425238
0.392348806,-0.5340876579902857,-0.20242782219885716,0.8665966107757144,1.4024812246347618
0.409154532,-0.7143261546807619,-0.22071366507980952,0.9600239793519046,1.603575851587143
0.425965009,-0.9009814262902858,-0.21907945473219045,0.9374326694661905,1.77340835873
0.442777264,-1.091721103380762,-0.21415390286552383,0.8131044194661905,1.9550838894442857
0.459577985,-1.3026696387426666,-0.2031292333464762,0.7208092127519047,2.141056670396667
0.476385095,-1.520255179676,-0.20892951601790474,0.6283308778328571,2.3237464385871425
0.493194452,-1.712864853152381,-0.1212174679512381,0.5747170419757143,2.485580974096667
0.509985518,-1.8457945869571428,0.011414048243999993,0.6242132441942857,2.603606106820476
0.526810928,-1.8198691777095237,0.16476570709638094,0.4485394528419048,2.791091167096667
0.543615026,-1.5249279113142855,0.2727020525011429,0.3532681776628571,3.0997909092442857
0.560425868,-0.9162757511,0.2261364857552381,0.4160653210304762,3.707237785223809
0.577230953,-0.0710273016142857,0.044199273717142884,0.29360556882095235,4.556070297733333
0.594038,0.894188199890476,-0.08523128993523808,0.06527327634476195,5.524288534057142
0.610842912,1.9284725645809522,-0.18832902959238093,-0.11978221796952376,6.5352203166619045
0.627662219,2.9532527928,-0.1747365536542857,-0.21473206513809517,7.526986588961904
0.644449928,3.9495665236619044,-0.04932804612571427,-0.29644826768571425,8.511412910238095
0.661268481,4.919514747238095,0.05704606084285716,-0.3990527193047618,9.410080451666667
0.678081979,5.641499882761904,0.19821272230952386,-0.501490561747619,9.98534011395238
0.694884907,5.9994185312857145,0.2674758726047619,-0.6087295952428571,10.140406466142858
0.711678659,6.041194779690477,0.2273640498714286,-0.6109525646714286,10.139048057571427
0.728496348,5.642362912452381,-0.12906388929523813,-0.9382272050523808,10.63426935357143
0.74531011,5.209347202833333,-0.31822417951904763,-1.0749354958761903,11.05903508452381
0.762115071,4.981442156452381,-0.13740150055714287,-0.8225711555904761,11.41154909152381
0.778920003,4.7259661585,-0.023182334585714292,-0.46376457100476187,11.803923315809524
0.795732444,4.467546576595238,0.06801668665238096,-0.08972143557619046,12.13902148752381
0.812537813,4.220711140452381,0.1565660323809524,0.16564803747142864,12.434862750333334
0.829341209,3.956465902690476,0.2693063162904762,0.3412592751523811,12.720362053
0.846150424,3.6313846907380953,0.2938190841,0.45844954533333343,13.050789686190477
0.860861229,3.202813103404762,0.2877945758142857,0.48377118223809523,13.438206057571428
0.877678592,2.6234659468809522,0.2820187381476191,0.7069739784571429,13.740612606952382
0.894475121,1.8381511143571427,0.3148256568619048,0.7910824531857144,13.91353976090476
0.911280414,0.7585316159285714,0.49208401216190467,0.6785915323714287,13.794752786142856
0.928088816,-0.5592206318809523,0.7983477768761905,0.7468906215142858,13.40993920995238
0.944898462,-1.9955087390714286,1.0477167850666664,0.8996892174190476,12.897147258999999
0.961705088,-3.4820611592619044,1.2756386569714284,0.9764623386571429,12.347438580904761
0.978511318,-4.947859174166666,1.404503978438095,0.9572401018476191,11.823836867095238
0.995322389,-6.38424033254762,1.4455393694857142,0.904009157704762,11.318072419952381
1.012127829,-7.780109360452381,1.5452156606285716,0.8142271580857143,10.870828252809524
1.028935146,-8.905706723642858,1.6526746608190477,0.6630370644809525,10.716955503761906
1.045741381,-9.680337815071429,1.868273315,0.4815253018809524,10.992399880333334
1.062550311,-10.126287187809524,2.220755702,0.1985394443571429,11.406096853809524
1.079360669,-10.04598999,2.8300217787619046,0.2515884069761905,11.22388579
1.096163928,-9.871587526190476,3.250968422238096,0.07306390999047625,11.082026271904763
1.112971729,-9.818066574238095,3.270564590238096,-0.5113093597714286,10.977492941047618
1.129767928,-9.456088043333333,3.414557706809524,-0.5648383271523809,10.788424925428572
1.146586914,-6.682624067619049,2.918966668095238,0.45109811570476194,12.866695537809525
1.163383682,-1.9752073061904762,1.0921457268571428,2.8532776293238094,17.56162083304762
1.180202057,3.310022011904761,-0.007223350666666678,3.9724515650380954,22.068815100190477
1.197018464,6.080118336666667,-0.2963997296190476,4.602590745561905,23.910877471142857
1.213817165,7.5483902276190475,-0.41397469385714286,4.604535775704762,24.308376153047618
1.23062905,7.954077764285713,-0.2885275909047618,4.5765492776,24.047198664809525
1.247434257,7.9844105113333335,-0.5730162915714284,4.914500293442857,24.13167532338095
1.264239439,6.44312381595238,-0.6653565055047619,5.93128536444762,25.875219218142856
1.281048927,4.605652671380952,-0.6958624238380952,5.62298010092381,27.719156543380954
1.297854623,3.692420231428571,-1.1372007245523807,6.075932746971428,28.671592157190474
1.314674951,3.411516233523809,-1.7037381161238094,6.6167088862095245,29.11709656004762
1.331472523,3.3029273789047613,-2.272395230504762,6.817693460685715,29.314740206714283
1.348277923,3.3195412483809514,-2.8629668837904765,7.082696892114285,29.42846732052381
1.365084839,3.404141061190476,-3.4077132145999993,7.410907404923809,29.452178946238096
1.381872991,3.495797632523809,-3.8767663467904763,7.725818191447618,29.385593277190477
1.398706945,3.6092531550476186,-4.318038934790477,8.03368595687619,29.24648698214286
1.415507667,3.7039529691904756,-4.718204401838095,8.366699332447618,29.117620823
1.432314337,3.7241009285714277,-5.033053403838095,8.532226244790476,29.043961569571426
1.449124747,3.7078777477142855,-5.306969120409524,8.6506323816,28.996002945904767
1.4659303,3.6322452209523806,-5.552295469123809,8.770108529647619,28.989843005571423
1.482737978,3.293377897190476,-5.86277506464762,8.341300044885715,29.036736545904756
1.499545779,0.5696291907619043,-5.506086536838096,6.9265630699809515,26.83439631047619
1.516342548,-4.075717132857143,-3.811990732219048,4.227395790076191,22.035304245380953
1.589887767,-9.234411443904763,-2.8769495259333335,2.9292123231380947,17.386300185285712
1.606696249,-11.834464504761904,-2.7745977468857146,2.176001755928571,15.371650458380952
1.62349875,-12.953167256904763,-2.9615906646476193,2.1462659892,14.702661063285715
1.640310222,-12.213372412142856,-3.445672841219048,2.3786025160380952,15.143942818666666
1.657115897,-9.966028077285713,-3.283407185687143,3.0417374541333335,16.609749890095237
1.673929577,-4.42652525252381,-3.3011693868585716,3.681854100323809,18.248862074857147
1.690737011,1.860985574142857,-3.9281918460966665,4.1944005260857145,19.930431739142858
1.707542738,5.521359807,-3.925513610715715,3.3969463733238094,20.825192227238094
1.724348789,7.603749093666666,-3.7243126259538095,2.6759440216571426,21.27156011104762
1.741155288,9.015743664619047,-3.4617425399538098,2.392467231895238,21.463665168190477
1.757961085,9.722352573142857,-3.1047127727157147,2.6789617480857144,21.365077205809524
1.774779342,9.363375119190477,-2.7001774734776194,3.1851367440857143,21.835921530095238
1.791579157,7.577081249142857,-2.427069277801429,3.2626453071809527,23.532689385809526
1.808395686,7.1405434837619035,-2.190524566563334,3.6668764015619053,24.074368568476192
1.825195837,7.035356067714286,-2.0899568169919047,4.213138132085715,24.51059283
1.841985143,7.017235847,-2.131602832087143,4.971127550171429,24.99764293247619
1.85880867,7.0622945969523805,-2.2397039786585715,5.627738016409523,25.288883602809527
1.875612729,7.159377302666666,-2.3353703531347625,5.890079038885714,25.24040521166667
1.89242701,7.138445922571428,-2.391176433658572,5.793557933790476,25.30138456504762
1.909231381,7.007846355666666,-2.423695450610953,5.55250457964762,25.517105215714288
1.926036701,6.855920496904761,-2.4289390131347623,5.290155615552381,25.752369035571434
1.94284919,6.673441183666666,-2.3830216866204768,5.055472309109524,25.988491264238096
1.959652525,6.50094997404762,-2.3030119735776196,4.883700760080952,26.182816727333332
1.976466744,6.200250876190476,-2.1091531854300003,4.739044394238095,26.40019783195238
1.993267791,5.120707853238095,-1.8857833315823815,4.5319969346,26.140041143333335
2.010078389,2.8770517856666666,-1.9207378709476195,3.761123229171428,24.59358127809524
2.026888214,-1.1329556181428573,-1.9679601049047624,2.5224501552666667,21.329907393809524
2.043691896,-5.620916297666667,-1.4815177974333338,2.7837646155047615,17.949782780000003
2.060488415,-8.400522890047618,-1.2381472247190477,3.541796119980953,16.194227087142856
2.077307203,-10.23716152242857,-1.0790596377476194,4.074708896552381,15.352975095714285
2.094116487,-11.573408240047618,-0.9949889325571432,4.436603390552381,14.980671983333334
2.110923749,-12.301532449904764,-1.0217308232238098,4.1323632546,14.942939575476192
2.127732141,-12.010431584666666,-1.1787381427952384,3.534357130790476,14.389818999857141
2.1445411,-10.270736353428571,-1.3052757694714288,3.353615576552381,12.652437413095237
2.161346601,-9.013078621095238,-1.9386461463761908,2.4624052927904763,12.485715467857144
2.178152216,-4.718500159666666,-1.6516970794714287,2.185339970409524,15.450177450238098
2.194959345,1.5179375476666668,-0.5610152312333337,2.8285795818380954,20.616774723571428
2.211777318,6.099164487142857,-0.6319619700904766,2.1868151680285712,24.114083044523813
2.228576187,8.371229309142857,-1.2735129879000004,1.346548361361905,25.911168367809523
2.245383418,9.777136667571428,-1.6597937629952386,0.930168387266667,26.62418552923809
2.262189562,10.457018989666667,-1.8510583128523816,1.5247149323619051,26.337754187714285
2.279001399,9.144787925380953,-1.7294960930428576,2.7028095239809526,27.73395857438095
2.29582098,8.294350670142856,-1.4424616297476196,4.207644448314286,28.997680908190475
2.312613574,8.39218425795238,-1.4862143766476195,5.890026395980953,29.987878802952384
2.329420835,8.569118727380951,-1.7153307767476194,7.220978552314286,30.788512794857144
2.346230018,8.783553305666667,-1.960854167071429,8.047429147285714,31.26779273061905
2.363014923,9.059233143761904,-2.1446153550476192,8.357735378428572,31.365978031571426
2.379842284,9.301244304619047,-2.249652959128572,8.139907615523809,31.070714263285716
2.396651916,9.368413993761905,-2.316209160219048,7.543208718285716,30.922449739476196
2.413462005,9.256171976142857,-2.325679725219048,6.864791126476191,31.042336702333333
2.430266794,9.133675552809523,-2.367868389476191,6.300651828428571,31.19479895090476
2.447072766,9.067815440428571,-2.45339031452381,5.841371882523809,31.322360580428576
2.463882581,9.010227090190476,-2.539249034190477,5.444945545428571,31.449030046380955
2.480689017,8.926295848285715,-2.598440062476191,5.181700541857143,31.559357762952377
2.497501232,8.826318763714285,-2.66323173052381,4.99856237004762,31.686258222571432
2.514299085,7.931697414190476,-2.301555627809524,5.171621561095238,31.396935329238097
2.531117688,3.705262842761905,-2.8028737873809524,4.584847052952381,28.05450637590476
2.547918909,-2.5268377808571425,-4.001059117904762,3.062456040333333,22.482465189238095
2.56473557,-7.148526533,-4.015058511904762,3.065098013380953,18.764298998761905
2.581534671,-9.49816560804762,-3.51550737457143,3.744004192942857,17.07870122542857
2.598341414,-10.843966870666666,-3.3105527049523817,4.360232413057143,16.345131466857143
2.615150171,-11.337157863142856,-3.3030224925714293,4.08075471744762,16.43028755761905
2.631961127,-9.810632274666666,-3.6295718069047624,3.215834634685714,14.807776773142857
2.648772477,-8.766187282333332,-4.135833269142857,1.9279658909238093,13.36788058585714
2.665574795,-8.640443734285713,-4.279651687333334,0.2282869251142856,12.240648165904762
2.682380072,-7.616954099904761,-4.333778108904762,-0.7968728881714288,11.75281891257143
2.699187842,-3.4330013142857134,-3.3786325002857147,-1.2613176391238097,14.847235888761904
2.715994677,1.7520807818571429,-0.8681983267142864,-0.8153361138857141,19.84172474304762
2.732806871,5.910236995285715,-0.23360172904761956,-2.5853908742190477,23.790092652285715
2.749610542,8.249115899476191,-0.70063690352381,-3.7196922415047617,25.69171910942857
2.766418151,9.759998322809524,-0.9058682351428576,-3.9774265857904756,26.108325882761907
2.783213805,10.625656129333333,-0.9500195186190481,-3.4494766622190474,25.753818389333333
2.800032267,10.66868087361905,-0.8584006400952385,-2.183752820933333,26.206605890285715
2.81682959,10.01279408742857,-0.808755227571429,-0.9294849919809522,27.132531001238096
2.833648376,9.976512320285716,-0.8129877136666672,0.2754123211142857,27.75816916885714
2.850434366,10.064136688523812,-0.8775279750000006,1.5512616406857145,28.448652985523808
2.867265962,10.077131818047619,-0.9562116464761911,2.6804980891142858,29.019775803619048
2.884060588,10.118418581714286,-1.0393787907142862,3.5373975777333335,29.39643563457143
2.900878817,10.063120366857143,-1.1042542571904768,4.119594051780952,29.649468087428573
2.917691002,9.894988674714286,-1.0297592140952385,4.463905425352381,29.829674342666664
2.93449214,9.673845315476191,-0.814189042428572,4.555422737552381,29.96085959790476
2.951304416,9.43693494952381,-0.46704665257142913,4.574309922466666,30.10185438885714
2.968107141,9.17241516704762,-0.11133738361904813,4.6051403806257145,30.287017673904764
2.984919549,8.897331988571429,0.23066420214285663,4.620746680378095,30.486512934095238
3.001735183,8.666926044809523,0.5201776879142852,4.6209870176638095,30.639002132809527
3.018527868,8.406404973714286,0.6460042396761899,4.697411639044762,30.798977132761905
3.035339899,7.1770163280000006,0.746230573819047,4.287899982092381,30.57556094657143
3.052147457,2.7566347820476196,-0.2180874743714291,3.6508848437114287,27.141583571333328
3.068957312,-2.7053923600952374,-2.81514440832381,2.446499812901904,22.13392251942857
3.085772294,-7.033649148904761,-3.6048003662761907,3.883346341568571,18.40269808752381
3.165596862,-8.877968265523808,-3.1359902506095247,5.38856777661619,16.208341278666666
3.182392364,-6.52826043504762,-1.648170261038096,9.000001941378095,19.671522252952382
3.199202962,-0.2011001010952376,2.1758474455333325,12.117319640473333,27.56538029114286
3.216017609,2.63353213652381,2.9145672041999995,10.475039879520953,28.99108178971429
3.232827881,4.609854401285714,3.484134918628571,10.698607024759047,28.985664524
3.249645621,5.355874059857143,3.8168242493428566,10.078968854044762,28.294398129238093
3.266442284,5.541819706952381,4.042475922267142,8.985649029330476,27.293863312476187
3.283238294,5.529051052380952,4.287122193333809,7.650611343711428,26.785288450095237
3.300053611,5.425212835857143,4.555147126095713,6.551503010949524,26.52172884247619
3.316868422,5.4154111076666664,4.77939697723857,5.759267636520953,26.348496350571434
3.333672306,5.546848500190476,5.01794534118619,5.279529571378095,26.15358032057143
3.358885003,5.583722544476191,5.167402279281428,5.346744230663809,26.125508060571434
3.3756926,5.523875757333334,5.197267135424285,5.7989152299209525,26.32494501390476
3.392500707,5.4262889439999995,5.194548987614762,6.314575653704762,26.58262840009524
3.409306035,5.003297600190476,5.007494523805237,7.212101397190476,27.32132372723809
3.426104466,4.5523337168571425,4.679827321557618,8.028099162238096,28.045939958666672
3.442923344,4.140214078285714,4.49637250151,8.704695690476191,28.606714633904765
3.459737728,3.627131800666667,4.406440491224285,9.213921921809524,29.13046303247619
3.476536699,3.154787719952381,4.4582636985576185,9.449020607357143,29.507524328190478
3.493336564,2.9083231268571432,4.61292279946238,9.395375269023809,29.684881395809526
3.510152034,2.765913892809524,4.790142065414761,9.201279248738095,29.829026182476188
3.526948462,2.2840682187619046,4.916285628757619,8.61422647202381,30.229222411809523
3.543765551,-1.3824721542380953,3.639528984457619,5.368008403642857,26.128016052285716
3.560591733,-8.431451139666667,-0.2006025937328578,1.948105170880953,18.39104538752381
3.577384175,-11.165660427285715,-0.9894194092090484,2.5852864302142864,16.291629562666667
3.594191589,-12.211793423190475,-1.3436546836852385,1.3393822512000007,15.027838848904764
3.610993559,-12.53033351947619,-1.3243372838280958,0.7854969048666672,14.797922530380953
3.627809388,-12.422817344238096,-1.4106869868476197,0.6096359549619054,14.75772220361905
3.644610453,-12.146619229571428,-1.6818086874380958,1.0258616295428578,14.537139223571428
3.661423757,-11.538794540857143,-1.7662744749619055,1.2884190679714291,14.141699166761905
3.67822874,-10.002597559904762,-1.4208768549619055,1.6989909269714294,14.660711293428573
3.695035981,-6.642902942904763,1.518509109614285,2.2195382601619054,18.347364937714286
3.711831931,-2.5670141729047615,5.794880384423809,0.4991444662571435,23.49662022438095
3.728650341,-0.7596664667142857,7.1969814811857145,-2.1105769899333326,25.48708988819048
3.745461571,-0.12499968314285698,7.5977249485666665,-4.623813444219047,26.625619135809522
3.762267865,0.5510130370476192,8.207976715709524,-6.785636808028571,26.657077259619044
3.779073275,1.2858768180476194,8.983088095947618,-7.838771612599999,25.97620498866667
3.795880631,2.0118318729523814,9.346653086757144,-8.251494404790474,25.128528498666668
3.812690556,2.8714110730000004,9.383439938185713,-8.061793006361903,24.60135710295238
3.829496231,3.679940926904762,8.140746809042856,-7.1995709306714275,25.32952882295238
3.846305893,4.216319900952381,7.2197399592333324,-5.921515035814285,26.03658542247619
3.863110581,4.511949061904763,6.746007408376189,-4.863794193242857,26.29508474009524
3.879919328,4.452354498761904,6.411727524890476,-4.047501748385714,26.389176382476187
3.89673487,4.07374320652381,6.3090152058571425,-3.6461249446238084,26.72044214342857
3.913522448,3.6860175581428574,6.337382725238096,-3.415522362338094,27.093477387714284
3.93034157,3.34408022052381,6.253444932666666,-3.2605883761476173,27.452868878761905
3.947151233,2.9629346526190483,5.917942296809524,-3.1436271977999986,27.85887075871429
3.963959073,2.5939404393809524,5.467248371619047,-2.9739265355238085,28.148981912476195
3.980773945,2.291436376714286,5.251910743190476,-2.7779414680952375,28.480565289809526
3.997572835,2.035449708904762,5.200583946047619,-2.6424979537714273,28.70688892604762
4.014380136,1.467821120904762,4.892913125714285,-2.28299425315238,29.16264374380952
4.031186727,-0.015750976142856962,4.141896054904762,-2.1739896307714277,28.76157395047619
4.047998718,-3.2558569455714284,0.7228967918571423,-2.5145671423285703,25.144201785238096
4.064795644,-7.013891765047619,-4.014583962190477,-1.063205611042856,19.881339176666664
4.081611523,-8.387717950761905,-5.888020118047619,0.9295957486238107,17.547601251904762
4.09841853,-8.544622648190476,-6.764855486857143,2.7641819601476203,15.996492138095237
4.115224326,-8.424742289809522,-7.653068553523809,3.8813084478619055,15.067106126190476
4.132035778,-8.393654936714285,-8.500995760761905,4.012320388052382,14.909147003809526
4.148839165,-8.434944220857142,-8.951087962904763,3.743375341242858,15.089442247333336
4.165649295,-8.552916367761904,-9.031612816190476,3.092880231909525,14.967879668809525
4.1824526,-8.436939784357142,-7.704382703190477,2.483930116290477,13.553547362904764
4.19926699,-6.305558181738095,-4.968553667952381,3.649616951052382,15.448076672428572
4.216071488,-2.1602581565,-0.7472855136666674,5.411457226766667,20.36948465242857
4.232879999,1.9229390287380954,1.6794170312857137,6.6360998440523815,24.162179301
4.249685939,5.016660691119047,1.5975708168095235,6.574637589290477,25.658663992428572
4.26649558,6.94818333302381,1.4026352452380946,6.557573086004761,25.904276957190476
4.283301489,8.0302600415,1.273847920714285,6.542153602861906,25.591699136809524
4.300109615,8.405387470309524,1.2792748044285709,6.655876756004763,25.31140665309524
4.316916695,7.657450495071428,1.6680770149047615,7.231808515061904,26.144104684999995
4.333731727,7.0589262652619045,2.0488415390476185,7.625663223966668,26.743551080238095
4.350534461,6.859870911595237,2.264970251666666,8.16121917687143,27.112197699285712
4.367337889,6.841445923833332,2.4897779909523803,8.356834309538096,27.11338015119048
4.384150969,6.809271813452382,2.661643726523809,8.397077640014286,27.039870305952384
4.400941375,6.5489377305000005,2.6542794534761898,8.480735489428573,27.232492175952377
4.417773478,6.207472302833334,2.7858632576190474,8.553047833095238,27.40774797404762
4.434577779,5.818908442833333,2.9174960397619043,8.61486289057143,27.620586957380954
4.451378742,5.3909055405,2.902014408761904,8.839170870428571,27.930307751666664
4.468185008,5.0016328505,2.921710008619047,9.20432248009524,28.219615930714284
4.484994101,4.619086312119047,3.014131335952381,9.688608606761905,28.518871651190477
4.501791638,4.205570994214286,3.2201991023809518,10.183379008761905,28.84136526719048
4.518604798,3.8075910991666664,3.468753025571428,10.663937688,29.143683908571433
4.535404585,3.1884705242380953,3.537823069571428,10.668716322952381,29.552335210666666
4.552226342,0.6017387951904762,1.8105701209047613,8.680248243380953,26.829427119714286
4.569031141,-3.846995624809524,-1.8839297123809526,6.319467175333335,21.54416186257143
4.585839919,-7.9279426833809525,-4.08644486052381,4.6838074154619065,17.54628687542857
4.602647118,-10.643531979666665,-3.958459337619048,4.517301686985715,15.664660952904764
4.619450697,-12.093526861714285,-3.7560238214285717,4.263796354890478,14.96001236290476
4.636264013,-12.769731543095237,-3.5549824862857147,3.9742297698904774,14.89885067042857
4.653055852,-12.82155179852381,-3.41373464047619,3.5823583629857154,14.88235087357143
4.669879268,-11.887625943,-3.620581445333334,2.7815562003190486,13.860957673714287
4.686683255,-9.107236974904762,-3.649884252395238,3.5866967409857153,14.896257440380953
4.703493515,-4.011361961571429,-1.9228198019666671,6.199429582890477,19.732678912285714
4.720298509,0.7763502264285714,-0.2401487092047623,6.503786521080953,23.68602628704762
4.737107846,3.467940172428572,0.2355904973666662,6.20104435774762,25.30800595990476
4.753913542,5.116907733857143,0.47662700327142804,5.904979691414287,25.663519134666664
4.770729297,6.1490541422380955,0.5369514450809518,6.089707121747621,25.45880163942857
4.787529458,5.996908847476191,0.5029923288428565,7.036324668414287,25.957437905142857
4.80434029,5.442841326523809,0.8622039156523804,7.7967870317952395,26.646597908952383
4.821144368,5.058565345571429,1.2251164719975232,8.44143762727143,27.211962515142854
4.837952342,4.985997360333334,1.50910028586419,9.106473556414286,27.655614317047622
4.854796315,5.169661364142858,1.6322498923308568,9.485389638176192,27.755152698476188
4.930394279,5.216498534619047,1.7768396740927614,9.050917758461905,27.642907289904763
4.947202417,5.212881384142857,1.9681749889022853,8.659741148700002,27.621003352285715
4.964011346,5.218018373190477,2.184219153759428,8.37754548979524,27.615982754190473
4.980818933,5.209510190809524,2.398155891378476,8.221383114319048,27.64050560704762
4.997622777,5.161418393190477,2.622253052473714,8.21419522842381,27.704054720857147
5.014432561,5.078137511857143,2.871969243521333,8.315703293785717,27.789700870523813
5.035441321,4.9427664624761904,3.1785562356641903,8.58200350654762,27.934786416238094
5.052250382,4.8104109540952384,3.4614992346641897,8.909933037357144,28.05407807861905
5.06905985,4.663380941142857,3.689075984330857,9.235664768928572,28.163524522523815
5.085865272,4.546649433714286,3.8865872259022853,9.551477129595238,28.254030664285715
5.102674485,2.390902610619048,3.9501723596784757,8.399389622833334,26.522526066095242
5.119481462,-2.174831480666666,2.4627736445832378,5.482996479119048,21.156063507000002
5.136288103,-4.140659785904761,1.258636591821333,5.743197751500001,19.107753091285716
5.153096727,-0.7715545816190482,-0.15931794365485766,7.781842383119049,22.949570794142858
5.169903124,3.2348957974285715,-0.10851273827390522,5.263068214071429,27.607411259857145
5.186714384,5.1862866542857144,-0.061516281035809965,3.6281912021190488,29.926817414619048
5.203518849,6.117976325238095,-0.11145159922628615,2.76999505699524,29.08069185
5.220325559,6.6033893771428565,-0.19481359389295283,2.482190680804764,28.52581212952381
5.237134968,7.36345613595238,-0.17722316842857191,2.530404912233335,28.11646659666667
5.253928059,7.86376435447619,-0.09454810739047666,2.445420541280954,27.820179601904762
5.270744579,8.045400801571429,-0.025952109047619513,2.4667754436619065,27.750311528571427
5.287558727,8.231340499809525,-0.10521632056666713,3.2654861758523825,27.92805778095238
5.304367799,8.496900695190478,-0.2837826118047624,4.080363526757144,28.03693396238095
5.321174226,8.791194575904761,-0.5121223463285718,4.630897298280954,27.94894621142857
5.33798036,8.941881520904763,-0.7817814908523815,4.774521132852383,27.793809836666664
5.35478519,8.857948235666667,-1.005525508614286,4.544042840428572,27.910581462380954
5.371596315,8.598910809,-1.2683422783761908,4.164796277733335,28.236055789523807
5.388399113,8.223207905666667,-1.5292904708523813,3.7059948719714306,28.62425716761905
5.405210413,7.814141387428572,-1.7088185994047622,3.375654883876192,29.003640356190473
5.422016739,7.596710773190476,-1.9602859067857146,2.981953444066668,29.246644694285713
5.438824893,7.502298559857143,-2.237636866119048,2.5896305859238113,29.390297448571427
5.455634517,7.447695119428571,-2.524868334119048,2.25697481549524,29.49177427533333
5.472441554,7.095347972523809,-2.8329501653571434,1.690712070780954,29.585620728238094
5.489247614,4.29022564247619,-3.389780912166667,0.4892561145904779,27.574727541095235
5.506053513,-1.7399047909523802,-2.4152471955476194,-1.6759359898380937,22.041006948714283
5.52286644,-7.212196917666667,-2.5047364057380954,0.9338575257809538,16.77443441728571
5.556623146,-9.945222627523808,-2.522228404833334,2.2704452046857155,14.423024773571429
5.573283108,-10.421737875238094,-2.352937850880953,2.1071036597619064,14.48707365
5.590095945,-9.990788346380953,-2.375977452976191,1.4321597356666682,13.936233695238094
5.606901812,-9.924293631714287,-2.4253324234285722,0.592516597714287,13.228547855047617
5.62370938,-9.14292914547619,-2.281255877380953,0.0983918674285727,13.007756304571428
5.640518146,-5.357093697809522,-1.9312231901904768,2.242549731238096,16.70867469361905
5.657322936,-0.33626545080952314,0.29045479066190405,3.0381953088571443,21.180633353142856
5.674128245,2.319018658571429,0.9351513158047614,3.572233807428573,23.048319216
5.690944203,4.0611092697619045,0.7842061235190472,3.3630384206190493,23.95753245647619
5.707741712,5.032408577619048,0.6848760274714281,3.3311617260238107,24.106447909333333
5.724550732,5.676079703980953,0.5383545840904757,3.4751583280238107,23.68652391009524
5.741365552,6.027034441171429,0.5567123605666661,3.931487980261906,23.269365336285713
5.758168378,5.802283740695239,0.6486324411904756,4.673466398500001,23.504542215809526
5.774976078,5.769651730695239,0.47201493802857086,5.4421152841190485,23.69988005390476
5.79178759,5.851366860219048,0.3315016655047613,6.230642182500001,23.794958548190476
5.808591861,5.825718107361906,0.15770316117142796,7.165662674547621,24.115875577238096
5.825400465,5.7369628175523815,0.044192325409523156,8.263136341261905,24.658082217238096
5.842196009,5.585062753361906,0.0585791836476184,9.123561700166668,25.080940649142857
5.859017247,5.381448927219049,0.2494074956476184,9.578477405357145,25.217417457714284
5.875827163,5.059449150171429,0.5848468370571422,9.786652178961907,25.417721270095242
5.892631211,4.698665164504762,0.7915395014428567,9.843910875771432,25.693642427238096
5.909437598,4.413101037219048,0.9257546065857137,9.978270933728572,25.909020915714283
5.926247749,4.181864057314287,1.0849063139761899,10.222110583633334,26.069596162952376
5.943036729,3.9096993494095242,1.2880910775476184,10.53298495491905,26.309280606285718
5.959859322,3.484241258790477,1.4067134259523801,10.663644694109525,26.757651598380953
5.976667692,2.2965166459333335,1.2391351147619043,10.41619032334762,26.71165298266667
5.993478554,-1.724297432161905,0.8357006905857137,7.628330849585716,22.76413599933333
6.010282235,-6.796965144542857,-1.4490383608428576,6.177818440385716,17.973966439809526
6.027084898,-9.531667027590474,-2.1382414415095243,4.933038104200001,15.795154184285712
6.04390272,-11.395180610780951,-1.998834698033334,4.636425427057144,14.785445134761904
6.060692015,-12.369210379019048,-1.8700775845095243,4.507712931890477,14.635148476285714
6.077519704,-12.73701547395238,-1.733999868271429,4.416326046033335,14.788913802333333
6.094316518,-12.508199032809525,-1.6346338164576197,4.243365724890477,14.553229705857145
6.11113147,-10.116637978523809,-1.3783399860338097,4.9581504831285725,15.091583708714287
6.127937287,-3.2823170037619036,0.021010316489999577,4.707708818319049,20.041725178714287
6.144744061,1.3269397862380958,1.8642075712995232,6.231010896414287,24.019741403
6.161547273,3.260553336238096,2.0939943306328566,6.100715415461906,24.59347670347619
6.178363823,4.345993744809523,1.8690473551566662,5.314223317604764,24.26816127442857
6.195168318,4.965258801414286,1.7033565471090473,4.47287015074762,23.724900655190474
6.21198563,5.36478053822381,1.5543819354899995,4.106203765652382,23.39164327652381
6.228781477,5.419862904890476,1.5065353542328568,4.360141055476192,23.392318558904762
6.245590947,5.430240152985714,1.6697767150852376,4.510151595857144,23.39021259890476
6.26239954,5.66517019127143,1.5818380430376189,4.316195748661905,23.226055932238097
6.279204045,5.875853468795238,1.3357360221709518,3.9047798538523826,23.203562453666667
6.296011735,5.992481843080952,0.8443196246471426,3.308763673900001,23.35379210842857
6.312822333,6.034555592604763,0.21367721074238064,2.738151810995239,23.56972894747619
6.329627366,5.932562077366668,-0.4030405591147622,2.29794414794762,23.86727159795238
6.346435412,5.710437614509524,-0.8548360576528575,2.0266668791857154,24.215845757
6.363231097,5.487516061652381,-1.232435172129048,2.096603517957144,24.56772459842857
6.38005023,5.32279961374762,-1.5925234297004764,2.5533635838571436,24.979519105857143
6.396860238,5.198389347890476,-1.8685702223671432,3.189930478095239,25.411251048714288
6.413664957,4.999804246128572,-2.0428594488909533,3.8325564230000007,25.843600804809522
6.430451872,4.597111882795239,-2.2168406783671433,4.774291463619049,26.5212199632381
6.447284555,4.155765804938096,-2.342122909180953,4.985448972904763,26.973334301142856
6.464078115,2.3662619806523812,-2.7138929278000004,3.7590639587142864,25.77768017257143
6.480890411,-3.999063173442857,-4.065960534561905,3.2237352071904772,20.23940827685714
6.497711721,-8.45321087572857,-5.8271898792285715,0.9700523441428579,15.948165907333332
6.514512594,-10.25011298720476,-5.911662739847619,0.24237449938095318,14.935693161142856
6.531321556,-11.176176070538096,-5.576921579085715,-0.031144891714284917,14.64563026704762
6.548125857,-11.571609064999999,-5.36940479532381,-0.06105846471428493,14.686078653000001
6.564922507,-11.679806526999998,-5.27659290432381,-0.13564954504761828,14.74542356495238
6.581739108,-11.31034306047619,-5.415861594952381,-0.6490220571428564,14.417738296809524
6.598552257,-10.612067380857143,-5.597409634047619,-0.7443606174523802,13.737209965428573
6.615358707,-8.08129785104762,-5.2481099988095234,2.2198037533571435,16.703340740666665
6.632165978,-2.202078161904762,-3.071000098761906,5.568044878309525,22.69571620019048
6.648971918,0.5672000009523814,-1.9840838112380956,7.998060351547619,25.009705288285712
6.665785009,2.541670184761905,-1.8811842600000004,9.172537179404761,25.74347864161905
6.68258401,3.8998038185714288,-1.82359313952381,9.499895924809525,25.555757939714287
6.69939835,4.8458456521904765,-1.7363308042380956,9.34640630109524,25.13995053447619
6.716203548,4.800342671714286,-1.3453317027619052,9.760048094380954,25.211537091142855
6.733010769,4.380246682666667,-0.7009768824761909,9.528811454904762,25.409099137333335
6.74981916,4.09586254552381,-0.2764729883809528,8.862339025761905,25.38099825495238
6.766625303,4.123608292190476,-0.08581929528571468,8.239971904904763,25.110168219238094
6.783433928,4.419860270333333,-0.026223551476190904,7.360445709809524,24.536674149714287
6.800241024,4.650651998190476,-0.21608372514285754,7.066378962761906,24.414103210666667
6.817049957,4.751916134380952,-0.5553468237142861,6.965649463190477,24.511947947809524
6.833856759,4.707092215142858,-0.9985656679047623,6.9491403844285715,24.792553398761903
6.850665211,4.582056702190476,-1.4149604351428575,7.028071159761905,25.104681066857147
6.867471933,4.434997352238095,-1.6671768196666672,7.1941391801000005,25.3252954592381
6.884278707,4.293789793666667,-1.785213725571429,7.486093118433334,25.480184064285716
6.901088013,4.18186360152381,-1.8444855380476193,7.8698181598619055,25.61413148947619
6.917876883,4.083314371761905,-1.8729837902857145,8.297892826290477,25.734079950476193
6.934696961,3.9148849061904762,-1.9479674211428577,8.837869332290477,25.93739983957143
6.951505006,3.4611028018095236,-2.1398607489523815,9.169030150123811,26.502060851904762
6.968322705,0.8486805851428575,-2.6230257179047625,6.664473039885714,23.65993943904762
6.985112489,-5.14867033295238,-4.802515807380953,3.8018409695047626,17.67858698190476
7.001933179,-7.88707192752381,-5.6851277403809535,1.8784657546000005,15.10572095095238
7.018744846,-9.673179036285713,-5.458145805333334,1.1229894813952388,13.945344932380952
7.035543705,-10.680826686952381,-5.177455952952381,1.0729623408447626,13.61426625157143
7.052354496,-11.228428068904762,-5.010885039714286,1.3623216747971436,13.545023217619049
7.073547648,-10.750797385714284,-5.149441781285715,0.7240965168447625,12.986351055333333
7.090172327,-9.423512890476191,-5.6096165008095245,0.7107384234161911,12.339691076857145
7.106968094,-6.0082386790476185,-5.207610101761905,1.5099522811304769,14.188247834
7.123786708,-0.6766684171428569,-2.9640647113333345,2.5437053467495243,18.88801907447619
7.140585984,2.81839690852381,-2.0236580484761917,3.5619578218447625,21.64386757447619
7.157402585,4.624146847333334,-2.4357227824761916,2.852438685130477,22.936737924952382
7.174212359,5.757015341619048,-2.678076448952382,2.762587623654286,23.338194911142857
7.191002693,6.355183124571428,-2.586586611809525,2.9483862828495244,23.04586565257143
7.207825733,5.768197763619048,-2.145135051000001,3.560606354373334,23.470140623047616
7.22463395,5.5418426198095245,-1.613068070000001,3.850721722178096,23.595460017809522
7.24144117,5.6577580089047625,-1.3523109444619057,3.9043471014638103,23.424884916857142
7.258247018,5.733712037238096,-1.2712773286047627,3.7837285707495245,23.292323148857143
7.275068216,5.839048748761905,-1.320260107795239,3.4694407606542863,23.170409239809526
7.291865335,5.96222169047619,-1.3919067073666676,2.8896452638447623,23.08796803457143
7.308670511,6.0270047414761905,-1.429864738985715,2.168804855130477,23.106804319333335
7.325467948,6.004625229571429,-1.3951407986523818,1.48976803346381,23.212247345047622
7.342288127,5.897484143380953,-1.2474483907952392,0.9222816791780959,23.374139095047617
7.359093914,5.762689090809523,-1.0587077740333342,0.5145734600352388,23.527953282666665
7.375900984,5.657421384333334,-0.9182236340333342,0.3281058607161912,23.606097494095238
7.392712039,5.581172670428572,-0.8431876987000009,0.3821405961952388,23.652471573
7.409513879,5.508904048190476,-0.8044339621285723,0.6172088805285721,23.745179431714284
7.426328984,5.284983975476191,-0.8099091879857153,1.0907373224809531,24.03177629542857
7.443119886,4.428495884047619,-0.7851955581761914,1.3601696401000007,24.368860493904762
7.459941165,1.309960387857143,-1.4923505133666677,0.9837847461952388,22.352892894857142
7.476744594,-3.9472610611904764,-3.8886236723190484,0.23491993671904843,17.65626738247619
7.493552078,-7.455876691095238,-4.820397641223811,-0.5122107980428564,14.907764392476192
7.51036529,-9.286633741571428,-4.270597154366667,0.41458489481428645,13.54439269104762
7.527171861,-10.403676010571429,-3.7616569117000003,0.693503759985715,12.942430023047617
7.54397845,-10.778312728761904,-3.4290598035095248,0.6533395816476198,12.762590944619049
7.560771256,-7.672837075904762,-3.5555401671761913,0.12583770912381032,13.518342671761905
7.577581296,-1.3533044106666672,-2.329394740842858,-0.6030353166857134,18.404391206523808
7.594424638,3.877591449285714,-0.8795224260000006,-0.3306222445428564,22.999147822714285
7.611206999,6.467957903809524,-1.7078387512857152,-1.5831997706380943,25.214462759285713
7.628006967,7.478807788190476,-2.468398991190477,-2.043836216257142,26.096634111190475
7.644820096,7.445241086190477,-2.6588276116666676,-1.671707071114285,26.194733753095235
7.661636392,7.059854165190477,-2.4137440639047627,-0.7911581397809518,26.481858495476185
7.678439229,6.855675673285715,-2.1249869326666677,-0.016141741114285003,26.561941754523815
7.695250397,6.828226201857143,-2.0400083777142863,0.770289298980953,26.54921727642857
7.712057007,6.972496054190476,-2.175101169809525,1.431360871980953,26.46238849071429
7.728860544,6.9611109541904765,-2.2624753801428574,1.6226010691333341,26.473552557380952
7.74566738,6.6815134901904765,-2.2846682783809533,1.405199048038096,26.765921034999998
7.762479717,6.28211509504762,-2.241156070238096,1.0300072346095246,27.118762241190478
7.779284862,6.020443120285714,-2.1315274893809533,0.6960379026761911,27.243117823095233
7.79609305,5.955012615047619,-1.9832901247619057,0.5246617197714292,27.177503109761904
7.81290144,5.951943418857143,-1.8250486030000008,0.6163715152476196,27.19274283785714
7.829707613,5.960502191714285,-1.6592437457142868,0.8014648045809529,27.24104567642857
7.846517775,5.887434980666667,-1.4889081179571437,1.0026329330095243,27.355542187857147
7.863323551,5.676040579714286,-1.3015584238523819,1.266679732580953,27.606733336428576
7.88012943,5.327059131095238,-1.1603136604523818,1.6223108257428578,27.998398148714283
7.896937984,4.756880168238095,-1.144095883785715,2.022842832980953,28.588312999047623
7.913734013,2.0413672110952383,-1.0641025676904772,2.145314511838096,27.365229257619053
7.930553309,-4.115644636523809,-2.6034134770238104,2.5078527133142865,22.310687509047618
7.947363867,-9.475169499857142,-4.240329001738096,1.9357608954571432,17.869504756190477
7.964168289,-12.147626150333334,-3.4845475555000007,2.9930944555523817,15.756927302380952
7.980976639,-13.262938136047618,-2.671917163404763,3.4648346106952386,14.939672558571427
7.997783374,-13.295684995999999,-2.347011290833334,3.327297012085715,14.763794743666665
8.014579588,-12.885762714238096,-2.445788301119048,2.832436686538096,14.252721323190476
8.03140165,-12.554267338523811,-2.6232268781666677,2.4846660084047625,13.865928878238098
8.048207488,-12.310459636619047,-2.7074447188809536,2.0714288056571433,13.541236610476192
8.065002054,-12.062683514285714,-2.609129445833334,1.7210979306095244,13.170266698190476
8.081821054,-9.351311683809524,-2.76636694154762,2.5285070807428576,14.957320818666666
8.09862973,-2.38894599047619,-0.9607259600714293,5.197580310361905,21.062014019142858
8.115425172,4.21227436952381,-0.3597137980714293,2.370623799838096,26.665363133904766
8.13224402,7.64421354,-0.5375147429761912,1.010574835866667,28.873221572476186
8.149054495,7.950793992809524,-1.057939131833334,1.214292294819048,29.02098271961905
8.165858378,8.012841360428572,-1.1189239817857148,0.8707333305333338,28.83743811247619
8.182660005,8.056997753,-1.0073822507857149,0.6970638106761908,28.707870854380953
8.199470034,7.869840167761906,-0.8729593184476195,0.7487112240095242,28.903453722000002
8.216288191,7.852965809190476,-0.9733902157428579,0.6226989214380956,28.876709948666665
8.233088401,7.98146116204762,-0.9337080431523814,0.5604013955809528,28.733949139142858
8.249901257,8.21637821252381,-0.6538277578666672,0.6709250281523813,28.5811005667619
8.266707148,8.279778299666667,-0.2670898662476197,1.0917720013428576,28.672124783904763
8.283514369,8.142089435380953,0.16034766622857077,1.6339945692952385,28.91127257009524
8.300320297,7.894199508238096,0.6171181998476184,2.1342080220095245,29.212007239619044
8.317129867,7.616720427285715,1.048101266419047,2.531594572914286,29.51650148104762
8.333935838,7.336459841571429,1.3713185562285706,2.826659203866667,29.80487464057143
8.350744909,7.114114625619049,1.6414858388476181,3.0837094058571433,30.04247195880952
8.367547217,6.945196197666668,1.8944785142285707,3.2789555516904767,30.219641345476195
8.384363156,6.666286741476191,2.188819760514285,3.4795215809666677,30.52474709280952
8.401166705,6.286683718619047,2.5083862601333324,3.745530156714286,30.941492152000002
8.417977029,5.818097659666667,2.7253433297047613,3.7913781970714293,31.40517010952381
8.434784768,3.106176194904762,3.04007364753238,2.6619908185000005,29.661326841904764
8.451591734,-3.597070283190475,1.31585882105619,-0.2818638766428566,23.435988287619047
8.468396616,-9.812121027952381,0.7911752374847613,2.310955337214286,17.56989666904762
8.485206796,-12.925376483238097,1.0613903138528564,3.3482033129285718,15.128223394761903
8.501998992,-13.02611582609524,1.6794987894909517,2.595383456785715,14.786690486190476
8.518819834,-12.926585015476189,1.8349320646766663,2.285995676404762,14.72196698147619
8.535616059,-12.57688472352381,1.8114833647052373,1.4040290625952387,14.861989379571432
8.55243631,-11.731001218047618,1.6842724028004756,0.3850820060714292,14.685308696714287
8.56922868,-11.10416539507619,2.0075339930385705,0.2332602565238101,14.251206499238098
8.644877374,-10.700876258838095,1.2686090358099993,0.7397296426190482,14.662006857333335
8.661683944,-10.480065096361905,1.0360583466671422,0.23875592980952434,14.304978926904761
8.678504095,-10.397612050171428,0.921162906381428,-0.17766861152380894,14.049772110238095
8.695299972,-10.504649276361905,0.8075926476671421,-0.00269943804761845,14.214551113571428
8.712108435,-10.313747383980951,0.6134660700528565,0.17332656580952438,14.12315374642857
8.728914404,-10.13867185302857,0.4344085400480946,0.12339615223809582,13.915558212142859
8.745729041,-10.133438769695237,0.26179129191952316,0.02211566738095297,13.874840855952382
8.762532416,-10.324834665409524,0.0652130276814279,-0.1594567074476185,14.026169633571428
8.779336189,-10.625434989695238,-0.11365512984238163,-0.18950759820952323,14.307405495476193
8.796145088,-10.827798594457143,-0.24212450616142928,-0.11428667273333276,14.503555960238094
8.812946836,-10.955218111599999,-0.20256400654238163,0.06548245726666725,14.68975024404762
8.829746662,-11.048522155409524,-0.08991878920904832,0.5233970253857149,14.944972320238094
8.846570943,-11.18148883302857,0.1269508006299993,1.2450437657190483,15.170533528809523
8.863372496,-11.347117992552379,0.40448051710618976,2.053727887719048,15.286703027380952
8.88018692,-11.757259074457144,0.8392165362014278,3.1540249981476194,15.857736685476189
8.896994558,-11.826567854885713,0.9926511569285706,3.434730736795239,15.858399126904763
8.913795939,-11.820935817647618,0.9149046989095231,3.258205734366667,15.971029746428572
8.930604777,-11.890015489219046,0.7635894916285708,2.793035055557143,16.361793456857143
8.94742383,-12.265069485171429,0.5822318184095232,2.837510611271429,16.494250196857145
8.964223441,-12.905994665409523,0.46818225174285655,3.135271665700001,16.473584018285713
8.981027976,-13.383954752190474,0.12279514488571364,2.9309144503428577,16.760173304809523
8.997835309,-13.632919992857145,0.7391929569333326,2.0698930393904766,16.15192558433333
9.01252772,-13.672984259571427,0.744639544219047,2.0713375210571434,16.189172727142857
9.029355131,-13.485853694666664,0.5943274837904756,1.9348017573428575,16.00242007952381
9.046159646,-13.032417160999998,0.44214901464761847,1.2702579074047624,15.35166433704762
9.062968866,-12.822306769142855,0.3551053432619042,0.6780429936904766,14.935735756809525
9.079775552,-12.557056358904761,0.27787090193809466,0.3197095423095243,14.641909664666665
9.096583343,-12.031364281761904,0.4665363771142851,0.1154890486428576,14.160451272047618
9.113390239,-9.422979649857142,0.8372783234952375,0.7199954336142861,15.20319173395238
9.130199626,-2.574488891761905,1.305898896304761,2.210039550661905,20.486455165380953
9.147005606,3.9438543534761914,2.980023284766666,0.9106946706142862,25.544680243
9.163812837,7.018710884904762,2.614424311004761,0.1972113369952385,26.748342152047616
9.180623638,8.045736107857143,1.8503872922428564,-0.26442539076190436,26.38802038347619
9.197417672,7.835043565952382,1.3011565804333325,-0.3456076208571424,26.56662903347619
9.214237165,7.738457293095238,1.136181408457142,-0.3328854692380948,26.631717352047616
9.231043241,7.813250427380953,0.9506274717428563,-0.6529282610952375,26.356004651571425
9.247855183,7.667259011190477,0.8948446540761895,-0.20085685836190414,26.612344073000003
9.264647358,7.639500458285714,0.9157241838857134,0.7818461235428578,26.695572049190474
9.281468235,7.664579413428571,0.8990757210285706,1.9662131673523815,26.525351481095235
9.298268697,7.636212007238096,0.8509701632666659,2.8919251850666674,26.369666101095238
9.315084265,7.443034012000001,0.8188691905999991,3.3796764532571433,26.483441367761905
9.331888636,7.104627403428573,0.8191699499333325,3.618619121828572,26.796146971571428
9.348706483,6.734351951190477,0.8476608111714277,3.7735303276857155,27.156082836333336
9.365508079,6.440107321142857,0.8907477997523802,3.9428192864952387,27.445354046333335
9.382318071,6.24755103052381,0.9464025284619039,4.140758239638096,27.64357440204762
9.399123461,6.1190460501904775,1.0178965060428562,4.33356643062381,27.785795463571432
9.415926552,5.968094346904762,1.12828469985238,4.548799495433333,27.95955428523809
9.432736428,5.7080027695238105,1.2759685956095228,4.876731421766668,28.245384294523806
9.449544269,5.278019675714286,1.2435186235142848,5.177425382195239,28.66922825761905
9.466352717,2.8609233561904768,1.065944908561904,4.745993816004763,27.472062394285715
9.483158228,-3.7530996685714277,0.7800428625142848,3.245437630766668,21.961868347142858
9.499965952,-9.971544493333331,-0.8533834006761913,4.284582135193334,16.570265782857142
9.516773621,-12.649496805714286,-0.6953436434809533,4.545776597098096,14.85799471190476
9.53358254,-13.342772075714285,-0.16100354706666756,4.4492780991885725,14.714875757333331
9.550389024,-12.856869289380953,0.18209739382857057,4.003689595617144,14.109655719571427
9.567196555,-12.447510788047618,0.1489090351714277,3.4447489125219057,13.652637304095238
9.584003883,-11.945658797809523,-0.05941622530333419,2.812180144426667,13.13331994790476
9.600814735,-11.312614600419048,-0.13508765686047705,2.3240473440933336,12.401475871190476
9.617622567,-8.96393242375238,0.05945990547285626,3.6659106583790484,14.367872840238094
9.634426908,-2.504204911752381,0.28061805232999915,5.472701146474286,20.139187525476192
9.651238279,0.10345965062857199,1.009935831091904,5.836782552093333,21.757222344523807
9.668042241,1.9711337968190483,0.6192037016157134,6.507922462331429,22.544354144523812
9.684838317,3.5077300044380957,0.22162139761571353,6.41887189688381,22.57377422738095
9.701647242,4.704241681961905,0.06795676328238014,5.931017824883809,22.329624310238096
9.71849029,5.515700042580953,0.004514147034761099,5.747470600550476,21.765498243619046
9.735273245,5.815025350009524,0.010166130510951582,5.871171071693333,21.548628771714284
9.752075826,5.357054867152382,0.06946202321571349,6.166334476074287,22.08307636647619
9.768889853,5.369539553819048,-0.04340215321285794,6.016216618964762,22.044593686952382
9.785680631,5.575712678723811,-0.29298840616523886,5.63713158910762,21.849382778809527
9.802502098,5.80122531972381,-0.5867448116414294,5.166871196060001,21.66755996404762
9.819314338,5.8859413897238095,-0.7308475666890484,4.612985440964762,21.632963282619045
9.836118584,5.941166489723811,-0.960464901212858,4.1019604776790475,21.674034960714284
9.852928526,5.879633560676191,-1.3066837313080961,3.716244186966667,21.88041320880952
9.869734099,5.7056279159142855,-1.6735217380747627,3.5826179473000006,22.150901741190477
9.886542424,5.562124817723809,-2.0011041073461913,3.7301413164428574,22.374114537190476
9.903352646,5.4688341709142865,-2.262446412860477,4.082041876966667,22.581451688285714
9.920158294,5.356948759485714,-2.4856692376557152,4.555215290919048,22.777421332333333
9.936964233,5.197089056819048,-2.6545739175142864,5.0374492012523815,22.927848466619047
9.953773809,4.7039599622857144,-2.816926879671429,5.315456078442858,23.44858770238095
9.970581564,2.240103946095238,-3.0938229136238107,3.6560721229666675,21.40247758
9.98738754,-4.3657385058095235,-3.2981298737190485,1.5203777781571435,15.576834629047617
10.00419545,-7.003733544380951,-3.9746711114809536,0.9056935538238103,13.891605867142857
10.02100413,-8.665577888666666,-3.569454610528572,0.05854738322381022,12.886044817142855
10.03781041,-9.821857134761904,-3.2079488408619055,-0.04724601342380883,12.502046726666666
10.05460566,-10.601010050333333,-3.115429954957144,0.1804479076238102,12.379557732190476
10.07142637,-11.08451520852381,-3.130932044480953,0.04732482771904826,12.678005112857145
10.08823262,-11.153162207190476,-3.230243274190477,-0.44593455680476124,12.727506011238095
10.10504309,-10.508416244190474,-3.4168875104285723,-1.1532828354238087,12.089507695380952
10.12184962,-10.232362270619047,-3.516278459952382,-1.3113200494571424,11.884818520190477
10.13864462,-8.597035703619047,-3.645698059190477,-0.32627051769523757,12.972073659761904
10.15546546,-2.782507194619047,-2.2437219167619054,1.621114089733334,18.27154728738095
10.17227177,0.7116254830000005,-0.7817491012380964,3.5723459100666677,21.234842362619048
10.18907938,2.81392013252381,-1.1918308624285725,5.116660703352382,22.488197481666663
10.20587564,4.323586166809524,-1.690064884857144,6.026679170114286,22.960472151666664
10.22269776,5.209472472666668,-1.8315868382380962,6.190406408190476,22.71361445928571
10.23949021,5.586087996904762,-1.775442782333334,5.954860875142858,22.413346753571425
10.25631155,5.700484478142858,-1.6466714204761916,5.510074564952381,22.23371306380952
10.27311121,5.625812823476191,-1.4413367464380962,5.0072334556190485,22.220359507142852
10.28992681,5.580476009238096,-1.3718386616285723,4.500536118809524,22.263919466666668
10.30672103,5.60232859352381,-1.4810871635333342,4.109259214285714,22.264056136190476
10.32353882,5.624033585428572,-1.6828561748666677,3.755987843428572,22.29697886952381
10.34035274,5.622138453047619,-1.8850150119619058,3.5049271645714293,22.359735303809522
10.35715438,5.510653925428572,-2.037936189057144,3.4293085909952388,22.512026151904763
10.37396604,5.2263519859047625,-2.1022271553904774,3.7350871852142857,22.850319844285714
10.39076843,4.746109392952381,-2.0776233344380963,4.535149739500001,23.52526699238095
10.40757997,4.132581822428572,-2.068952902200001,5.689349248880954,24.474678498761904
10.42438961,3.5068866390476203,-1.9998005981047626,6.679252744166668,25.29329804757143
10.44119381,3.1130248912380956,-1.8946599007333345,7.169708871166667,25.65077981490476
10.45800154,2.8786977110952385,-1.80811944014762,7.446914426395239,25.78253244980952
10.47481096,2.6175664699047623,-1.7087215310523818,7.523521801300001,25.976060249761904
10.49162199,0.8796646008571436,-1.5159915583857153,6.602004951252383,24.950087864523805
10.57566448,-4.9479049957142855,-2.8374278725761917,4.765381305061906,19.59677746485714
10.59246505,-8.277796245809522,-4.341341598576191,3.013797728776191,16.406568903714284
10.60927143,-10.106461252761905,-3.8897972002904773,1.7957604355857153,14.774370808714284
10.62607826,-10.196819896095239,-3.5152209947666675,2.0236285613000007,14.655506788238096
10.64288521,-5.966433320999999,-2.905569258909525,2.2511474831285723,18.589601747761908
10.72901255,-5.592428502857142,-2.9121440940047627,2.51843301174762,18.562474415761905
10.74583261,-6.453864461238094,-2.2873478054333343,3.4702915890333346,19.671732397904762
10.76262794,-6.306058747571427,-2.231976781361906,3.940000667509525,19.566517187000002
10.77944695,-6.183798108857142,-2.1559033249666677,4.318624732080953,19.379113941428574
10.7962672,-6.007488273619047,-2.0524496661095246,4.403690352366668,19.160404918238093
10.81306056,-5.847732112809522,-1.936323469395239,4.2589506791285725,19.029644400142857
10.82987257,-5.803646746619046,-1.8476056681571436,3.906678951985715,19.089020134428573
10.84667571,-5.919256324238094,-1.7475550598238105,3.39460661037143,19.32001627395238
10.86348865,-5.887775262333332,-1.7371472486809534,2.8141427922761912,19.294463942523812
10.8802899,-5.515291645666666,-1.8535601948238105,2.2713186147047626,18.755273572047617
10.89710315,-5.04659922947619,-1.947733331014287,1.8408978299428578,18.144284369666668
10.91390178,-4.675201211857142,-2.0801436018238104,1.661477177085715,17.762346586809524
10.9307188,-4.596418267571427,-2.225359158576192,1.8367772756571437,17.780889748238096
10.94752758,-4.702869665190475,-2.3513998443047632,2.1110919318095243,17.958633840619047
10.96432917,-4.8640707789999995,-2.473696745304763,2.2343817837142863,18.13790246395238
10.98114025,-4.942821707571428,-2.5635867031142867,2.2196375700476194,18.236316279190476
10.99794829,-5.000740528619047,-2.6389390312571437,2.223472589666667,18.309624219809525
11.01474283,-4.996861844333332,-2.694979698590477,2.1918028480952385,18.330693285857144
11.02946528,-5.0131078906666655,-2.7354341657333343,1.8376175223809532,18.534077546571428
11.04626972,-6.112189111857142,-2.457932877828572,0.5650950952380958,18.006321779428568
11.06307934,-10.849373590999999,-2.721487848257144,0.08852669152381017,13.966490554809525
11.07988604,-11.10550006295238,-2.631304204209525,0.12133559709523874,13.872856306809524
11.09669348,-8.862462611999998,-3.4675375251142864,0.48940420138095303,13.885803978714286
11.11350239,-4.527776378047618,-2.91843026874762,2.340230646238096,17.931776318190476
11.13031364,-2.5774881048571423,-1.420312745095239,4.2904389809523815,20.491443147571427
11.14711623,-1.002525057238095,-1.708671933000001,5.624302824095238,21.931987336
11.16392414,0.44034848861904796,-2.0522364889523823,6.487062913666668,22.736980273619046
11.18072177,1.3882816858571432,-1.836383950209525,7.207008094619049,22.48859379742857
11.1975393,2.2929816471904765,-1.5950675153285725,7.826993084523811,21.698460556666667
11.21433751,2.9989393322380957,-1.3975678115368582,7.946126488809525,21.050111671619046
11.23115647,3.3874461421904765,-1.180227170451144,7.353790356428574,20.909756949238094
11.24795662,3.7003715945714295,-0.9816902280654296,6.324087443095239,20.645426401142856
11.26477144,4.051861933333334,-0.8294290220035249,5.2932666875238095,20.27217130733333
11.28157767,4.3901216303809525,-0.721247264398763,4.47249892157143,19.966596001142857
11.29838535,4.658304066857143,-0.6050553493082867,3.8692150167142865,19.733558448761904
11.31519479,4.7887636706666665,-0.4412658925035249,3.624543303000001,19.60941019209524
11.33199962,4.755071220190477,-0.20504832559876296,3.614136786142858,19.62315801352381
11.34881032,4.606216919238095,0.00662933634409417,3.6864623110000005,19.73113380685714
11.36561939,4.3812475550476195,0.0025759480107608182,4.042310907190477,19.943575926238093
11.38242624,3.9971353559523815,-0.09496462356066775,4.927052599428572,20.297829812904762
11.39923194,3.5257157038095235,-0.17277234522733442,6.024517070380954,20.679410120999997
11.416039,3.064178524380953,-0.17832419432257252,6.639154626904762,21.099629011809526
11.43285287,2.5614387768095246,-0.124250803798763,6.615024021380952,21.46822755561905
11.4496429,1.0524726939523816,0.12838625324885605,5.502151136933334,20.423522188
11.46646267,-3.363113005666666,-0.5120874389178106,3.390396098150953,16.37897110395238
11.48326834,-5.359775872333333,-2.0076738144320965,1.350539496812858,13.852775736666667
11.50007899,-7.0253528981904765,-1.5756022347030485,0.08028752440809585,12.462544725857143
11.51688494,-8.493203265238096,-0.9927029081506675,-0.5532780319252375,11.546089849000001
11.53369222,-9.264705987095239,-0.9109971818220961,-0.9105811971633329,11.426744415619046
11.55050223,-9.470015400857143,-0.8670402123697152,-0.8600518080204758,11.451929177428571
11.56730941,-6.0511749016190475,-1.7322766052566676,-1.7033691121157137,14.895131629619048
11.58411724,-2.6069060958571426,-1.6184376956280964,0.0030959730747624242,17.92373707533333
11.60092231,0.48238068557142877,-0.7645507746328581,1.2238068183128576,20.43039017152381
11.6177309,3.0617189863333336,-1.8757443122185724,1.4816263800271434,22.468535504857144
11.63453979,4.397333463095238,-2.5658676742042865,1.6374446380271435,23.19916800390476
11.65134783,5.135999815857143,-2.8269391688661916,1.7831217731223816,23.13601226952381
11.73748419,5.299897670857143,-2.949704860385239,1.800344018646191,22.99771559428571
11.75429216,5.415471689904762,-3.189719913004287,1.5348188819795243,23.02887361190476
11.77108769,5.373075961809524,-3.3865158505661914,1.0730421713128577,23.255332185238096
11.78790843,5.263783704190477,-3.304497123232858,0.48767419655095295,23.424669490000003
11.80471138,5.383507659904762,-3.162704025470953,-0.12625165778238032,23.15352157809524
11.82152471,5.70328296847619,-3.1270099939471443,-0.5310081357823803,22.680809879047622
11.83832642,5.970027218952381,-3.194177832375715,-0.4109314567347612,22.544162657619047
11.8551318,5.958701609904763,-3.319925342756668,0.10801672369381021,22.84292503047619
11.87195391,5.731659729904761,-3.486093294518572,0.6188848757604768,23.27400798857143
11.88874055,5.46225431952381,-3.6528396980185724,0.711307823780953,23.577001125
11.9055679,5.240078085714286,-3.801525967932858,0.6099534490238102,23.826432414190474
11.92236351,5.120679650619048,-3.9591262192809533,0.4999541272857149,23.98369854642857
11.93917563,5.059323878142857,-4.121902490785716,0.3665298395238102,24.09681815709524
11.9559788,4.981119450666666,-4.30211493457143,0.22060649747619113,24.236418590476188
11.97279427,4.645287127333334,-4.522188282571429,-0.18526080661904695,24.549272053714287
11.98958576,0.8819058050000005,-3.7662637400000007,0.5770172050000009,21.403464407523806
12.00640923,-2.771944409904761,-3.9562780909523823,-0.9298727058095231,18.35720642557143
12.02321871,-5.979381970523809,-4.873780199238096,-1.9019383133333325,15.748193734428572
12.03785523,-8.427918207571427,-3.9075686533333345,-1.6864326225285704,13.429275518190476
12.05472856,-9.217748097380953,-3.410847249619049,-1.097256648909523,12.651632319
12.07153782,-6.428189505190476,-3.357874342476191,-0.2634112830523802,15.371326318619047
12.08834763,-3.2360544435238086,-2.452291358380953,1.899280185042858,18.472136253380953
12.10515178,-1.1416730654285712,-2.527345867666668,3.4569491432333344,19.83782783861905
12.12195964,1.073191392666667,-3.310980280666667,4.9700004032333345,21.048644363857143
12.13876848,2.8438389412380953,-3.79812006204762,5.397785391090477,21.376559782904764
12.15556516,4.03086278552381,-3.941207386666668,5.338314408328573,21.396154081000002
12.17238238,4.750487077952381,-3.849045759619049,5.0221782070904775,21.15386860161905
12.18919154,5.235441684685238,-3.5715728719047624,4.477886358852381,20.56660420709524
12.20599775,5.517739296066191,-3.1646033246190486,3.8490092185285723,20.010967140619048
12.22280281,5.476160458447143,-2.705064047380953,3.450989200719049,19.881293427761904
12.23959914,5.444012278923334,-2.3472274035238105,3.4523714040047624,19.89643035585714
12.25641302,5.638441086018571,-2.1876334254285723,3.4021935573380966,19.69461025490476
12.27322762,5.778010187066191,-2.1564503642857153,3.1965460433380963,19.65475966680952
12.29003108,5.775389081351905,-2.1802082193809533,2.9205484727666673,19.80924316966667
12.30684649,5.636600312970953,-2.1682496657142867,2.620788108480953,20.087400612047617
12.32364322,5.450613793970952,-2.0922940022857155,2.481219098433334,20.304296783
12.34046222,5.3386452539233336,-2.050026271000001,2.6209275606714293,20.34363154157143
12.35726484,5.287512302447142,-2.053942977380953,2.9933680577666673,20.33708823352381
12.37407312,5.2146900041614295,-2.083241487238096,3.484330086242858,20.411558260380954
12.39088423,4.846732752637619,-2.0342528951904773,3.823269117200001,20.831773805190476
12.40769225,4.015687056732857,-1.9324130349047628,3.8674731252476198,21.12072013390476
12.42449931,0.24637842149476213,-1.8177406465714294,3.4093852492952386,18.640570217238093
12.44130611,-3.190691517076666,-2.7367255590476196,1.4370785324666673,15.745462257238094
12.45811333,-5.339679968505239,-2.616956712428572,0.237782234185715,14.287558962952382
12.47492622,-7.3615084832671425,-1.7859967677619055,-0.8065871397714278,12.710548932476192
12.49171876,-8.845816181124285,-1.3326318959047627,-0.8963430722476184,12.007272535333334
12.50853605,-9.859841506219524,-1.1990777665238102,-0.7853516510571422,11.81139719104762
12.5253445,-10.467180911076666,-1.2286847503333338,-0.8390982831999994,11.946440196619047
12.54215266,-10.596610137904761,-1.400432463190477,-0.9194725694857137,12.060367221238096
12.55895863,-8.909402348333332,-2.29132635404762,-2.071176994399999,13.63475966247619
12.57576671,-4.193491754999999,-1.4933022670952387,-1.1910930475428567,17.015586030571427
12.59257506,1.3678204192857149,-1.4390365068571438,0.09979161755238154,21.21757491057143
12.60937352,4.740635187904762,-3.1085188385714297,-1.212403831114285,24.388204948666665
12.62618916,6.389830359238095,-4.111227500761906,-1.4384871324952375,25.62209147771429
12.64299878,7.197520570904763,-4.496166501666668,-1.10639952487619,25.597675983904765
12.72913508,7.3490024265714275,-4.408912564952382,-0.3534073036380946,25.292554658666663
12.7459315,7.264626409428572,-4.344303055109525,0.08354417466666732,25.25772921961905
12.76274126,6.885773656095237,-4.301652452009525,0.0716360067619054,25.62822029628571
12.77956253,6.690846349619048,-4.303685288295239,0.31119252366666733,25.899415476761906
12.79636791,6.659040857,-4.253991374628573,0.738175948428572,26.21000799819048
12.81316934,6.629193439380952,-4.186286555104763,1.0211200600476196,26.414841411999998
12.82997885,6.208706989380953,-4.155811710676192,1.6195380231904768,27.10994841533333
12.84679697,5.960275466047619,-4.115307550295239,1.5147767178571436,27.325546072
12.8635948,6.0289443312857145,-4.018512048152381,1.2256767861619053,27.302487212476187
12.88040722,6.150229815285715,-3.941133366438096,0.8878712482047626,27.308979868190477
12.89721503,6.27236191204762,-3.8701507058952394,0.36248325168571494,27.488939399142858
12.91400903,6.376160301476191,-3.790974985271429,-0.3249347434571422,27.848004382952382
12.93082784,6.395797363904762,-3.704995795380382,-0.5591152279333326,27.919213979142857
12.94763617,6.308678261428572,-3.622822139932763,-0.573584783409523,27.99395707580952
12.96444288,5.9818577516666664,-3.5458896301756204,-0.5956247645047611,28.25849939904762
12.97916476,4.159268331619048,-2.84137149355181,0.3781587285428579,26.81173247904762
12.99595783,-0.2243324936190482,-3.8692770005327626,-0.7746964065047612,23.077155245238096
13.01276549,-5.441723551523809,-4.072764387185144,-2.2030865461238087,18.514534131333335
13.02957517,-8.749199776619047,-2.400975970923239,-0.5615086665047612,15.300465723428571
13.04638131,-10.320205915571428,-1.3393685759232388,0.4092935952095246,14.051253012952383
13.06318997,-10.580597423380953,-1.0506113877803815,0.9174320701619055,13.862572494999998
13.07999639,-8.798899196666666,-1.3335066036851435,1.3784757003523818,14.925558199761905
13.09680427,-3.890147118571429,-1.71317398157562,2.059111493333334,18.538875677857142
13.11361364,2.138677007142857,-1.811542507056572,1.148240725476191,22.899240024047618
13.13041716,4.903190976666666,-2.894488273866096,-0.12598580390476127,24.78217848261905
13.14722676,6.043934504857143,-3.4537421141518103,-1.2099266279523802,24.95737460690476
13.16402938,6.727837835857143,-3.6324490610089533,-2.1358957063809516,24.46648941495238
13.18084699,7.496927421095238,-3.447427569723238,-3.09696106387619,23.307393460666667
13.19766498,7.956886405714287,-3.2237650116756202,-3.2008194155699994,22.85816536766667
13.21445795,8.081937132,-3.06520825515181,-2.922730363436666,22.684017029238095
13.23125552,8.024430071190476,-2.9369885711994295,-2.34516725924619,22.646508401619048
13.24807345,7.645362400619049,-2.8153055015518103,-1.4598655559604758,22.77936788590476
13.26488284,7.256189324285716,-2.7574425002375245,-0.21333002786523747,22.846093176857142
13.28169174,7.221936748809524,-2.7172429004333343,0.5160918602300006,22.93542408209524
13.29849855,7.260658242095238,-2.6722301581523817,0.8995505540871436,22.887124501809524
13.31530693,7.204936777666667,-2.6127820777476196,1.0613335851300008,22.90940669609524
13.33211031,7.041824455333334,-2.529405545228572,1.1183614586538102,23.054205098952384
13.34892396,6.885242894380953,-2.405901681438096,1.2669199333871437,23.20082018704762
13.36572846,6.7448271580000005,-2.2851499581666674,1.4013921559585722,23.35775057
13.38253606,6.565549828809524,-2.190718213714286,1.3413929284347625,23.514525446
13.39934213,6.2334689425238095,-2.0723253261666676,1.112343404768096,23.671062740285713
13.4161504,5.505528292476191,-1.7846041165619053,0.6538489231966673,23.86276052347619
13.43295851,3.5307919881904763,-1.4552809752285722,-0.31736405413666596,22.995604478714284
13.44976535,-1.2794265503809517,-1.0829016069761912,-1.3273594239461899,19.349303225380954
13.46657304,-6.974340369904762,-0.9566653726057149,-0.451638832089047,14.66984643347619
13.4833802,-9.626332622761904,0.23389724736095166,0.3976889423395244,12.574249965857142
13.50019164,-10.77539922990476,0.8699205786895231,0.8318026832728576,12.048451826809522
13.51699591,-11.34967224852381,1.1266815988466659,1.2197012873204767,12.137808614666667
13.53380518,-11.487201508142856,1.0606288114847613,1.3700146845776195,12.302704999666664
13.55061418,-11.392703237095239,0.9118880969895231,1.5894140629857145,12.247881125238095
13.56741968,-11.121100470238096,0.676274682799047,1.8609856480904767,12.152551884666666
13.58422608,-10.064789816761904,0.43236097551333263,2.152099682995239,12.420985195142856
13.60103587,-4.553262530095238,-0.06942928120095308,1.6254311571380957,16.418515353714287
13.61783394,1.6490631989523816,-0.3620737961390483,0.9192957024714291,21.001594723238096
13.63464328,4.299069175190477,-1.1642061669771437,-1.0697165161952373,23.20021233847619
13.65145158,5.381266228238095,-2.0895826702771436,-1.7775747946238087,23.985070334952383
13.6682638,5.491067157142858,-2.3908299803438102,-1.6916287910476182,23.953766585904763
13.68506465,5.404117808571429,-2.219112120915239,-1.6933931907142852,24.07316898066667
13.70188046,5.653098240047619,-2.299257508315239,-1.924122708209523,23.874975944190474
13.71868558,5.816557745190478,-2.430130450448572,-2.0637397425904753,23.695971272571427
13.73549737,5.9450155865714285,-2.5235579041771437,-1.939630235971428,23.61374182590476
13.75230451,6.14861665152381,-2.610375639891429,-1.7253060341142852,23.532407560190478
13.76911133,6.344017207285715,-2.726334485210477,-1.4120875994952373,23.397474303523808
13.78591864,6.399278410619049,-2.8684318306390484,-1.0794188635904753,23.298803607809525
13.80272958,6.351678345857143,-3.021340538986667,-0.7985537846952374,23.29694768304762
13.81953418,6.343186239666667,-3.1144305623095248,-0.4137539182190468,23.328008280666666
13.83634172,6.353188375857144,-3.1539690422952393,0.09511206830476271,23.483972640190476
13.85315148,6.19695436109524,-3.161879174705239,0.709627089038096,23.909656679238093
13.86995682,5.648111431571429,-3.1415217447242867,1.2432501715142865,24.63882221666667
13.88676475,5.149510653571429,-3.012438827981429,1.0214345655476198,25.107483267380953
13.90357234,4.746494790285715,-2.8449055637242866,0.5989504628333341,25.49357656766666
13.92038198,4.298963816666667,-2.5933097373909533,0.07655773573809596,25.808682957619048
13.93718774,3.1808077019047625,-2.3106575295814293,-0.6756325814999993,25.621322548095243
13.95399684,-2.0928432376190464,-1.7873940183909534,-0.7130426591190469,21.383842844285716
13.97080324,-8.025327363714284,-1.455273088914763,-0.7225514959761897,16.431108552857143
13.98761201,-10.665982063714285,-0.6366903498671437,0.6882958499761911,14.09474961595238
14.00442078,-11.754845936,0.29621791838999917,1.0922720063571436,13.301726585619049
14.02122605,-11.754746799285712,0.5874496584757134,0.9179097840238102,13.23686667947619
14.03802195,-11.278927801999998,0.328465677447142,1.0831897287857148,12.724350670380952
14.05484733,-10.44982310585714,0.22524094013285628,1.4780191155476197,12.834854749714287
14.07163787,-5.682850155285713,-0.06988683768619135,1.592092880261905,16.803608501333333
14.08849587,0.546973818095239,-0.078171678952858,2.695077762976191,22.219217422285716
14.1052632,3.4089013955238103,-0.8118828591195246,1.126745544976191,24.40699899895238
14.12207382,4.602127665000001,-1.3482846872623817,-0.1720577164523804,25.31627136561905
14.13886081,5.274455024380953,-1.5858932108338102,-0.5060566917857138,25.209460304666663
14.15568744,5.543537048238097,-1.4184253612576196,-0.17075084206190427,25.048924818000003
14.17248302,5.652044159,-1.1897131090195248,0.15895623531904818,25.165221387523804
14.18930334,5.698973881714286,-1.0807490206195245,0.30143163579523863,25.24061152942857
14.20611306,5.728103500285716,-1.0050076359190485,0.01512843346190533,25.043640833714285
14.22291712,5.938637187428572,-1.0067601402000008,-0.33318503453809456,24.694886992285713
14.23972825,6.238560130285715,-1.2383009506761913,0.10736167957142922,24.511627117047617
14.25653408,6.548228353285715,-1.561398077485715,0.5649514648571435,24.250342990857142
14.27334309,6.6175097042380955,-1.9257108170571435,0.7995642192904768,24.17437685228571
14.29014778,6.480296451380954,-2.2259957817714295,0.9646272315285722,24.27403499133333
14.30695836,6.314166476142858,-2.389174248390477,1.1530914927666676,24.377289977047617
14.32376597,6.175317444619047,-2.4651957891380962,1.3683444655533339,24.461945336095237
14.3405737,6.04217406509524,-2.507228682338096,1.5844543771723816,24.564084123
14.35737966,5.857516241666668,-2.5162424146095246,1.8671344458390482,24.746895308571425
14.37418926,5.560768307476191,-2.4737941153619056,2.1757034003152387,25.059470575190478
14.39099684,5.097638037809524,-2.337440287714286,2.0521013279342863,25.526108926190474
14.40780268,3.994436080666667,-2.156901292761906,1.6641133509819053,25.67029305
14.42461117,-0.9349263074285711,-1.7591488488095244,1.440923111458096,21.888717406666665
14.44142014,-7.2318942207619035,-1.6542154507190483,0.03832585987714348,16.483132577142857
14.45822575,-10.129653386,-0.7992358108142865,1.277250096448572,14.194304113809524
14.54436739,-10.634908313285713,-0.04142290210000085,2.0416265097819055,13.152855938428573
14.56117357,-7.470947311714285,0.31260238800952295,4.373910937496191,16.532447000809526
14.57798127,-0.05855074414285712,-0.3359613204714294,2.8469388934485718,23.216695814619047
14.59477721,3.149316878428572,-0.35125900585238173,0.884221973448572,25.60007948985714
14.61159449,4.466672034285715,-1.1368178313761912,-0.422126645599047,26.181677851761904
14.62841185,4.449625605714287,-1.7270468883285723,-0.38417980826571363,26.37228839652381
14.6452182,4.641669590952382,-1.652516687042858,-0.6481718226609517,26.13299396176191
14.6620196,4.955483754285716,-1.422973722090477,-1.0139616164323804,25.725228858761906
14.67882229,4.980092502619049,-1.179202061185715,-0.9424973957657137,25.722453059714283
14.69563788,4.797642707857143,-0.7556869230428579,-0.6898435869609517,25.917481994952386
14.71244315,4.983373596428572,-0.6087100377000008,-0.36326089972285647,25.757571781619042
14.7292486,5.138480913095239,-0.6814716528428579,-0.33903362680857085,25.61508919257143
14.74605764,5.076940400238096,-0.7995629239047627,-0.5111725845476184,25.707766424476187
14.76286612,4.90926070452381,-0.8414438025714294,-0.7728112940238089,25.902879987333336
14.77966736,4.858188356904763,-0.8243810193190484,-0.9231084589219043,25.936008749238095
14.79648253,4.982786996428572,-0.8194882727000008,-0.9700203570647613,25.804908249238093
14.81329049,5.127301398333334,-0.8574234217952389,-0.6886965949219042,25.692215197333333
14.83009122,5.019748597380953,-0.8592297945095246,0.1332067473638102,25.98979143590476
14.84690493,4.769616763571429,-0.6800816427476197,0.5258573970304768,26.285877793047618
14.86370987,4.602229119285715,-0.43572739470000077,0.3749658488971435,26.544684094952384
14.88052026,4.491534006904763,-0.2615292327000007,0.019910465611429264,26.75912155542857
14.8973256,3.734874635142858,-0.21332540108095316,-0.01658789929333268,27.015387937476195
14.91413473,-0.023569514857142065,-0.08478702528571508,-2.396401661102856,23.759061758428572
14.9309424,-7.54087039347619,0.6487270451428563,-1.448100118769523,17.126149059857145
14.94774357,-10.754724956333334,0.623935236809523,-0.23748321215047546,14.530198847
14.96455383,-12.059004192809525,1.4295751509999992,0.312765615325715,13.683890078428574
14.98555611,-11.872854868238093,2.0314383761428565,-0.20677545529333263,13.247486120619048
15.0023647,-11.714070864571429,2.012989103714285,-0.3511630864695231,13.097464806476191
15.02758899,-11.785405090380952,1.9748870445714277,-0.39318073366904693,13.14850917633333
15.04439246,-10.909648054619048,1.9566149511904753,-0.05769554757380881,13.408204567285715
15.061205,-5.298770516047618,1.1871976423809516,1.5681026780452387,17.898487850142857
15.07800646,0.8477097268095237,1.036588824657142,1.2802708720452387,23.02497596157143
15.09482216,3.367203556333333,0.8962526290380943,0.2500481380833338,24.793831557285714
15.11162571,4.540640447761904,0.29693087775238003,0.06097663036904807,25.039578283476192
15.12843285,4.997604804095237,-0.11744924971428669,0.23767696696428622,24.794048466809528
15.14522888,5.066802458857142,-0.15069990517142956,0.1489011619100005,24.72937719395238
15.1620492,5.271302429952381,-0.17314148536190577,-0.07536397637571379,24.51095350914286
15.17885512,5.405249257238094,-0.207692873100001,-0.12181707766142809,24.366606762238096
15.19566303,5.517642545809524,-0.21586821210000098,-0.47120803856619004,24.085044941761907
15.21247752,5.777087554380953,-0.5020056453857153,-0.4537248041376187,23.80657084747619
15.22927855,5.945143906285714,-0.9849258719571439,-0.15433046904238057,23.569296206047618
15.24608582,5.880495323904761,-1.3476628350523818,0.11381711305285751,23.528244312238094
15.26287432,5.670199420095238,-1.4872165181857153,0.33780301210047653,23.62690165842857
15.2797015,5.506931739619048,-1.4900456725190487,0.6906459788147623,23.687703051761904
15.29651095,5.437136585380952,-1.4973257951857153,1.1136583716719053,23.719953627952382
15.31331698,5.268478737761904,-1.5369880655190484,1.8026562079100006,24.00280564985714
15.33012445,4.945997764238094,-1.5490579606619057,2.4490173318623816,24.425731669857143
15.34693393,4.704817843952381,-1.4541721345666676,2.508532115576667,24.668605789095235
15.36374423,4.494674255047619,-1.355260712900001,2.245510010671905,24.97698292752381
15.38057489,4.296496486095238,-1.3224211989000008,1.600927126119048,25.458399768761904
15.39735943,3.3433426942380953,-1.2766051009476198,0.26282360469047666,25.51284586590476
15.41415533,-2.0243493923333333,-0.5949285994238105,-1.967112541119047,20.84255979304762
15.43097066,-8.15749095590476,-0.3083232753761915,-2.1036154542142853,15.690896133999999
15.44776717,-10.635761123333333,0.060189275623808616,-1.1804239861666663,13.893695186380953
15.46458801,-11.595570880523809,0.8654072285285705,-0.9285188627380949,13.425769278761905
15.48138181,-11.753335133666667,1.401367936861904,-0.9442701848571424,13.355014952428572
15.49820131,-11.601333707523809,1.4755328326523802,-0.8073284850952376,13.20920460847619
15.51499764,-11.655352636428571,1.5088272890333325,-0.6020432027142852,13.281629547428574
15.5318174,-11.60984075495238,1.574439571104761,-0.4581319886190472,13.326351436714287
15.54862616,-10.694190523523808,1.5672457559619037,-0.1773391843809519,13.275529728619047
15.56543223,-6.371386663047618,1.2193293458666659,1.2143527953809528,16.79035598433333
15.58224149,0.5597421093333342,0.22723636200952294,-1.421074747619047,23.228498258142857
15.59904448,3.8111422845714293,-0.0025484332285722494,-2.0798531425238087,25.25093763385714
15.61585945,4.699268385190477,-1.016229913285715,-2.881923646666666,25.847723505285714
15.63266126,4.755081447571429,-1.39210068604762,-3.456462717761904,26.041654550523806
15.64947722,5.050506067714287,-1.20102060404762,-4.342499113904761,26.273570898142857
15.66627979,5.641478377523811,-1.042746748190477,-4.944609681333333,25.732093567571432
15.68308767,6.302084716142857,-1.1226968083585722,-5.133252001523809,25.13430249442857
15.69988173,6.70395455804762,-1.3100219794147627,-4.566624544380952,25.00348883252381
15.71670333,7.000014212000001,-1.507437149643334,-3.841767804428571,24.741762278714287
15.73351114,7.16434955357143,-1.7176131861195247,-3.0232267886190476,24.322049551142857
15.75031635,7.097919280238097,-1.9399459248338102,-2.418199226714285,24.055680501619047
15.76712418,6.871786070142858,-2.136580603452858,-2.3217918359523804,24.208420691142855
15.78393462,6.770262625619048,-2.2777681123480957,-2.0605246393809518,24.271571576857145
15.80074476,6.759564261714287,-2.3691800080433345,-1.4159080012380947,24.468535937333336
15.81753433,6.6713559722380955,-2.3934273535195247,-0.7142823590476184,24.79688566352381
15.83435715,6.401586394285715,-2.411074710710001,-0.016961568285713654,25.307075771285717
15.85116501,5.767425353380953,-2.5226333524242865,0.569225266380953,26.10405424
15.86796161,5.4150517307142865,-2.548434363948096,0.3954646507142863,26.430453164904765
15.88477964,5.192450612428573,-2.5714121531861913,-0.3012305408095231,26.650647991095237
15.90158661,4.404397735761906,-2.5872021899480964,-1.3817964931904756,26.74887668204762
15.91839355,0.19410155923809586,-2.1428814771861915,-3.6225117469999994,23.370275171571432
15.93518761,-6.654813130285715,-0.9063461950433342,-1.5175372728571423,17.000213216809524
15.95200893,-9.684495516666667,-0.46824191747190563,-1.1242119668095234,14.842749984904763
15.96880724,-10.276723997428572,0.6042899588138086,-0.42837955538095196,14.000003923
15.98562645,-10.114939371,0.9452343454804752,-0.046021231380951946,13.617045654000002
16.00241863,-10.292607919761906,0.7198768073376182,0.5234116744761909,13.260626468571429
16.01923965,-10.677103791190477,0.5634113450519039,0.5060736142857147,13.453304498761906
16.03604614,-10.984128565285713,0.6179556008866659,0.06685267495238134,13.586826177190476
16.05285597,-10.7552142363,0.6246620316852373,-0.6102044892380948,13.194131806047618
16.06966722,-9.123748233585715,0.3261838143423801,-0.11485469595238045,14.259444315571429
16.08646898,-2.868201479919049,0.312738045294761,-0.7372896639999995,19.667140103619047
16.10328199,1.5983665129380944,0.20657750677095157,-0.4372980336190471,22.99051742742857
16.12008554,3.675493061033332,-0.44454256565761985,-0.9760001357142852,23.995800194095235
16.13689464,4.681860971271427,-1.1515389042861912,-1.6778276392380946,24.488325382190478
16.15369691,5.222803027080952,-1.7121535367814296,-2.6695456592380946,24.53723003647619
16.17051663,5.55395358165238,-2.0477047419242864,-3.4051202451904756,24.101050828238094
16.18730502,5.9400322801285705,-2.163357598314763,-3.9492583136666664,23.47984733152381
16.20412406,6.613130299319047,-2.0954177718861913,-4.14548475147619,22.830059652
16.2209326,6.880105429795238,-2.079228105838572,-3.6473406612857144,22.739989085809526
16.23774245,6.7425700616999995,-2.028296714600477,-2.8579898337619043,22.86998770485714
16.25454683,6.745807967414286,-2.0906443055147625,-1.9998586975238093,22.729182402
16.27135661,6.7349811753666655,-2.2409677021338106,-1.3242289341428566,22.449035042619045
16.28816336,6.557279361557143,-2.3996056401814294,-0.9779871989047615,22.453974740238095
16.30497026,6.2861571555571425,-2.493870085743334,-0.8866727468571424,22.656384953571425
16.32178129,6.11265073665238,-2.5011488970766673,-0.7304099517142852,22.77982862119048
16.33858598,6.007582893080952,-2.452225887171905,-0.48337159861904705,22.86603828590476
16.35538631,5.866133964080952,-2.378876246695715,-0.16794510138095187,23.020001530857144
16.37220366,5.56792731665238,-2.355296047505239,0.4034808928571434,23.41914213647619
16.38901184,5.299854870699999,-2.337228744314763,0.5930204587714291,23.662259537857143
16.40581637,4.784910339809523,-2.2467341229619056,0.5196021480571433,24.10181224138095
16.42261034,2.982082504571427,-1.8542660905809532,-0.6725798025619043,23.158799037571427
16.43943332,-3.3767560330476196,-1.6981950975333342,-0.547234209180952,17.907987004238095
16.45622517,-7.782857532095239,-1.4131446032000008,-1.0239587657047615,14.569453656142855
16.47305382,-9.647467659238098,-0.607221487438096,-0.39706022703809474,13.330555382333335
16.4898523,-10.549154781761906,0.1992892674666659,0.12841282281904817,12.740951705666667
16.50666447,-11.066106796857143,0.8193972188952372,0.5854234212571433,12.456975700952379
16.52347052,-11.294234548857144,1.1509323482285705,0.7168064372714292,12.53245173742857
16.54229561,-11.369283267952381,1.260063241666666,0.664974556080953,12.598807166285713
16.55918855,-11.25953574457143,1.286046041666666,0.45420606079523873,12.379015641380953
16.57598302,-9.135108040285715,0.972129545761904,1.0130643875095244,13.614719462809525
16.59280219,-2.156802496000001,0.5638017846190467,0.28249411660476254,19.04611638614286
16.60961285,2.43902442495238,0.02547204972380866,-1.2248840529666662,22.767420857571427
16.62641744,4.119497253047618,-0.9819703167047626,-2.6150596111095235,24.39545373742857
16.64321391,4.722377367638094,-1.5485626693714294,-2.541838404423809,24.40485410695238
16.66003216,5.022378693876189,-1.6026209309428578,-2.3403406353604757,24.08060214052381
16.67684346,5.2573947447333325,-1.4156609944666674,-2.011182272455714,23.994861828142856
16.69364312,5.361981800209523,-1.279837154276191,-1.5483858909795232,24.175636538619045
16.71045855,5.3140486754476175,-1.1703870183714293,-1.3853180051699998,24.30982582861905
16.72726244,5.457657223066666,-1.163288667180953,-1.5792338491699995,24.09540388861905
16.74407308,5.661064237971427,-1.3315810647523816,-1.5310745422271426,23.90327536957143
16.76087929,5.688883372257142,-1.6435735624190482,-1.3811921461319043,23.866855663380953
16.77768704,5.414595285590475,-1.821832480990477,-1.1702054751319044,24.051770739095236
16.79449489,5.157355126542856,-1.8658384937142862,-0.7804405530842854,24.216855071476193
16.81130472,5.085725238923808,-1.9179548395047628,-0.30020143422714246,24.26902852147619
16.82811075,4.970598447495237,-1.9346669970095245,0.26911102472523846,24.47199554861905
16.84491714,4.566581907399999,-1.9720439542809531,1.020371055344286,25.077680841476194
16.86172706,4.236788204209523,-1.9778780001857152,1.1029872823347622,25.405639970952382
16.87853511,4.067327634971427,-1.9683593995666675,0.8783240644633337,25.619131109380948
16.89534202,3.9592244279714275,-1.9775588656142864,0.5643387621300004,25.784812806761902
16.91213691,3.779085522114285,-1.9871755017095245,0.05750089455857179,25.956273323095235
16.92896417,1.717955861399999,-1.6740006068047626,-1.2401183349176188,24.56414035166667
16.94576413,-4.966345424076191,-1.3009638191857151,-1.1791016390604756,18.810478104999998
16.96257067,-9.495290211409522,-0.6705535905190484,-0.24859836139380903,15.002260830238097
16.9793794,-11.13003376564762,0.5101825197190468,0.8416455684157149,13.382191097333335
16.9961808,-11.518289293666667,1.244190990814285,0.6718992149204768,13.19875403295238
17.01298302,-11.471939927190476,1.3954388100904753,0.5647519768571435,13.178084067047617
17.02981728,-11.182044460809523,1.141524374404761,0.4570111659047625,12.822830952238096
17.04660867,-9.388539927714286,0.5156998321666657,0.5301053978095245,13.616593229857145
17.06342135,-4.3091098467619044,-0.1581270666904771,1.9441185112857151,17.694424893190476
17.08022691,-0.40851931342857095,-0.5258821902142866,3.1548805124761916,20.710714747476192
17.09703294,1.6188263892857147,-1.3843485543571437,3.4160361518571443,22.072210476523807
17.11384256,3.04348130452381,-1.8276636742619057,3.52171433552381,22.599662843190476
17.1306442,4.393100579761905,-2.0891280543571438,3.53065168304762,22.452463809857143
17.14745759,5.450849078952382,-2.2726845997285725,3.240106401095239,22.070931162428572
17.16425221,6.024112383457143,-2.3349496807952392,2.8162498474761914,21.651107627714286
17.18107312,6.383641016028572,-2.3505756827238105,2.2201330549047626,21.242946329809524
17.19788002,6.889895302980952,-2.3324726196190486,1.4730769796190488,20.535397551380953
17.2146901,7.235020683219049,-2.3766564698904773,1.4612976429380962,20.188382526809523
17.23149458,7.274484453219047,-2.50043690774762,1.9712364052714295,20.16333771395238
17.24830382,7.0482560570285715,-2.6334664651285724,2.6482255973190485,20.43427117585714
17.26511217,6.686458724123812,-2.6524121477666673,3.3668141084619054,20.827572746809523
17.28192554,6.284292675314286,-2.680861001957144,4.455757589842857,21.466998448238094
17.2987258,5.546321868885715,-2.8688350405285723,5.925990189890477,22.630396055380952
17.31553575,4.983968598600001,-3.103105102290477,6.682141094128571,23.244553695857142
17.33234244,4.7604085376,-3.2534238441000007,7.09802606574762,23.433068428761903
17.34915047,4.6542515524571435,-3.363017273814287,7.289471363866668,23.489955809809523
17.36595631,4.5472455476,-3.4703086870295246,7.302957777580953,23.577077989285712
17.3827657,4.177033492219048,-3.4941150432780965,7.010648289009525,23.87285341504762
17.3995735,2.369090284552381,-3.125738850708572,6.260489434009525,22.809593635523807
17.41636805,-2.537441594495238,-2.6866513129228577,4.3687831147238105,18.454895486761906
17.43318708,-6.294494424828571,-2.397575413232382,2.7650105199619057,15.265317564333335
17.45000227,-8.25626552697143,-1.4384625021752389,2.2511441067714295,13.853577585619044
17.46680262,-9.540070102733333,-0.7746889343271436,2.068575806438096,13.171519660333335
17.48362513,-10.43412910235238,-0.44082514804619133,2.030662177438096,12.881521502190475
17.50042208,-11.016563915542857,-0.2981570994842865,2.133785819628572,12.807271240523809
17.51721172,-11.198573862285714,-0.24247634200761986,2.3161711734666675,12.79333519309524
17.53403318,-10.732493514571429,-0.3157904297171437,3.0204362231809534,13.032366727666666
17.5508442,-8.620788824380952,-0.8988567909314295,4.7780255860857155,15.124655568
17.56764382,-4.674441724142857,-1.2016335930885722,7.449337855909525,19.129908991142855
17.58445575,-3.3270347917619048,-0.6061669679457152,8.81316744614762,20.389074481619048
17.60126519,-1.152763072238095,-0.7415985187552391,10.267981176100003,21.909079588285714
17.61807388,0.610404808714286,-1.0131366287838106,10.148421116052383,21.985581224476192
17.63487826,2.23590217252381,-1.2583902257361914,9.408634922623811,21.619851355904764
17.65169102,3.8707486783333342,-1.2049531403504772,8.307457253147621,20.420338166857142
17.66851119,4.968475908857142,-1.0497886601504771,7.758169298090477,19.430733177095238
17.68530175,5.4077274454761906,-0.998694542514763,7.239557049519048,19.143814728000002
17.70211217,5.577381383571429,-0.9996659350195248,6.802163084780954,19.179004763238094
17.71892594,5.645505019333333,-1.0024077046852389,6.515878711876192,19.249706761333332
17.73572553,5.580274014142857,-1.0313279350985725,6.291516747257145,19.406215647047617
17.75253358,5.457507700857143,-1.13963668747762,6.18927636644762,19.565714027523807
17.76934278,5.359916890857143,-1.2942089238823817,6.27717542692381,19.662451417238096
17.78615137,5.228634629285715,-1.3435496062538104,7.031341144542859,20.031815805857143
17.8029561,4.836590198571429,-1.361539545420477,8.236507450257145,20.903557513142857
17.81976903,4.043613637666668,-1.3177026736352393,9.305476268590477,21.95984568795238
17.83657182,3.425608384428572,-1.157182852344763,9.550296959876192,22.559647609428573
17.85338119,3.0261121698571434,-0.9781222285733344,9.56811795392381,22.962179382333336
17.87018737,2.659664062571429,-0.836448499050001,9.434683817228573,23.36489000542857
17.88699533,1.9566236218095243,-0.6752114749547629,8.757317696561906,23.332908298761904
17.90380119,-0.22803243066666642,-0.04571416266904854,6.899191215180953,21.348803205428574
17.92059912,-4.147558303619048,0.30837431404523713,3.9531241088952394,17.38204004780952
17.93740718,-5.317229907380953,-0.18762969976428656,2.0409050611333344,15.971927906380952
17.95422722,-7.130671115666667,0.05202137566904679,-0.1231007404857135,14.082538821142856
17.97102962,-8.422422704761905,0.287594974007142,-0.753126922009523,13.53784892209524
17.98784298,-9.52937930004762,0.46773252594999914,-1.1190373385809518,13.175488445238093
18.07398018,-8.843811398714287,1.1814170959452373,0.4620217085142865,14.84242860952381
18.09079292,-6.926139423047619,0.4211873378880944,2.6106130907142866,17.73638170547619
18.10759603,-5.7530487606190475,0.18354651425238008,3.2170828127619058,18.406585927904764
18.12439817,-4.799666768238095,0.03730294199523725,3.7900263185238106,18.518569586
18.14121397,-4.072947139,-0.09065135936190562,4.247555000476192,18.32066932714286
18.15801757,-3.4799911184761902,-0.13202863696666753,4.607542213959048,17.780138579857145
18.17481334,-3.092779999857143,-0.053367950152381806,4.641843336006668,17.42832079747619
18.19163379,-2.8943676493809525,0.09855384438571341,4.404897275482858,17.31678167685714
18.20844288,-2.7497076532380955,0.15643221943809438,3.426581422435239,17.053076610190477
18.22525104,-2.4373481613333334,0.18445568661428485,1.9761496896257154,16.378460089238096
18.24205734,-1.850040004190476,0.20740948355238012,0.6415872971495249,15.63867276352381
18.25886241,-1.3776595022857143,0.11577308131428482,0.62978854638762,15.160613997809524
18.27567502,-1.1411856923333334,-0.04035595249047707,1.2691368260542868,15.14662672542857
18.29248214,-1.145775999,-0.1646532250714295,2.3442782788638103,15.638040907333334
18.30928754,-1.4146518480476191,-0.18009442702381043,3.36454481191143,16.25181379257143
18.32609458,-1.9336673874761907,-0.08271143878571516,4.0881721066257155,16.870805320190478
18.34290436,-2.5046025911904763,0.019928838071427705,4.497055905340001,17.403934189714285
18.35971214,-2.817553225047619,0.07110213902380864,4.656085298292382,17.643511950190476
18.37651988,-2.993761198666667,0.11343642597142768,4.822499195863811,17.736304164952383
18.39331653,-3.1113881608571425,0.15253632363333244,4.939836195673335,17.778397477333332
18.41013341,-3.229947339714286,0.2016996679952372,5.00342531443524,17.840695348
18.42693365,-4.82221319552381,-0.4522910177142866,3.044448795959048,16.214902181809524
18.44374066,-7.297291460428572,0.2844751704095229,0.6306243057685722,13.737092194190476
18.46057283,-8.723129840190476,0.5097305944761896,0.027621734816191283,13.239106825619047
18.47736895,-9.78062268657143,0.6592077045190468,-0.4150944322790468,13.11527092752381
18.4941676,-10.519461518190477,0.795336209567142,-0.7151067028980944,13.231645892000001
18.50889258,-10.91337669457143,0.8518156863195229,-0.6375845159047611,13.473691635571427
18.5256867,-10.828075431619048,0.8173783705052373,0.1678324088095246,13.806725570333334
18.54249636,-8.997519061619048,0.5458564502528562,2.700613737190477,16.06449678285714
18.55930205,-4.044150057285715,0.9844720278338086,6.206722157380953,21.03868582333333
18.57610959,-2.3333774068095248,1.3123369642433325,7.62191989304762,22.019459363333333
18.59292751,-0.44101826395238186,0.5449823795766657,8.994026354095238,23.016074324761902
18.60972955,0.6733541712857134,0.32658783329095153,9.325450579000002,23.287889543333332
18.62653242,1.6612174394285706,0.20102723457190388,9.21906253257143,23.27189711190476
18.64334122,2.5765782078571418,0.08838476472428484,8.466194424952382,22.594516684
18.66015121,3.503044888809523,-0.08657779560904848,7.415927727523811,21.738052322761902
18.67695499,4.491164116542857,-0.33804591475190565,6.458763144904762,21.070194585190475
18.69376753,5.329618885114285,-0.5529160497185723,5.835443428238095,20.533621541
18.7105722,5.770420823495238,-0.678665172232858,5.513258842857144,20.325101697190476
18.72738027,5.9971570964,-0.7468729754661914,5.272543884142858,20.245675424809523
18.74418913,6.097139130971429,-0.7862674790185722,5.12434044304762,20.237250415285715
18.76099554,6.109045391542857,-0.8092647277566675,4.961630298666668,20.32049163385714
18.77780342,6.068113735447619,-0.7343722494280961,5.11820082404762,20.304459455761904
18.79461435,5.97795668082857,-0.5973230597900009,5.710237071333334,20.381646957666664
18.81141938,5.852001417257142,-0.47374039295190556,6.572673343095239,20.628547293380954
18.82822581,5.6716917584,-0.372591075185239,7.54192985752381,21.021142324333333
18.84503402,5.344462576685713,-0.2617962471380961,8.432834874380953,21.559425249666667
18.86183818,4.767722924923809,-0.09144068308095325,8.828052860952383,22.25455225957143
18.87863788,4.159684340495238,0.10074429310952292,8.20942272124762,22.363571976714283
18.89545778,2.0492794176380946,0.4722288338714277,5.831872210200001,20.30068825909524
18.91226378,-3.069845721409524,0.10809397720476105,2.5587089143428576,15.371973824333333
18.92907398,-4.827458858076191,-0.17172550565238182,1.4168856566761914,14.309756426714287
18.94587134,-6.622945035695238,0.5665930055714278,0.3484657462952389,13.088133016714288
18.96268785,-7.679521219552382,0.7237864449095228,-0.19743918527618967,12.769980992952382
18.97949817,-8.606954732980952,0.8056828862380944,-0.7506341963238088,12.49633600461905
18.99630179,-9.343279860742857,0.8624237917809514,-1.0359950321333327,12.488477675142857
19.01311422,-9.854499123838096,0.9152936225714277,-0.9473736996095231,12.562906604238094
19.0299187,-10.076856953238096,0.92657174095238,-0.5615471119523802,12.329627186571429
19.04672653,-9.000424338952381,0.6132177029190468,-0.221600671666666,12.862453301238096
19.06353451,-4.282833325904763,1.168472219242856,1.001842223285715,16.90256491647619
19.14967217,-3.637180759285715,1.0468853685238084,1.1247848752857148,16.831577324809523
19.16648045,-3.5270185238095246,1.264749995457142,1.6635135665714291,16.729249876761905
19.18329215,-3.6119241026190485,1.4783389541285703,2.2633868141428577,16.74249971771429
19.20009278,-3.6039063811428584,1.493940878604761,2.68591376404762,16.809430578666667
19.21690292,-3.5636073287619054,1.3962179253285705,2.6007429727619056,16.72380744295238
19.23371372,-3.5877754797142862,1.296690884199999,2.2339692426190485,16.54932114152381
19.25051737,-3.429181575428572,1.1664250295428562,1.7852581427142864,16.14306384914286
19.26733094,-3.137296744619048,0.9703076794952371,1.2125588457619056,15.604584494666668
19.28413416,-2.797251678428572,0.6675546964952371,0.7263215466619054,15.155630783714287
19.30094504,-2.753285521285715,0.3947148664476181,0.603836241080953,15.129457588000001
19.31774273,-2.70390385652381,0.25276784393809426,0.8794078485095244,15.073768855142857
19.33454159,-2.640257131285715,0.12885302314761807,1.3405912375095244,15.076463889904764
19.35136753,-2.6623761079523813,0.0324865807809514,1.8123261586523813,15.17084139752381
19.36817341,-2.8265771631904766,-0.0471172076190486,2.316381000176191,15.411035736571426
19.3849797,-3.173444361238096,-0.11494192895714382,2.659127666700001,15.768670407000002
19.40177166,-3.4895908940000004,-0.12496588616190574,2.614229326985715,16.085787597714287
19.41859543,-3.7377305932380955,-0.09220424779762,2.4552306786523816,16.37179846509524
19.43539204,-3.9534666644285723,-0.05232065691666763,2.3003927637476194,16.629795368666663
19.45221399,-4.256097656571429,0.011084167150951415,2.093494869185715,16.978936374380954
19.46901721,-5.653035435761906,0.36550783766904665,1.969411611328572,16.490861604380953
19.48582472,-10.549951734190476,-0.16671552764238187,0.9707623321380959,12.43008808152381
19.50263847,-11.296113104238097,-0.046134609966191384,1.0184930959000007,12.478657152904763
19.52364485,-11.444363911142856,-0.2664028850280961,0.6738693372333342,12.512892943714286
19.5404526,-11.205592813333334,-0.5411724750280961,0.3854368640428578,12.20831293804762
19.55724947,-9.45955069814286,-0.7877093770280962,0.9062928586619053,13.159109150428574
19.57406987,-2.914283364809524,-0.2268395100852391,0.5678178356619055,18.710623405190475
19.59087696,1.7367690194761907,0.07303546547190382,1.6133729843761908,22.335355001857142
19.60768116,4.0593286032857145,-0.7550244066804771,0.8826135680904768,23.931320682809524
19.62449662,5.372467111047619,-1.423136792585239,-0.2492280235285708,24.997443710619045
19.64129666,6.327116763666667,-1.7411976107280962,-0.7618125734761898,25.212873694904765
19.65811127,6.827823277380952,-1.7225067067280961,-0.24604505595238035,24.94594249719048
19.67491419,6.443560829285714,-1.2994465251233343,0.28668891814285774,25.587981994809525
19.69171337,6.355674836428572,-1.1201412100947628,0.5046635583333339,25.80278447480952
19.70853237,6.348230272619048,-1.034281062728096,0.7909002534285721,25.993160615285714
19.72533519,6.604019257428571,-1.044614580932858,1.1469064218095244,26.065340570047617
19.74214528,6.979087740333333,-1.1182816076471436,1.440966924428572,25.918476361
19.75895627,6.998120082714285,-1.2375375023423818,1.8359412470000005,25.934228838142854
19.77574993,6.83541370747619,-1.293448213820953,2.347830205142858,26.080088905761905
19.79256797,6.807357017952381,-1.2406172054923819,3.0123033754761908,26.172110978619045
19.80937569,6.803703218904761,-1.0885861669885724,3.6727194790476196,26.279368851
19.82618475,6.446070354761906,-0.8525069396495246,4.847502095619048,27.030630275285716
19.84299466,6.124593599857143,-0.5145258702904769,5.291964803714286,27.404983115761905
19.85979861,6.0008315146666655,-0.1989404447285722,5.228896731714286,27.623474126047615
19.87661158,5.926831700904762,0.02147444638095156,4.878790526238096,27.917281674714282
19.89342059,5.7637932427619045,0.2436212867142849,4.337761515571429,28.407101022761903
19.91022372,4.055806592952381,0.5418330542857135,3.0415851953809527,27.547373017523807
19.9270288,-2.4416933739047626,0.11142335028571347,2.86892330052381,22.032735821333333
19.94382639,-6.934538636857143,-0.04861118133333414,1.399051098428572,18.31249486752381
19.9606469,-9.226743993333335,0.9546715701904753,1.6861299785238102,16.703838148
19.97744667,-10.522543930000001,1.8447495472380944,2.523065044761905,15.663877823714285
19.99426093,-11.34554969709524,2.4567953575714276,2.884281237809524,15.347593811809523
20.01105977,-11.597226097571431,2.709857991809523,2.401187680904763,15.36844993514286
20.02787599,-11.025445529619047,2.460702549904761,1.7713667095285721,14.547766016523811
20.04468468,-10.398561477914287,2.4002572582380943,1.8272459390523814,14.325640267952384
20.06149173,-8.534956796009524,2.2002682913333325,2.5335672919095242,15.345874929380951
20.07828773,-3.164551736533334,2.112236164904761,2.711892899528572,19.55862427604762
20.09510884,2.321849592942857,2.2210796504333326,1.6802814114333338,24.009932570809525
20.11191445,4.996930301038095,1.7961052542904752,0.8978464712904768,25.395539321761902
20.12873033,6.376937999609523,1.279459800099999,0.44799641162381,25.414131666047616
20.14552822,6.865746994609524,1.047144010004761,0.17400265838571488,24.93528909276191
20.16232193,7.132267086323809,1.0742696978142847,-0.1869059804857137,24.57154825704762
20.17914919,7.7594866043714275,1.0309263354809515,-1.1292285438809517,23.57160537180952
20.19596715,8.227018217514287,0.8031173831476182,-1.1124814779285708,23.10614945947619
20.2127493,8.390399248942856,0.5714629264809515,-0.6114894295952373,22.881060749
20.22956998,8.458124703133333,0.4127511297666657,-0.03058219811904696,22.583250527285717
20.24637509,8.435949095895237,0.2628040314380944,0.6511170780238102,22.265841724285714
20.26318532,8.287085212847618,0.10842533910952293,0.9782323980714294,22.20533785095238
20.27998065,7.987581704942857,-0.05346528683095325,0.9358728189285722,22.46183601285714
20.29680696,7.6818329469428575,-0.16706938965476276,0.853854511642858,22.75061789190476
20.31360803,7.559382844847619,-0.22975778575000086,1.1482558962142864,22.812358463809524
20.33041916,7.518774438657142,-0.314822934892858,1.770580317500001,22.956832826666666
20.34722421,7.142944832657143,-0.5191614003214294,2.8545080963571436,23.70098582142857
20.36402921,6.653332026085714,-0.6536735267833341,3.2651357112619053,24.206968100095235
20.38083913,6.266518590038094,-0.6567601732119056,3.119639479114287,24.586050133
20.39764087,5.595509344523809,-0.6164153161642867,2.375365135304763,24.664465021095236
20.41445627,3.735823265,-0.3774612602595247,0.9387176746857151,23.382305962047617
20.4312609,-1.7442257307142859,-0.16789940706904846,-0.036571579409523075,18.865493853000004
20.44805893,-7.333300318333334,-0.057571743216667526,0.43357633140000074,14.265101175380952
20.46487733,-9.82109442261905,0.6016101695452372,0.9372016219238103,12.644139758238095
20.48168578,-10.917245047857143,1.2380053968309515,1.1286868026428578,12.306994179666665
20.49850327,-11.308535485714286,1.416005971849999,1.099684771928572,12.571556176761904
20.51530142,-11.533057894714286,1.2057942747738086,1.298559376085715,12.791754296761905
20.53210952,-11.766177950142858,0.9955784536166657,1.5272966310047627,13.005638658666665
20.54891471,-11.858065106285714,0.8913567889071421,1.5320630952428578,13.067476716857144
20.56572596,-11.649694034666668,0.7538870147166659,1.6452602856714291,13.002432842
20.58253468,-10.172962461714286,0.2809533590499992,1.6982538330523818,13.712049840380953
20.5993361,-5.7842644289047636,0.418576850807142,2.3591141897666676,17.23309499671429
20.6161424,-0.481450172714287,0.2010103095642849,1.4690956470523817,21.467401967666667
20.63295828,2.8233312868095224,-1.0119032433523818,-0.21280660270952284,24.13126458004762
20.64975095,4.6434458315714275,-1.953722070957144,-0.8821618133285708,25.041436981
20.66655804,5.559508459238094,-2.409976939242858,-1.2760528413285708,25.088494029571432
20.68337447,5.907885505523808,-2.485157061066668,-1.6130268263285708,24.6043787172381
20.70018444,6.457010654857142,-2.2631003486380963,-2.282877879519047,23.772463087761906
20.71699485,7.098766145095237,-2.117582695700001,-2.1868747558523802,23.315521644904763
20.73380145,7.525716917523808,-2.163034308414287,-1.6155929480904758,23.114065561095238
20.75060713,7.756563640571428,-2.2597277106714295,-1.2163596522809519,22.922128495380953
20.76742162,7.881604194619046,-2.3406984720142865,-1.0116576155666661,22.789265622380952
20.78422476,7.942052114619046,-2.4017798722333343,-0.9127047261285709,22.719512601190473
20.80103178,7.898332005571428,-2.451481449352382,-0.9055157985571424,22.758125408809526
20.81783755,7.720296859857141,-2.507646571209525,-1.0507789367952374,22.956272441666666
20.83464425,7.514613560333332,-2.578457722238096,-1.30096404327619,23.206298143571427
20.85146043,7.351709502238094,-2.5392330578761912,-1.376478853680952,23.362300148333333
20.86826153,7.030728885238093,-2.2711411521809532,-1.2320518721095233,23.74564013404762
20.88506798,6.411214964999999,-2.0979406101666678,-0.9268670988714282,24.44531784547619
20.90187839,5.944062097047618,-2.1835297777904774,-1.0956418115380946,24.846037834380954
20.91867362,5.469028972571427,-2.2695147571714296,-1.5754543200619042,25.12626103161905
20.93549286,3.8623042787619037,-1.9986051298857153,-1.8183018535380948,24.557245543047618
20.95229875,-0.5760561621904772,-2.279602394838096,-2.568200287128571,21.09672687114286
20.96910933,-5.791097686000001,-2.1719495490285725,-1.5136232486380947,16.76786033352381
20.98590371,-8.83104896504762,-1.0620536838857153,0.5923874950285718,13.773470175904762
21.00272984,-10.369912192714285,-0.25676876374285795,1.6965142775047624,12.532528028285716
21.01952893,-11.172659147142857,0.044165993780951554,2.1046380317904765,12.377541978571427
21.09936895,-5.266062012,0.24848770746190393,1.4097438540285718,18.030736180428573
21.1161752,-2.265639329904763,-0.13598373172857223,-1.391403765638095,21.38031101419048
21.13298206,-0.9993451001428578,-1.1786455349190486,-2.81217686287619,22.576346783238098
21.14978968,-0.9320676459523815,-1.4300735429666676,-3.272570444966666,22.30883958761905
21.16659923,-0.9675261652857147,-1.3496788094714294,-3.48349321125238,22.290898873619046
21.18340563,-0.7216436314285719,-1.3280676213333342,-3.2139214982047615,22.257223572
21.20021203,-0.5554284160476195,-1.3515731252666676,-2.692314876880952,22.41874902652381
21.21702833,-0.3682482148571434,-1.4314301227190485,-2.406373435071428,22.302821150190475
21.23382841,-0.09062617361904814,-1.5811614692428582,-2.0574770792142854,22.046928814428572
21.25063582,0.040799638285713785,-1.7292775426904772,-1.9426104364999996,21.907474553000004
21.26744396,-0.04135545314285771,-1.9084544238809535,-2.2501708292857137,22.05356673109524
21.28425302,0.10235590923809466,-2.2476525250238106,-2.631190694033333,21.792311463
21.30105931,0.6638728525714279,-2.4369689680523816,-2.7468126242714277,21.249168659190477
21.31786026,1.0276454263809516,-2.3308128374142862,-2.2324108306999997,21.15952175157143
21.33467278,0.6648559092380945,-2.048162048795239,-1.1361630443190471,21.892936605380953
21.35147043,-0.005062514571429334,-1.775061615890477,-0.8580179126999996,22.558236670142858
21.3682915,-0.3508795812380961,-1.4727875363666676,-0.8903253331571425,22.91100033252381
21.38510206,-0.4631860850476199,-1.2279881721761914,-0.8884198720047616,23.028193343476193
21.40190399,-0.5247400402857151,-1.0081663330809534,-0.8866829983380947,23.092032567285713
21.41871378,-0.5803615959523818,-0.7999222477952391,-0.8869036490523806,23.147621458238095
21.43552077,-0.6298009353809532,-0.6415623115095248,-0.8814662408619045,23.19690918366667
21.45232803,-6.872077488095239,-0.7680154443666675,-0.20049401081428525,17.85935047261905
21.46913202,-10.048973129285715,-0.5082277486190486,2.4345700459000006,14.560108814761904
21.4859499,-11.457876978000002,0.42761704183333243,3.5503736053285713,13.284587603809522
21.50274491,-11.547090394714287,0.6226841296333324,3.574797110904763,13.332626649333333
21.51955892,-11.343035221666668,0.541142387057142,3.6000981047142866,13.122567688095238
21.53636907,-10.757760888619048,0.47325361627142765,3.725710658904762,13.339549998904761
21.55317251,-7.478829997333334,0.5809935359952372,4.785455130333334,16.113053579380953
21.56998185,-1.0627412590000016,0.1459747696142848,1.9291331144285724,22.29566653047619
21.58678935,2.424977414047618,0.05603558404285623,0.6696107558095247,25.115289789571428
21.60359784,4.1057401592857135,-0.7123472378142865,0.2424299435714293,26.042194445761908
21.62040628,5.176781539095237,-1.0629205506238104,0.14643222404761985,25.95541214576191
21.63721047,5.6894422470476185,-0.9217007871000009,0.07382319684285794,25.457224876285718
21.65402348,6.202441009614285,-0.6810492817857151,-0.5833119037761896,25.132460142190478
21.67082885,6.68368482440476,-0.6485722747571437,-1.3914938709190467,24.577581777714283
21.6876376,7.504236242499998,-0.7697721011523817,-2.085221182395237,23.504614690714284
21.70444442,8.34888351402381,-0.8861125510523818,-1.9342195700619038,22.762110721666666
21.72125135,8.754694188119046,-1.0223303949619056,-1.646663421347618,22.387704183095234
21.73803792,8.843907740976189,-1.1100787635333342,-1.5849481789428563,22.291280131190476
21.75486766,8.793869857642857,-1.1268296101523818,-1.6369577557999992,22.333039708809522
21.77166201,8.52678064954762,-1.179319356342858,-1.9362836533714276,22.60455577404762
21.78847921,8.279030412880953,-1.2549482642476197,-2.052067373157142,22.83663111738095
21.80528984,8.196126505595238,-1.2594550906761914,-1.5179806860619038,23.183870594142856
21.82209904,7.601407890595237,-1.2855431269142865,-0.3767709246809518,24.34024272057143
21.83889274,6.773010139785713,-1.3308733334666674,-0.057763391728570666,25.223866118666667
21.8557104,6.370950085119047,-1.3832800560571437,-0.13957434578571354,25.624937738285716
21.87252621,6.008089382642857,-1.3681856509095247,-0.15854477000952308,25.98144028304762
21.88932326,5.0596642259761895,-1.299754372838096,-0.7127593725333327,25.909655512571426
21.90613817,1.5443192883571424,-1.3639896230095248,-2.3964399237714282,23.05044792590476
21.92294901,-5.0125137954523815,-0.848824250138096,0.20274490710476234,16.935454169238092
21.9375987,-8.55897821602381,-0.6249389764842865,1.3511776046952384,14.127668819380952
22.02379204,-9.795373416166667,0.2926768715490468,2.008224666171429,12.737434008476189
22.04059812,-9.604393140738095,0.8316400079299991,2.8938228489809528,12.767585285619047
22.05740847,-6.339061145833333,0.9474957698823803,4.511114832885715,16.13782284890476
22.07421455,-0.8337569464952382,0.6848851357395231,2.4326131313619053,21.822627097285714
22.09102001,2.1521265844285717,0.5567263279776183,1.2215910951714288,24.901114271761905
22.10782933,3.4496347787142865,-0.06368600743666739,0.4461626866476195,25.911392628761902
22.12463689,4.157920110428572,-0.3800049224414293,-0.22066331173333292,25.976326189238097
22.14144559,4.518797329142858,-0.4776438360080959,-0.6932173823523806,25.740881415666667
22.15825067,4.949984686333333,-0.4706546407700008,-1.1492562263523804,25.60174364085714
22.1750598,5.487246694476191,-0.4532432271033341,-1.2714466223523806,25.16947189295238
22.19185413,6.115012304523811,-0.4288983343414293,-0.867516298923809,24.631929171714287
22.20867792,6.529200439571429,-0.3673136033890484,-0.4606490388999996,24.40336507933333
22.22548166,6.670779113761904,-0.37107408877000075,-0.8131223658523806,24.065182404095236
22.24229252,7.274418852476192,-0.3200409750890484,-1.919271006233333,22.91103420590476
22.25908533,8.038466565904761,-0.22336206527476266,-2.2944660553476184,22.088804296380953
22.27590669,8.21705534257143,-0.13334547034142932,-2.3677007270142854,21.92549441685714
22.29270836,8.120246409714287,-0.07883585334142933,-2.6817432355999995,22.075872009714285
22.30950756,7.982452959714286,0.03341568667285638,-2.6965208505523806,22.228967909238094
22.32633291,7.957999751142857,0.10261884203476113,-2.287374660885714,22.347017009238098
22.34312734,7.973702634476191,0.09437901646809446,-1.696879846523809,22.591886178761904
22.35994823,7.766039779809525,0.0419513967666659,-1.0125988264952377,23.116047318619046
22.37673934,6.811089674238095,-0.12771982369523888,-0.6126317860666661,24.163522583333332
22.39356776,5.463688009952381,-0.30902539112381033,-1.1463424930142854,24.249127683809522
22.41036018,1.7028641699523808,-0.518394448838096,-2.7356795778142855,21.355300298095237
22.42717914,-4.358257451952381,-0.4851164802761913,-0.4706902299571425,15.885569083333333
22.44398304,-7.832123732904764,-0.42300085146666744,0.8601899462809528,13.095216466190477
22.46079346,-9.423627830047618,0.175369219409523,1.2709966701380957,12.24322611904762
22.47759582,-10.238679181380952,0.4783162588142849,1.548282382233334,12.16681412
22.49020502,-10.610427061142857,0.5463276803523801,1.7390494888047623,12.364250441666668
22.5070153,-10.972021397523811,0.5087896457619039,2.080397660028572,12.42653003261905
22.52382078,-11.326606863428571,0.4019055054142849,2.263042481361905,12.674641689666668
22.54062734,-11.246838273857142,0.24352161936666583,2.217679475219048,12.597132468095237
22.55741661,-9.62174038604762,0.16179557636190398,3.093680515361905,13.901366453809525
22.57424406,-4.762264342142857,0.12300026977142776,3.7596543832666676,17.966081358095238
22.59104897,-0.2599508646666669,0.6755999496761896,2.187782727933334,21.882286956285714
22.60786091,2.1104462490476186,0.18321665124761818,1.5691736627619055,23.43168406438095
22.62464676,3.3054839999999994,-0.5091129482761914,1.4414459271428577,23.733248195333335
22.64147882,4.593439193333333,-0.7693449767523818,0.566479441857143,24.261507167238097
22.65826967,5.871207691428571,-1.008530730085715,0.09498241695238134,24.35836701390476
22.67508553,6.773914019190476,-1.178538413038096,-0.4832606342857138,24.139634406142857
22.69190151,7.276424180842857,-1.2177479222190486,-1.0134019084095234,23.443260685190474
22.7087043,7.669735794699999,-1.1480111463142866,-1.2856003130761902,22.984718109
22.72551349,8.346838564842857,-0.9371564030857152,-1.2400902483142853,22.447780822809523
22.74232191,8.68878643822381,-0.7440632735142866,-0.7373118317476187,22.29410972233333
22.75912536,8.78394310774762,-0.5379995147523818,-0.33426728156666624,22.331269889
22.77593403,8.525020712509523,-0.2907937663142866,-0.17721732480476152,22.623672035190477
22.79274719,8.04471703917619,-0.008351065314286643,0.025162923671428954,23.13946637852381
22.80954773,7.800886722033333,0.19893761290476097,0.5956474255285718,23.54466155233333
22.82636721,7.706795624414285,0.23445636345238002,1.3063838362904765,23.926342433761903
22.84315977,7.0304575647,0.061182083390475275,2.4409318871000005,25.03180754947619
22.85997723,6.651339916747619,-0.06286954992381044,2.5494643101619054,25.418942114761904
22.87677247,6.484277565938095,-0.07679177152857235,2.282409968114286,25.60858062752381
22.89359018,6.062722046795239,0.03702252565714193,1.8022009922095241,26.00506655461905
22.91039777,4.279623916795238,0.10851730080476096,0.1835122271619052,24.79199819890476
22.92720428,-0.6329278266809519,0.15796610315714193,-1.0808998582666665,20.81863440652381
22.94401588,-5.138623623680952,-0.40552775041428657,0.08395337397142898,16.972728053666668
22.96082307,-7.456541402157143,0.044730606766665834,0.4241974402095242,15.428517546047617
22.97762931,-8.47492896977619,0.7055775438380945,0.46369779025714325,14.986499488952383
22.99443625,-9.45449013982381,0.9077068737761896,1.4220558738285716,14.136900708809524
23.01124497,-10.411855516347618,1.0431788535761897,1.807183702161905,13.736864725333335
23.02805064,-11.05005000925238,1.179904040861904,1.8580104333047622,13.657325940142858
23.04485463,-11.300792217619048,1.3376366836904754,1.6574020549523814,13.919039155238098
23.06166617,-10.66245923757143,1.3533128925952371,1.5610002726666667,13.888911308571428
23.07847099,-7.513511385809524,1.6085286651761896,2.7819053040952384,16.474083283809524
23.09528355,-1.8944042287142846,1.4753078052238084,1.338233532571429,21.048178341904766
23.11209113,1.56915319604762,1.4960142771761897,0.2339737919523814,23.432103236666666
23.12889755,3.7995689036666676,0.7059921081761897,-0.5621171059999996,24.30913504095238
23.14570622,5.521026203190477,-0.04068494991904841,-1.0836464285714282,24.256201414285712
23.16251115,6.581493832190477,-0.41980272263333407,-1.5688755913771426,23.72251803314286
23.17932307,7.2271317078571435,-0.46980011194857213,-2.027494459139047,23.058146765238092
23.19612773,8.290267627142859,-0.255546907758096,-2.915751394805714,21.69239773542857
23.21293772,8.864912647,-0.10976945238190555,-2.7295693670438093,21.221367566095235
23.22974477,9.011879127190477,-0.08433162333904841,-2.2365682920438092,21.14171773942857
23.24654714,8.808986324333333,-0.11270186892000078,-1.595680395805714,21.322240522761906
23.26336127,8.68604399004762,-0.17805453017714365,-0.9329748153771427,21.40012557847619
23.28016645,8.687132631952382,-0.2509678107247627,-0.408061163805714,21.319232794666668
23.29697389,8.537294138952381,-0.28210644938190554,-0.1264954067795236,21.38138162942857
23.31377733,8.21792695742857,-0.2557764665152389,-0.04963128911285693,21.65542698752381
23.33059141,7.910724754571429,-0.16947202896761984,0.16859108491571448,21.920294353190474
23.34739841,7.735979240333333,-0.12088500190571509,0.5223555167252384,22.08178967142857
23.36420708,7.551793735428571,-0.10299851084857223,1.0120955137728573,22.31984485680952
23.38101198,7.0772390829523815,-0.0865818022295246,1.760566047344286,22.911478538809522
23.39782126,6.568809714428572,-0.11341858351523891,1.9347140960061906,23.34830931133333
23.41462805,5.52180356147619,-0.06845685289619129,1.3611771096252383,23.57033149990476
23.43143607,2.1755682410000006,-0.3083340485009532,-0.5312509818033333,20.94785888561905
23.44824445,-3.530155159952381,-0.2114676451961913,0.4123603846919048,16.264317318000003
23.46504586,-6.996983097095237,-0.3655339921485722,1.1718519190442858,13.749165154190477
23.48186329,-8.941470532333334,0.24357123171809444,1.9371192797109524,12.55612319514286
23.49865458,-10.15504716695238,0.774831228289523,2.480598234091905,12.079295943714285
23.51547399,-10.931069896380952,0.9891291189561897,2.5615367266119047,12.168150054666667
23.53228364,-11.434263706238095,1.0454694897952375,2.406422158192857,12.402611934904764
23.54908942,-11.64091816404762,1.0519449781761896,2.149540597621429,12.494182189142856
23.5658987,-11.336943853523808,0.9232419090380946,2.0120920256690478,12.285804448952382
23.58270517,-8.485329400857143,0.8254224331380945,2.652240824526191,14.361198026571428
23.59950412,-1.9700701146666655,0.13829125653333257,-0.35390855823571393,20.026214254190478
23.61631864,1.4365365596190482,-0.42666076501904837,-2.3400714931404756,22.66317136990476
23.63313045,2.821941827857143,-1.0182033467571436,-3.474569340235714,23.62830908847619
23.64993395,3.765933943095239,-1.3349696968142863,-3.8609064842619047,23.65465130133333
23.66674788,4.585623648190476,-1.3296118410047628,-3.5885015751666662,23.050610630190477
23.68354648,5.313780101180953,-1.2946900245761914,-3.385899898290476,22.58645701552381
23.70036359,5.882811135338096,-1.3049322596714295,-3.562870801652381,22.06492516595238
23.71716377,6.282599560385715,-1.31428974614762,-4.015988308509524,21.62677440985714
23.73398962,6.7223821573857165,-1.3499499505761914,-4.592210143642857,21.00794608747619
23.75078513,7.007919468576191,-1.403591391885715,-4.488907642161904,20.731959763523808
23.76758938,7.2077278619095235,-1.4215899453142864,-4.169613768495237,20.509909488285714
23.78437952,7.298201990480953,-1.408533002900001,-3.959011893733333,20.40739504638095
23.80120711,7.266510439528572,-1.3644001401095247,-3.9286873268023808,20.44243701780952
23.81801193,7.089694861433334,-1.3392323967476198,-4.066588269630952,20.629225945428573
23.83482134,6.8385926409571445,-1.2960572273285722,-4.119663577502381,20.878338528285713
23.85162869,6.577208994147619,-1.2371020972333342,-3.8525250849785713,21.228178634
23.86843631,6.2320208531476196,-1.2453220120095245,-3.2353413827880955,21.82591792847619
23.88524303,5.803970448766667,-1.2671026504571437,-2.969643191130952,22.300370337571426
23.90205143,5.435048578242858,-1.2352390291714295,-2.9956213192738095,22.66776500742857
23.91885882,4.869260763576191,-1.0265977214571438,-3.3303455979880954,23.07931733742857
23.93566762,1.987761064242858,-0.8241210724095247,-4.556415934130952,21.03129205695238
23.95246008,-4.248338312899999,-0.01780297079047695,-2.1674841602738097,15.123627148857143
23.96928511,-7.448226632947619,0.6838679483523803,-0.7890109693214288,12.32216582457143
23.98607811,-8.758567151233333,1.4134449220666658,-0.13791982489285726,11.364812320285713
24.04070303,-9.388522352185714,1.8481616008761896,0.012851861107142764,11.140514753
24.05753042,-9.664056209947619,1.8682900894476184,-0.2141994423690477,11.231593535476192
24.07432974,-9.58733079512857,1.79886858235238,-0.3368830582738096,11.121114404904763
24.09113805,-8.652500175,1.799875492114285,-0.1985252812928572,11.978598522095238
24.10795439,-4.7691586809999995,1.3650408755904755,1.013551882088095,15.670865623428572
24.12474447,0.12217816866666724,2.05931093587619,1.6718666381738092,20.016008997238096
24.14154145,2.72320556652381,2.099608197185714,1.8053113220785715,21.702712085
24.15836665,4.327533812714286,1.7325437041380944,1.6930806237928573,22.351755159761904
24.1751648,5.3891882670000015,1.5148747734238088,1.793606286792857,22.406541561190473
24.19198489,6.181588036714286,1.4962961305190468,1.9836923904142856,22.09895367695238
24.20877983,6.857181276580953,1.6059227699666658,2.068160664285714,21.549175177714282
24.22560134,7.397278490342858,1.671110808871428,1.964231956395238,21.064428409857143
24.24241017,7.7303360753428585,1.6146442975857138,1.5156997610619047,20.628590091
24.25921163,8.030870414866667,1.5599035195476183,0.7632613635380953,20.07006792242857
24.27602555,8.32011156962857,1.4749362469476184,0.3615905329666666,19.741594565285716
24.29282793,8.327643371533334,1.3095446144714278,0.320848317347619,19.73802770147619
24.309642,8.14741563772381,1.1962680732380944,0.48702594779523795,19.86501671004762
24.32644523,7.9667089780095255,1.216522639809523,1.2713775920333332,20.138274956714287
