Time (s),Linear Acceleration x (m/s^2),Linear Acceleration y (m/s^2),Linear Acceleration z (m/s^2),Absolute acceleration (m/s^2)
0.356204587,-0.8981587375633333,-0.34430240446190474,-0.10035194635714285,6.633356467428571
0.373009071,-0.8934470187538095,-0.2531849315809524,-0.6170553703571429,6.521884208285714
0.389825702,-0.8148581470204762,-0.16029226210476188,-1.011034329404762,6.501161378619047
0.406632658,-0.666067991877619,0.22594663077619057,-1.1922668726285715,6.0560279260000005
0.423442961,-0.6086056401933333,0.5580906413952381,-0.6814884342952381,5.461199707428572
0.440248382,-0.622447377050476,0.8831904956333334,-0.21195932781904755,5.295495881
0.457059458,-0.7406075680885713,1.0942953427904765,0.11964531185714292,5.558132734333334
0.473868713,-0.7535172472742856,1.1248576073619048,0.38839539475238094,5.698451803571428
0.490671987,-0.8057410659095238,0.9412631761714285,0.43264824451428585,5.567065961523809
0.507481396,-0.6015742675476189,0.4669791857428572,0.43853747860476194,5.5593295160952385
0.524291881,-0.3564276977904762,0.2203720183761905,0.3610854547666667,5.5881931350952385
0.541098544,-0.12371983969523807,0.11084617890000002,0.3077135939095238,5.588632349952381
0.55790736,0.03900790228095243,0.043176650995238104,-0.07135920851904758,5.765052101285715
0.574714927,0.1954942432333334,0.045201346995238104,-0.2680282960428571,5.725232500238095
0.5915235,0.29303582523142857,0.21677791504285718,0.06292208900476194,5.7873506783333335
0.608323021,0.5218662081838096,0.49155042282380956,0.31731202219523813,5.709566447761905
0.625144636,0.6973867985357143,0.5849454970333334,0.5800718325761904,5.723969038142857
0.641928551,0.6715241728785715,0.5269064221761905,0.8597021302904763,5.797027815761905
0.658757654,0.8327453591880953,0.24959209984285718,1.4232009847761904,5.315278640238096
0.675553492,0.7418643975214286,0.16332233512857147,0.8480862690142859,4.868358285666667
0.69237474,0.9812776021404762,0.26106525593809526,0.7467036615380953,4.729393924047619
0.709184169,1.2954821132833334,0.07858074272380958,0.9792953246333334,4.727493312190476
0.725985764,1.4855998357595237,-0.06406915762857136,1.3099027388714286,4.647142636238095
0.742800909,1.5263655072642857,0.04810537604761911,1.6462313929190475,4.552296016714286
0.759603594,1.533376943545238,0.1863285359285715,1.6922788306666667,4.626511151047619
0.776406898,1.4964298975166668,0.34311394459523814,1.8681506456666668,4.657684304809523
0.793241452,1.4298444021357144,0.39456827297619057,1.7340065268095237,4.563688249285714
0.810036162,1.4638172558414286,0.31561088559523814,1.4869430887142858,4.319594867714285
0.826838459,1.4045928319461904,0.23609357788095248,1.2752101845809523,4.136053475619048
0.843649677,1.2770475887242858,0.24886822697619054,1.118517852857143,4.153277193095239
0.860455718,0.8607357116290476,0.5106573445000001,0.9988685845333333,4.093479487190477
0.877250701,0.41748489653380955,0.6094467525809526,0.8015225897714285,4.185398984999999
0.894072083,0.09302107491476194,0.5594095502,0.777279689104762,4.209992510904762
0.910880758,-0.15820030941857138,0.49037484324761915,0.909100027247619,4.057786235619047
0.927689485,-0.18038488575190473,0.4483381764761906,0.7983835792952382,4.074164782333334
0.944503765,0.5565777961528572,0.025725350476190605,0.6802268623904764,4.755240382714286
0.961305085,1.2463686582957143,-0.33323480120952376,0.7446933728666667,5.432275011523809
0.978113955,1.3748162817533334,-0.2729777637333332,0.8381256858190478,5.564838689476191
0.994927563,1.2263993538485716,-0.12570476816190465,0.7881486330571429,5.6864665500000005
1.011728071,0.9917063034438096,0.04258882150476199,0.6972675635714286,5.829349474190476
1.028537916,0.810913335967619,0.18363893888571436,0.2997558202380953,5.984393859380952
1.045348412,0.6187450774914287,0.34712464193333337,-0.06866486014285711,5.964115076523809
1.062144627,0.48393263164380956,0.40056974269523815,-0.26254482776190474,5.847918995857143
1.078963475,0.41196600623523805,0.3829952053285714,-0.4573501319857142,5.741619598047619
1.095772313,0.2701899213304762,0.2987715914761905,-0.6868647194619047,5.757163031809524
1.112579657,0.21013278079714284,0.06534274995238096,-0.8036632792761905,5.778449227809524
1.12939412,0.13017173068285717,-0.16607144323809525,-0.8737417657809523,5.7750843684761906
1.146194932,0.025032883873333345,-0.3544275532857143,-0.9640481443095239,5.769359432904762
1.163005143,-0.08235695222285713,-0.4532196052909524,-1.0803611079285713,5.77099746152381
1.179811022,-0.12458029222285713,-0.5012334485433334,-1.1721015628904763,5.799724484238095
1.196615018,-0.06080132412761901,-0.5020884800195239,-1.1789157390190477,5.756454260476191
1.21342464,0.1509566309533334,-0.47977545282904766,-1.0967333543571427,5.633989109619047
1.230237802,0.44466091362000004,-0.4202856236385714,-0.7695848260238096,5.468238487380953
1.247042388,0.6536254204295238,-0.3560684194957143,-0.31490093183333334,5.382058517523809
1.263859771,0.6935001103342857,-0.19380659854333326,0.1861832823095238,5.535425274904762
1.28065977,0.5669656029533334,-0.014131680819523783,0.6305934815476191,5.746173250428572
1.297476379,-0.21230743033238084,0.4909150047042858,0.7653954710238096,5.100850615714286
1.314279327,-0.8985511235704761,0.8717149907852382,0.6461600803571429,4.384019084761905
1.331087871,-0.8719946998085714,0.7465709221042858,0.43461526011904766,4.219813528047619
1.347892905,-0.3945507549514285,0.48871683366142865,0.3469476813571429,4.118702500904762
1.364708264,0.2235332443342859,0.3759674444042858,0.48003832497619053,4.296936253666667
1.38150168,0.8177974110485716,0.29790460921380957,0.8284286430666667,4.419550929714286
1.398320061,1.0805751709533336,0.1443665921661906,0.8879523163523809,4.493035196619048
1.415134158,0.998391083277143,0.02816633807095247,0.5513586429714287,4.833603533095238
1.431936608,0.7427343413523811,-0.09147233197190469,0.2735312665761905,5.215451481571429
1.448746138,0.6003949755428573,-0.16723807512904754,0.2017528215761905,5.384969861857143
1.465553471,0.5458955537476191,-0.08854562755761898,0.11612003186666672,5.40602213904762
1.482362624,0.6661796569380953,0.026512617123333394,0.10401729171428575,5.325871170809524
1.499172196,0.8535090173666668,0.10251815401952388,0.25932393752857147,5.363895037666667
1.515987859,0.895978836747619,0.14566059337238102,0.5506945905285715,5.499211135190476
1.532785823,0.7982095309380952,0.24030402443428578,0.985979137004762,5.800992320142858
1.549598609,0.6653505279380953,0.28103049881523817,1.3702088878571428,6.0992667916666665
1.566398393,0.5778205053809525,0.17637225737142864,1.5015556585761904,6.135967899047619
1.583198351,0.4919819604633335,-0.030855216771428513,1.0609572842428572,6.341430879666667
1.60002254,0.4554051444490477,-0.260372665295238,0.2876312734333335,6.695424154428572
1.616811552,0.4921937670061906,-0.516623302195238,-0.10330994337619034,6.406606622142856
1.633645486,0.502373513722381,-0.6700090038142857,-0.3118466591380951,6.148019746190476
1.650432677,0.47559011548428576,-0.702465765147619,-0.49619374370952374,6.003475287666667
1.667253396,0.3913861229176191,-0.6444745216095237,-0.6647849932857143,5.942892344095237
1.684064116,0.213093984674762,-0.5774650882142857,-0.8236415668571427,5.8665549956190475
1.700865906,-0.0856719698490475,-0.5586415695733333,-0.9649401560952381,5.676018295
1.717694539,-0.5363636925299999,-0.5374313716809523,-1.0892368666809522,5.322943814
1.73448285,-1.0643367767680953,-0.40099904045333334,-1.0933720893419048,4.891528732904762
1.751299581,-1.3748457772442857,-0.1940694788247619,-0.8212997400561903,4.708256925904761
1.768104239,-1.3587533860061902,-0.015251451629523809,-0.24224756424666657,4.473478102047619
1.784911958,-1.1398120607633333,0.08120814713238096,0.31413493289619054,4.2756594109999995
1.801719494,-0.8815651394157141,0.10229900660857143,0.7530863911342858,4.230953419952381
1.818528812,-0.7054526011299999,0.06371040322761903,1.1340751366104764,4.3467662343809526
1.83533706,-0.6802592958919046,0.042089980627619025,1.3544881856485715,4.533452291047619
1.852143517,-0.7365635009299998,0.10975785801714284,1.393025052124762,4.557966196523809
1.868954299,-0.681311607368095,0.14827812890761902,1.3112798816961906,4.483079610571428
1.885761906,-0.5404569762299999,0.06655707849809522,1.1174166033152382,4.2360953418095235
1.902568201,-0.4058681442776189,-0.0361969510066667,0.9168087585533335,3.979276443476191
1.919380102,-0.3020347868014285,-0.13636252142000002,0.9104524056961905,3.9958508483333333
1.936187475,-0.14056355616952368,-0.17244600965809523,1.3293034293152384,3.8328948696190475
1.952993658,0.1173300969876192,-0.13846547546761906,1.8669913666152382,3.5111646219999995
1.969801307,0.46726821714476213,-0.18135676780571428,1.8514289287580952,3.7617971527619045
1.986610246,0.8652714774285716,-0.34576158580571426,1.5813320817580954,4.073740758857143
2.003409614,1.2522706530952383,-0.49025389409619047,1.2981260503295238,4.438687644
2.02022711,1.5488377071380954,-0.5132098453342857,1.13257158362,4.70594060104762
2.037034472,1.716937473809524,-0.42685429538190467,1.0270247571914286,4.880234562714286
2.053843626,1.7209117298714287,-0.1877374861990476,0.8508064518580953,5.147490170047619
2.070647551,1.5429785818857145,0.14992631330857145,0.5101368539676191,5.640297040095239
2.087462737,1.2691379501238098,0.49606029331904766,0.2282092343000001,6.139292614047618
2.104254069,1.1355497496000002,0.7165712841666666,0.10970031635238103,6.306774635619048
2.121079977,1.1412937527428573,0.7146170408714285,0.08515923354285723,6.283248831809524
2.137872376,1.156638781209524,0.5486395798714285,0.03873688825714295,6.335512902714286
2.154695395,1.1035582224333336,0.30800210715714293,-0.20549996702380943,6.400543164619047
2.171500631,0.9711611157190477,0.08011996034761908,-0.6286037536904762,6.48348050547619
2.188308209,0.8164700099571431,-0.09653396125714282,-1.1165100734047617,6.5756082507619045
2.205124656,0.7039101691857145,-0.23484401901904758,-1.5325408323095238,6.656202554666666
2.221922457,0.6437809808142859,-0.3285117589523809,-1.8798609802619046,6.679730147571428
2.238737939,0.6098035403904764,-0.3948692381619048,-2.1844159081666668,6.665850019857143
2.255542707,0.5771556582000003,-0.4179290398476191,-2.4070402668333335,6.6402539001428575
2.272353184,0.4692601703904764,-0.2841460797333333,-2.5471587295476192,6.564662890047618
2.289160842,0.3152859097990478,-0.08875000268571429,-2.5477633931190473,6.44886756647619
2.305968103,0.18021365579904783,0.11289667155238096,-2.297651449942857,6.456109979285715
2.322775456,-0.026176906724761705,0.37377592702857143,-1.7935790108476188,6.568526129619047
2.339586269,-0.3632933752485712,0.7116052330761905,-1.3050183342761905,6.538672913428572
2.356394872,-0.6742100942485711,0.9580334956999998,-0.9409661634666667,6.31707053395238
2.373190242,-0.8640619913914284,1.0231374126047619,-0.6084119252761905,6.169855042809523
2.390004941,-0.9056648526771427,0.928829774252381,-0.3753394173238095,6.020487103571428
2.406822964,-0.7677479017390473,0.7301134545238095,-0.09712511024761904,5.791375253666667
2.423626655,-0.3182320594533331,0.4512138132857143,0.35455332475238094,5.480389759047619
2.440434334,0.43196639564190503,0.08650042971428568,0.5173296019428572,5.358749787238095
2.457244302,1.0872233481657143,-0.2568848806666667,0.12549566079523808,5.619366108571429
2.47405259,1.283837136737143,-0.4608809032333334,-0.5472315379666667,5.988315403095238
2.490858998,1.2499562671704763,-0.4429131114714286,-1.002759025252381,6.037906500714286
2.507669983,1.1855173110276194,-0.2703566770904762,-1.0990757204476194,5.906129048095238
2.524478078,1.196766762437143,-0.10107667032857147,-0.8855890376380954,5.705720963190476
2.541282908,1.3020622615847621,-0.01895027994761911,-0.46782708740000006,5.572462657428571
2.558089112,1.3903467313466666,-0.018005512280952447,0.18645266688571424,5.720458555333333
2.574902335,1.358612764346667,-0.02655872487619054,0.8067056394571429,5.964009378952381
2.591708976,1.3066757292038098,0.004604229638095175,1.3103489591714286,6.188530796619047
2.608517886,1.308959438584762,-0.031802825961904826,1.5094184364095238,6.214617670476191
2.625316206,1.3737225077133335,-0.1665204550285715,1.220328120885714,6.458618198619048
2.642129529,1.4104322931761906,-0.2944590321238096,0.2552116200761906,7.2763880051904755
2.658934177,1.2722546485238095,-0.4161181680114287,-0.15022973220952376,7.199426560380952
2.675746545,1.0721517289047622,-0.5428657421542857,-0.3704516376857142,6.950138046238095
2.692562077,0.9633961176666669,-0.6879984995352382,-0.5662035544476189,6.710347980952382
2.709367274,0.8060605638095242,-0.7884135931066667,-0.717088500652381,6.5772380748095225
2.726178035,0.6490637914238098,-0.7979644143447618,-0.9612893433666665,6.526602803904762
2.742977259,0.523039590609524,-0.7455937525638096,-1.1203560090809523,6.55306345747619
2.75979854,0.3883320035190478,-0.7588288475638096,-1.2064783232047618,6.505646339238095
2.776602566,0.052835055614285906,-0.8407770172114285,-1.229156346490476,6.385650432428571
2.793401445,-0.5368547440999999,-0.837940048992381,-0.8998419216333331,6.224538980666667
2.810217669,-1.019860858147619,-0.6388770459495239,-0.23435065853809509,5.8961004710000005
2.827024178,-1.0884361268238094,-0.4024692848638096,0.44316975274761916,5.505327096285714
2.84383446,-0.9256485077285712,-0.20860554527809527,0.9508547782714287,5.420922578047619
2.860641183,-0.6933313552523808,-0.0022612303019048058,1.235624330366667,5.459605996047618
2.877449177,-0.5669870831857141,0.24728457093619044,1.338690763414286,5.4885641958095235
2.89426008,-0.6007912500719046,0.43377096269809523,1.313519676509524,5.431725624809524
2.911066243,-0.6691254208338094,0.538382694407619,1.0741047007476192,5.197577127809524
2.927861481,-0.6073827971814284,0.5431989398695238,0.7762301478904764,4.894355365666667
2.944685598,-0.4891458921385713,0.4846178629742857,0.5503685644619049,4.654452456476191
2.96149172,-0.3091314634719047,0.39483324076476184,0.6159432899380953,4.744958115095238
2.978299948,-0.13250012636238082,0.3781677253361905,1.0218648910809525,4.643808345809523
2.995107566,0.002111684575714407,0.3576110483838095,1.965568133761905,3.927642902
3.011916659,0.24155460070428583,0.29507611898571423,2.1436324914380953,3.957799827428571
3.02872506,0.6206031525614287,0.1872780507,1.816580817819048,4.0807004597142855
3.045521121,1.0130852743709524,0.12284422056666668,1.3429106757714286,4.3961897783333335
3.062340457,1.346242495847143,0.06388223875714283,1.1220557689761907,4.650350036666667
3.079150018,1.5184227624709525,0.06271844956666664,1.0083698545000002,4.76626017547619
3.095958429,1.5357988901661905,0.1411632597095238,0.826996451309524,4.957425570904762
3.11274623,1.4048064548757142,0.3204735588190476,0.5492086239761907,5.312121225619047
3.129573379,1.2483243033042857,0.5658801155142857,0.22541093254761926,5.630493113904762
3.146387578,1.1571193648757143,0.7028295255333333,-0.008467770780952233,5.647658548380952
3.163192591,1.1068477856852381,0.6089205542523809,-0.015540355780952217,5.6647692653809525
3.180002225,1.026957670742381,0.4691260867857142,0.030647567266666852,5.756589206952381
3.19680684,0.9399936538900002,0.19707308772380946,-0.1661772104095236,5.788073513952381
3.21361048,0.8359391575090478,-0.15764393415714292,-0.5331389734571427,5.8988251239047615
3.230429767,0.7821889377090476,-0.4744621487285715,-0.989213483742857,6.08083411652381
3.247234841,0.7788464000561904,-0.6284499480619049,-1.4285764184095238,6.251311025095237
3.26404023,0.8083251997990478,-0.690572346961905,-1.835879172647619,6.311824772523809
3.280848977,0.7986154101609525,-0.6758690281285715,-2.1461795795999996,6.353295915571429
3.297659718,0.7460881641180954,-0.6236847330647619,-2.382720498838095,6.324839946857142
3.314464792,0.5765165146419049,-0.4639849382552382,-2.5530646017714282,6.1667754903333325
3.331273702,0.3899104253800002,-0.2963079899219048,-2.5526382696285714,6.049271749619048
3.348083567,0.274786858284762,-0.13400725563619056,-2.3983712083095234,6.072572468380952
3.364891877,0.09300086608476207,0.07509134460190468,-2.0373442287,6.225745497904763
3.381698009,-0.2270049141057141,0.3335752682209523,-1.4332697618904762,6.399381183904762
3.398505414,-0.5665758224347617,0.4836862793066665,-0.8238428547476189,6.2364008410952385
3.415319684,-0.775784174625238,0.5547967095447618,-0.4353093306523808,6.045271287619048
3.432130363,-0.8095241274347619,0.5104639554971427,-0.16982188679523805,5.8916763448095235
3.448931521,-0.6635352997919046,0.4036332109733332,0.1505257515476191,5.71038099652381
3.46574102,-0.22895000098238077,0.276317882735238,0.6020271096904762,5.595407965095238
3.482548099,0.5010515848271431,0.03897957963523799,0.7770392440238095,5.62893920052381
3.499345646,1.1957673344461908,-0.2805411095552382,0.19359128816190488,6.105632115333334
3.516151534,1.4714586393509526,-0.49948311026952397,-0.6285489284571428,6.482423420380952
3.532968958,1.4660884084938097,-0.575099515364762,-1.058332726838095,6.523454896285714
3.549782548,1.3295677729652384,-0.4934897894123811,-1.1557884554476192,6.475027684285713
3.566577866,1.217218262774762,-0.3604728625076192,-0.9559979663285715,6.3171687522380955
3.583397365,1.2134586969700003,-0.2655272614600001,-0.4914318604714285,6.143506774428571
3.600196286,1.2660267239328573,-0.2498570414123811,0.12352558567142861,6.147815387666666
3.617018398,1.2221378144757145,-0.2546379526742858,0.808353004195238,6.359723597
3.633823046,1.1473622548900002,-0.2518012824804763,1.3459136033857144,6.558919934238095
3.650627348,1.1157416843185717,-0.27355121320142867,1.6089899541952382,6.632723927809524
3.667446694,1.1730086916995242,-0.3933916563442858,1.3495582741285714,6.81715133252381
3.684246255,1.2132135572900002,-0.5113960181061906,0.33012114293809514,7.6353606154285725
3.701060404,1.138711883894762,-0.5938366246385716,0.05411549450952381,7.50506899
3.717862966,1.0385290100471432,-0.674947329162381,-0.11134619329999998,7.330182231571429
3.734684611,1.0070736521900003,-0.7789361923528573,-0.39696628096666664,7.035783308190477
3.751480774,0.945990085614286,-0.8305539736385715,-0.6752110147904762,6.854373918761905
3.768288839,0.8089829172333335,-0.8048475802576192,-0.8855018668380953,6.844227349904762
3.785086864,0.6362423896619049,-0.7237589805433334,-0.9640193719380952,6.891626955238096
3.801906068,0.4357301394238097,-0.6558044516385715,-1.0041673122571428,6.88428752004762
3.818714511,0.10718039109047643,-0.6641701452100001,-1.141539374585714,6.674476538714286
3.835522382,-0.4175315356714283,-0.6331053453576192,-0.986336395442857,6.282551092142858
3.852330722,-0.8838196935238094,-0.47644465230523825,-0.25287476572857137,5.654220645666666
3.869140303,-0.9617441494285711,-0.26146125716238106,0.5087750697476191,5.183703484285714
3.885948399,-0.8454051925238092,-0.0892048953052382,0.9676420746523811,5.135634727285715
3.90275271,-0.6817334492047616,0.09119902982333324,1.2795983213190476,5.1527154066190475
3.919568109,-0.5979322250904759,0.24213768545666656,1.4206367164380953,5.129494058619048
3.936376226,-0.6492870874857141,0.35314003133761895,1.3791771673904762,5.046720385428571
3.953182805,-0.7373780295190473,0.4695011498233332,1.2491777568666667,4.912275072
3.969988195,-0.7178789319952379,0.5235405231090475,0.9124455963904762,4.581349321047618
3.986798183,-0.6415518578285712,0.5134603448866666,0.657534605104762,4.316479435333333
4.003612413,-0.5332472437142854,0.43000099030571415,0.6540216549142858,4.315041484428571
4.020401589,-0.4097189448571426,0.3723645022580951,1.0492998135809526,4.280275905619048
4.037224047,-0.27417652942380927,0.34915860887714284,2.109168637247619,3.580270464
4.054029518,-0.0534600529809521,0.32004791643333325,2.261780398104762,3.711107497904762
4.070838387,0.2596769333047622,0.22340728415714275,2.0280376501523807,3.762921877142857
4.087632475,0.6164074852571432,0.11234588711999992,1.3691921004857142,4.122303573380952
4.104463886,0.979264123114286,0.008362131472380867,1.0452178430714283,4.435163194333334
4.121252684,1.211424010161905,-0.1173412147133334,0.9492855296904762,4.4947380434761905
4.138075022,1.3609567369714288,-0.21865511223714296,0.7897892677428571,4.529302276095239
4.15487971,1.3988637469952383,-0.2093411996180953,0.5315080708619048,4.684914965761905
4.171690257,1.348988941709524,-0.15484064814190487,0.2622401598571427,4.915839772476191
4.188498506,1.2570558502333335,-0.06918353546571437,0.0936396460476189,5.0474775610952385
4.205304455,1.1109564417523812,0.031060061339047526,0.06793789619047604,5.124992715809524
4.222114707,0.9242827324190481,0.09937542540571419,0.15033796838095223,5.228272066952381
4.238918378,0.800752412657143,0.06179978311999991,0.0362053824285713,5.138603991095238
4.255735893,0.7526104790328575,-0.12792948734190485,-0.2264162927714287,5.094041146619047
4.272537559,0.7441044307395241,-0.36961867830857154,-0.5477467265809525,5.226915279571428
4.289346216,0.7468269892585718,-0.5737730363323811,-0.9366714387714288,5.454954499333333
4.306157068,0.7427377473252383,-0.7427546395323811,-1.410536402819048,5.590259224380953
4.322962091,0.7414177031347623,-0.8211317331276191,-1.7283277284857144,5.6898317029523815
4.339770685,0.7212409291585719,-0.8407595142704765,-1.9385350886285713,5.700120388476191
4.35657928,0.6203801290919051,-0.7331439844919048,-2.1239377090380955,5.60316121652381
4.373393316,0.43600931618714317,-0.5586736534966668,-2.260447967671429,5.45592380752381
4.39019774,0.2656554721395241,-0.43284710738714294,-2.329925627957143,5.304416620285714
4.407004238,0.12962146028238125,-0.3319394666014287,-2.2290924163380956,5.283361138571428
4.423814226,-0.04439685462238067,-0.18885868713476198,-1.9029405003857145,5.3331207861904755
4.440621152,-0.31353232979857115,-0.0200820557642858,-1.1367140269571432,5.089375259761905
4.457432503,-0.605426334250952,0.17720122497857135,-0.6165728114333335,4.924233267238096
4.474237292,-0.7538575672509522,0.3328852533547618,-0.3196653297190478,4.899345445285714
4.4910461,-0.7845786412985711,0.3749924267357142,-0.02580097738571447,4.830282269142858
4.50785092,-0.6668020884652377,0.2839532175928571,0.26507558148095217,4.635509783904761
4.524665618,-0.35454350432238063,0.23509340564047612,0.6385897228619045,4.543145757761905
4.541470346,0.18556401834428599,0.18658602740238087,1.006423814052381,4.7942313644761905
4.558280254,0.7777703829633337,0.044574918545238026,0.8615422930857141,4.999585978095238
4.575079275,1.1305126234871432,-0.15729647090238105,0.3023548581333332,5.124124288809524
4.591894897,1.1637991041633338,-0.2903422067119048,-0.39986644486666684,5.560885076047619
4.608692089,1.0338581402304765,-0.26201873799761916,-0.7597149895714287,5.775329605380953
4.625516715,0.9227311269809528,-0.1503231532357144,-0.7655446757619048,5.714686495
4.642318046,0.8956957770809527,-0.050699132521428686,-0.5442645664761907,5.504604786857143
4.659126427,0.9511708077047623,-0.03350315847380965,-0.2107084139714287,5.299771405761905
4.67593969,1.0109142120904766,-0.07525383928333344,0.21916839036190464,5.321505700095238
4.692742007,1.0110838071857147,-0.07933975471190488,0.6255482830761904,5.506523189238095
4.709557621,0.9759548050428576,-0.10366627147142869,0.8940104868666665,5.687624456619048
4.726361628,0.9984127452809527,-0.22856729084761915,0.8942450453380951,5.719608603809524
4.743172307,1.0210956164190481,-0.41887141124285726,0.15019699481428556,6.339856696
4.759978928,0.9459116572000005,-0.562193879052381,-0.4212375824714287,6.5524181505714285
4.776787919,0.8182784716285718,-0.647716615857143,-0.6277754990428571,6.337416368952381
4.793595485,0.7222025280904766,-0.7337833898095241,-0.749440692947619,6.199324292238096
4.810399238,0.6694295974000003,-0.8678477633333335,-0.8739230521380952,6.024465616571429
4.827208554,0.6120887483904764,-0.9618623171428572,-1.057673766709524,5.920885351190476
4.844024451,0.5201785678000003,-0.9544207737619049,-1.2594824577095238,5.931627333952381
4.860827737,0.3976841881238099,-0.9186583161428572,-1.3878915595761905,5.962544125238095
4.877636575,0.14565336136190504,-0.963415327552381,-1.500420763604762,5.791634405857143
4.894448576,-0.3334893498761902,-1.009001743249048,-1.6630696798428573,5.455672745904762
4.911252887,-0.856256666638095,-0.946665220334762,-1.4646553200666668,5.226601126857143
4.928062225,-1.1106989724190472,-0.7513937325728572,-0.9259054890190475,5.0499657431904765
4.94487327,-1.044311069295238,-0.5463004112204762,-0.1456269195904762,4.658354778666667
4.961676951,-0.830860569342857,-0.39824049247761917,0.4503361270761905,4.4739109074285714
4.978486288,-0.6454711641523807,-0.2810694490157144,0.7552220367428572,4.398567999238096
4.995273876,-0.5533024015714284,-0.15481828933952393,0.8847417888380953,4.348356961095239
5.012105978,-0.5696727661671426,0.05467525694619037,0.9505387885238095,4.373506588666666
5.028903536,-0.6254303795766665,0.2573266668033332,0.8285703715714285,4.280747748380953
5.045718884,-0.6258683885766664,0.3455063800176189,0.6246039583333334,4.0983075807619045
5.062521995,-0.5342761221480951,0.33955156662714275,0.5097697632380953,3.9590404773809524
5.079337528,-0.418518861148095,0.32431979834142843,0.6745521965428571,4.057805384190476
5.096146295,-0.31783383233380935,0.35980079715095226,1.5491054909714286,3.617858874380952
5.112950422,-0.18226943697190454,0.3487696350080951,2.0812812589714285,3.4078621894285717
5.12976448,0.07487912402809545,0.2459205886223808,2.052896721057143,3.5370852144761904
5.146570175,0.4034069151709526,0.08679698057476178,1.810938341295238,3.6359300886190473
5.16338532,0.7407640275042859,0.015057508493809414,1.3495325418190478,4.0218481738095235
5.180186203,1.0500894273709525,-0.04280947356333345,1.1195686317714286,4.3060041830476194
5.19698371,1.2968424388185718,-0.08057187703952393,1.014619725104762,4.443937566714286
5.213801367,1.4098521186852384,-0.04581156651571441,0.8986303579619046,4.570195199904762
5.230613309,1.4187797137519051,0.09007624646523797,0.6422386794190474,4.832990197904762
5.247427385,1.3666253543709526,0.25003489854285704,0.3477415414190476,5.001670421333333
5.264229052,1.26813872651381,0.35553196500952366,0.08674926418095233,5.057500427333333
5.281035348,1.0430350303423812,0.40947424091428564,-0.0016746918190476954,5.127692784428571
5.297843677,0.8252533730661908,0.3582605450380951,0.00799924418095232,5.204108498761904
5.3146528,0.6614841279233336,0.2524158827238094,-0.13552574320000008,5.145678358666666
5.331460651,0.5739326022757145,0.04885050659523798,-0.3273419142285715,5.222746798904761
5.348269337,0.5611780711423813,-0.24551640517619058,-0.5611059211809524,5.461049657333334
5.365077352,0.5772642862095241,-0.5634393947000002,-0.8926493554190478,5.632645422619047
5.381885803,0.5933127630190478,-0.7799681963666668,-1.1983377933714288,5.718943875380952
5.398694754,0.615675676414286,-0.8759697845428572,-1.439481655752381,5.744797271761905
5.415503734,0.5847992442714288,-0.869744051009524,-1.6445430573714286,5.710534928523809
5.432309947,0.46292184646190504,-0.7799883030333334,-1.858964443204762,5.575774185857143
5.44912901,0.28707025160476213,-0.6603036905519049,-2.0542871384190478,5.385747134809524
5.465928631,0.12339721402857168,-0.5480583891566668,-2.1440808432380956,5.247711519428571
5.482743136,-0.0464513188714283,-0.41904023568047627,-2.1045325483714286,5.129691462428571
5.499543084,-0.23253002625238064,-0.2354671940614287,-1.8334475358476194,5.070146281666666
5.516353407,-0.4954997698809521,-0.10366600040904773,-1.1404639539428574,4.899988595666667
5.533160282,-0.7648734365690475,0.06872799140999993,-0.5604039260380953,4.8506472121428565
5.54995906,-0.9481816292452379,0.18673177983857134,-0.1623332273714286,4.821087349619047
5.566776434,-0.9728790692452378,0.18450776593380946,0.1711436566285714,4.729366327999999
5.583588547,-0.8433263870261901,0.10175029864809518,0.5313523042476189,4.552322637380952
5.600395229,-0.5726075173119044,0.022127099029047543,0.799278906390476,4.419273765333333
5.617200567,-0.14028045112142828,0.042848733267142766,1.1074614978666666,4.492836740238095
5.63401205,0.5068451563071431,-0.024948865833333424,0.9514717487714284,4.566422258047619
5.650818408,0.9196570714023813,-0.13124680726190485,0.506089971152381,4.638531142714286
5.667626381,1.0356016385738098,-0.2224061736904763,0.049926383152380946,4.89007520352381
5.684434567,1.0197878564690481,-0.16737217202380963,-0.2209766705809524,5.006126280095238
5.701243294,0.9920702207236717,-0.034698431642857255,-0.1581672202952381,4.8584886142380945
5.718053242,0.9231883230236717,0.05696011516666655,0.04033019431904759,4.6856525094285715
5.734861764,0.8513498078570052,0.08104459802380941,0.31866483465238093,4.603204233428571
5.751664397,0.7919617379855766,0.059938999199999884,0.6872654301761905,4.704957040666666
5.768480143,0.7308877989855765,0.02178321075238084,1.1708304541285715,5.033788397666667
5.785286418,0.6625346001760528,-0.0004670640809524972,1.5892026992,5.35567977
5.802092905,0.6545584542236719,-0.09384256099095249,1.663607767652381,5.431803205952381
5.818900626,0.6622151874189098,-0.2718050940528573,1.2119816030904762,5.808803211380952
5.835711234,0.651194163714148,-0.42799202100523825,0.5318092165666666,6.319337085952381
5.852517864,0.587833994914148,-0.5784097178623812,0.2503077530904762,6.196472307857143
5.869327069,0.5498898824074813,-0.7334139750909525,-0.007888623547619053,5.904198319828571
5.886134534,0.5328060331812908,-0.8999002780909523,-0.2846471126952381,5.594647124804762
5.902942142,0.4704154332479574,-1.0528928501861907,-0.4827633243476191,5.384434832280952
5.919752466,0.3408941541527194,-1.1521488774957145,-0.601557947204762,5.280141854233333
5.936560022,0.1759534336765289,-1.2478562968766669,-0.6907505079666667,5.206469419328572
5.953367995,-0.0056250208472806125,-1.3642323903480953,-0.7785424503761905,5.108924314852381
5.970165991,-0.2552652585853758,-1.500239639719524,-0.975979555095238,4.8243739606047615
5.9869808,-0.6547341800663282,-1.4865914582761905,-0.9059255121904761,4.5057103920333335
6.00378859,-0.9191349347282328,-1.2718128646904763,-0.5728248526666666,4.262318103747619
6.020599392,-1.0119589169472807,-0.9949559852809523,-0.0065641742380952465,4.030236596271428
6.037400621,-0.9637078557329948,-0.7932359859809524,0.5514811221904762,3.9112655793190476
6.05420838,-0.909011772673333,-0.6916824096476192,0.8638204564285714,3.964939022509524
6.071022326,-0.7969307899114282,-0.649742140647619,1.0676632269095239,4.025997976271428
6.087835874,-0.6561360358590472,-0.6624324293142857,1.1793867407190475,4.085612250319048
6.104642332,-0.5651670182923807,-0.6502910483142857,1.1512647471,4.034071180652381
6.121449339,-0.4773227600352377,-0.6051443829333334,0.8873602891,3.7527353527476186
6.13826128,-0.39007645556857107,-0.5718102852238095,0.645581869957143,3.493574726080952
6.155069762,-0.2919780412923806,-0.5418006522238096,0.7370278495761906,3.5325904967000006
6.171880635,-0.1589753059590473,-0.4837862139380953,1.3185787882904763,3.3122538384619054
6.188682811,-0.04524464830666633,-0.4052298253190476,2.0018558445285715,2.8600245227
6.205491435,0.14200576149333366,-0.38976107179999997,2.105159447304762,2.9588415147476193
6.222300375,0.352888992866667,-0.44788749866666666,1.9142139128476192,3.1906613571571425
6.239111656,0.5823347227809528,-0.5253648487857143,1.6134028945666665,3.5121078068000005
6.255918204,0.868525754819048,-0.6045746022333334,1.4360893056476192,3.756589047085714
6.272724571,1.1166066442000004,-0.6332621872009524,1.2700938781238096,3.9318562815619047
6.289535108,1.264451344771429,-0.5589165900104762,1.0724404369333331,4.079807729180952
6.306330061,1.317583901504286,-0.4046960884438095,0.8556034167714286,4.281382642609524
6.323153445,1.2538041386709526,-0.2560436625961905,0.5653732106809525,4.564040041619047
6.339958246,1.1001059894852385,-0.15410107227238096,0.3016781069190477,4.787023945952381
6.356767429,0.9290268760995242,-0.054688778619999996,0.2810230879666667,4.927167553666667
6.373576553,0.8188219523376196,0.009559280875238094,0.2877562556809524,5.001929818047619
6.390385585,0.7313885914471433,-0.05004781618666667,0.2530036143,4.9831392447619045
6.407191839,0.6643008730376194,-0.18067568671047618,0.08112729734761907,4.940407004428572
6.4240003,0.6072752814947623,-0.3404340160914286,-0.2325743209380952,5.018371214523809
6.44080794,0.5476101465185719,-0.45134370513904765,-0.6683392013190476,5.134524257428571
6.457604509,0.5085517563804766,-0.5318467829009524,-1.0928392580333333,5.196875381619047
6.474432676,0.48662558040904796,-0.5802734180914286,-1.3701439527952382,5.206016441666667
6.491224618,0.45463439379952414,-0.6052116679628572,-1.5708976756523811,5.171352576238095
6.508041441,0.33842218471380986,-0.5905097792961905,-1.7698863290285711,5.0997036650476195
6.524849811,0.1286765732376194,-0.5262715035152381,-1.9430349156452382,4.9872608450476195
6.541657275,-0.07760533852428536,-0.49446857676761913,-2.0268885407519046,4.898396139333333
6.558452534,-0.25740623493380915,-0.43888251120095234,-2.04607051889,4.727652216961904
6.575275258,-0.3572406770766663,-0.28181254996285715,-1.8139383792709523,4.617874103914286
6.592080251,-0.47612916874333294,-0.0974480466057143,-1.2370343094614284,4.588234261390475
6.608891205,-0.7053379787242854,0.16676908031809526,-0.7394206410328572,4.665927001771429
6.62570456,-0.8700545176576188,0.4005403534047619,-0.394160406937619,4.705094762342857
6.642507091,-0.8677435831338091,0.44534937692857135,-0.016670613080476168,4.700306779533333
6.659316419,-0.7686772121047615,0.36653490447142856,0.3609217234909525,4.604978507533334
6.676134757,-0.5184060733904758,0.288722136295238,0.7306471211576191,4.472273046819048
6.692932081,-0.023257914152380585,0.24483059286666664,1.0907569272052382,4.552242112438095
6.709737603,0.6852476935619051,0.0826161235333333,0.9535596938147619,4.798874322342857
6.726553155,1.1844835733714287,-0.23057140756190478,0.4715572084814285,4.99579435067619
6.743358768,1.2818514050285716,-0.4862679654190477,-0.4523363566138096,5.541679196152381
6.760168645,1.235825493057143,-0.4874638616571429,-0.8160048665185714,5.720486368866666
6.77697318,1.1384585015523814,-0.3572745337047619,-0.7361145926614286,5.601474426628572
6.793784113,1.0500822065714288,-0.28598102075238097,-0.4051380383757143,5.4676331766285715
6.810588711,1.0313591501428574,-0.2788104798,-0.020690327518571493,5.414040814533333
6.82740652,1.0428539001904764,-0.2801688128952381,0.42932235633857135,5.581741813057143
6.84420367,1.0548657460952386,-0.27188024208095235,0.9362954526242856,5.920132689771428
6.861018124,1.041707833476191,-0.21605201772857144,1.4035096850480953,6.258815529580953
6.877824205,1.0286645660952385,-0.1995427956,1.6220191774742858,6.396996257295239
6.894632026,1.0535025368476194,-0.24793110786190478,1.575262972390476,6.40368963667619
6.911450172,1.0167165936809528,-0.3380612298047619,0.7005045927523808,7.25661938152381
6.92825418,0.8795625140809527,-0.48326023351904757,0.34486860918095236,7.386038379666667
6.945073637,0.7308300108428574,-0.6687241218428571,0.15002992637142856,7.1645470946190475
6.961859944,0.6510911214428574,-0.9182365402285714,-0.1059817753904762,6.861654798952382
6.978666443,0.5676070167571432,-1.1211824368047618,-0.3085970024142857,6.653863291380953
6.995482493,0.4185419082333337,-1.188031912595238,-0.5219687050190477,6.530154733047619
7.012291087,0.2596382413285718,-1.1726108229,-0.7040473957666666,6.452344399952381
7.029097657,0.0867823645809527,-1.1531387858666666,-0.8549617923380952,6.355346616380953
7.04590855,-0.19136242645238064,-1.1720395436285713,-1.0688875456714286,6.075830635380952
7.062712373,-0.6556885582761901,-1.1243995747761906,-1.0511263095238097,5.624775875904762
7.07952639,-0.9674114045142853,-0.8776719520714286,-0.7033405982380954,5.224569394095238
7.096316429,-1.01264186127619,-0.5339726273523809,0.1772115572380952,4.6237377409523805
7.113142336,-0.9954038346999997,-0.3277301994333333,0.8086271514285714,4.573952140523809
7.12995261,-0.9074997447190473,-0.19727290742380954,1.2179359596190475,4.763303984809523
7.146756809,-0.8150889986619044,-0.09947289668095241,1.3842510838095237,4.817162555714286
7.163564375,-0.7791297094571425,-0.03311532949047623,1.389693635047619,4.780423106619048
7.180377945,-0.7363591874666664,0.009085038576190432,1.2259374348095238,4.60829499152381
7.197184361,-0.6605482554714283,0.10721166573333327,0.9508225692857143,4.33977322495238
7.213988673,-0.5399192400714282,0.1512150338571428,0.6274426439523809,4.015465449428571
7.230797471,-0.36331453773809497,0.15539165478571423,0.49380060623809524,3.8727079374285713
7.247612107,-0.15434746510952352,0.08833139139523807,0.670183494142857,4.026966957523809
7.264404883,0.06647423341904793,0.032675577061904736,1.6415746211904758,3.3952096313333326
7.281222135,0.3183772678285718,-0.00708550070000004,1.9583905197095235,3.3515831279047616
7.298030179,0.5553740547809527,-0.07450521699523814,1.8493458373142855,3.4524985361904763
7.314840991,0.804439908066667,-0.15096678051428575,1.5880570922666668,3.660601766619047
7.331649838,1.0658986682571432,-0.2064869176666667,1.4023990688142856,3.8707288402380957
7.348454944,1.2954108829238098,-0.21244669243333336,1.2808872177523807,3.9994075401428573
7.365264271,1.4440163204000005,-0.23189678647142864,1.1530191330714283,4.100196575666667
7.382078531,1.4296253295523813,-0.20874823842380957,0.964044559595238,4.277889551904762
7.398881623,1.237149374871429,-0.16541171642380958,0.6768998362142855,4.574628530428571
7.415687785,0.9745928446952383,-0.13385878860952385,0.5270843733142856,4.806485471904762
7.432479829,0.7329357011714289,-0.12278311312380956,0.5400579429809523,4.968430339809523
7.449306713,0.5939913023714288,-0.12517340980952388,0.5701172578857141,5.050205911476191
7.46611899,0.5574626468904765,-0.18212642843333338,0.3677913006952379,4.8730650607142865
7.482920991,0.5724345616357146,-0.33132236491904765,-0.09785958701904773,4.697272844952382
7.499731987,0.6189763205833336,-0.47502599023333336,-0.5797959055904763,4.7499165780000006
7.516537905,0.6719612394500003,-0.5786287856142858,-0.9668293227333334,4.850195225857142
7.533350833,0.6799796876904766,-0.6588699279190477,-1.2900296507333333,4.893546667523809
7.550155928,0.6491501218238098,-0.7854849981095239,-1.6113828705428572,4.881235985333333
7.566967757,0.583745865661905,-0.9076455520142857,-1.8336530641142859,4.898476494047619
7.583769485,0.4380793118047622,-0.9764760761857144,-1.9645476001619047,4.919156433238095
7.60058046,0.156765642661905,-0.883923408604762,-2.0599738644190473,4.809259036428572
7.617393448,-0.12217832743333307,-0.7323642828095238,-2.0872618641809524,4.653845491238095
7.634197953,-0.32810831068095214,-0.5824551611904762,-2.0414075227476194,4.509875467095238
7.651005601,-0.38962902339523786,-0.36813604557142865,-1.8860278697809527,4.508483610285715
7.667812975,-0.47368882949047597,-0.09239240780952386,-1.3373221783999998,4.614968709238095
7.684621914,-0.6642611139961903,0.17315858591904756,-0.8251143751619049,4.703967513047619
7.701434293,-0.8226554734152378,0.3250412315238095,-0.5347775618761906,4.710496382619048
7.718220539,-0.850283872462857,0.40669652099047615,-0.26502350401904773,4.67983182152381
7.735045673,-0.6939202489628569,0.3753214817999999,0.03914409588571422,4.5612935784761905
7.751854805,-0.2932731763914283,0.3582868319428571,0.5593646821238094,4.4958387013809515
7.768665506,0.41011762608476215,0.2945084528285714,0.8337357611714286,4.698244857
7.785474537,1.2188787457990478,0.08538486978095235,0.5327160017904762,5.101744244714286
7.80227776,1.6433223086561906,-0.23950333972857146,-0.31436359335238107,5.60431026
7.819089529,1.6866406257276192,-0.39969978597619055,-0.8989614761142858,5.972035784333333
7.835888266,1.5268279936680953,-0.38724448150000007,-0.9253062409238098,6.038302082571428
7.852692607,1.308547678282381,-0.314744922452381,-0.6755623365190478,5.957512957142857
7.869512442,1.1909252800680956,-0.2214841573571429,-0.25055887604285737,5.914827669476191
7.886322033,1.1827749068800002,-0.15493044260952388,0.2966110590999998,6.095558025857143
7.90313017,1.1234367913704764,-0.1239815425476191,0.995619115290476,6.479569386571429
7.919930423,1.0120150473228573,-0.09003430182857149,1.5425091016238095,6.805735787238095
7.936745934,0.9770379291800001,-0.06833138782857148,1.7822749046238096,6.913712596238095
7.953542453,1.0619840620466667,-0.14910023417142862,1.2615360306428571,7.292048786476191
7.970362431,1.1287990750085717,-0.2720542678238096,0.2933701562142855,8.105479577857142
7.987174352,1.128224872246667,-0.35446893461428575,0.21349821785428547,8.037665245133335
8.0039785,1.0100559051128573,-0.40689386504285724,0.28982470161619023,8.045592157752381
8.020786952,0.8680141537890478,-0.5474276301809524,-0.08570421296952409,7.715893612561905
8.037593715,0.7711302437233336,-0.7705086242904764,-0.5038500965885717,7.491727220371427
8.054402136,0.6611669174757144,-0.9318180311380954,-0.7104541232076192,7.400911791752381
8.071207882,0.5329394565233336,-0.9829812958523811,-0.8476319538790478,7.340547514419048
8.088025601,0.416541280951905,-0.9798865261857143,-0.9600190036409527,7.276019832800001
8.104830502,0.21555891466619073,-1.0661732526238095,-1.1720828441123812,7.0224866766571425
8.12163814,-0.230028016295714,-1.0923127603142857,-1.2186400662076193,6.599024181514285
8.138449156,-0.828844433700476,-0.9481714297285715,-0.8469096704933337,6.107764953895237
8.155255461,-1.1494067055576187,-0.6566985973595239,0.007505791887618811,5.562360667657143
8.172061888,-1.1872050421528568,-0.4161089077071428,0.6831731459352378,5.273924435847619
8.18886972,-1.119310674200476,-0.2605619075833333,1.0854187356019045,5.30960574932381
8.205683533,-0.9285877318633331,-0.10532549309285717,1.3050056870066664,5.32391733027619
8.222486328,-0.7881694748109522,0.004391682978571404,1.2634980341971427,5.258649059085714
8.239295869,-0.7652697562966664,0.07554547983571427,1.0408599607685711,5.039703118276191
8.256104015,-0.7138519059871425,0.15690223801190473,0.6521543664828569,4.655156359752381
8.272911612,-0.6023306619395237,0.23711245825952376,0.38169531624476166,4.36656640984762
8.289720451,-0.5390856152728569,0.27590139281666665,0.3492316294352379,4.304248042990476
8.306527539,-0.49672272094428543,0.2682683255309523,0.9614374752447616,3.9624004322285717
8.32333658,-0.38017136714428545,0.21703675391190475,1.9385215669114286,3.244164418228572
8.340133385,-0.19670236684904738,0.1301196203690476,2.005578273890476,3.451714731952381
8.356953648,0.10195554999904785,-0.01035245110714289,1.8245716833857137,3.547808052047619
8.373761122,0.5201195761800003,-0.12557667630238098,1.6751350733047619,3.9033689881904765
8.390569717,1.052283695751429,-0.20625707357380957,1.4911742949238094,4.285416755190476
8.407368902,1.4944210052752385,-0.21241438097380955,1.3228379943047617,4.553691063380952
8.424191178,1.7387621743228574,-0.17673895749761911,1.0697776307380948,4.805009533095238
8.440978613,1.747362908851429,-0.058926698640476234,0.816910902738095,5.0801379713333334
8.45779916,1.567301000851429,0.1115292339880952,0.4946101450666665,5.426011712142857
8.474619523,1.2971136229085718,0.262304575745238,0.18141350868571404,5.729142081142857
8.491434698,1.0237280300276193,0.4154184205880952,-0.10198309869523832,5.9171421963809525
8.508225889,0.8313408578847623,0.5258389428380952,-0.07964259664761925,6.057917224571428
8.525040402,0.8217826343609526,0.43269627161428564,0.06524943744761884,6.198780007380952
8.541842049,0.9279061044752385,0.17750253291904763,-0.10519287121904783,6.161009647857143
8.558651529,0.9527751604523813,-0.1376972963809524,-0.49398330840952404,6.2417594878095235
8.575464679,0.9199300266285717,-0.40069656988095237,-0.965919761361905,6.455994115619048
8.592266021,0.90424135751381,-0.5548393072952381,-1.4349906841238098,6.632331150809524
8.60908253,0.8935885202185718,-0.6755310268190475,-1.8425708327428574,6.729624881857143
8.625885284,0.8550848960757146,-0.780498013547619,-2.14138968212381,6.7224491330000005
8.642693624,0.7855760029328575,-0.7977135493,-2.3063018491714287,6.684691110190476
8.659503307,0.6487869989280955,-0.6724619268904762,-2.398976763057143,6.658847870999999
8.676292838,0.4635280881661908,-0.463518491747619,-2.4089231774380955,6.579617407571429
8.693118583,0.2945638384423813,-0.2857721560809524,-2.4502484911476197,6.414641723333333
8.709928897,0.09359164468047657,-0.08983061708095236,-2.4094054244523813,6.264845755761906
8.726736463,-0.18380019774809486,0.14626418696666668,-2.0158620561666667,6.122956885333333
8.743544925,-0.5544849577004759,0.4778335406809524,-1.5026233082619052,5.928863270809524
8.760350996,-0.8273574284147616,0.7751554108809524,-1.1191635358809526,5.874073225761905
8.777159418,-0.8660943167480949,0.8699126839761905,-0.6403940632142858,5.822393439142857
8.79397206,-0.6906372251814283,0.7690566693095239,-0.23325547716666692,5.6926466966666665
8.81077685,-0.3277671223719044,0.6354142058428571,0.20606931049999974,5.532930376666667
8.827581742,0.23673677443761937,0.49246438344285715,0.5260890665476188,5.498100869619048
8.844400243,0.9524059068661909,0.24817095482380952,0.5498696395476188,5.610966587714286
8.861199419,1.4785880815328574,-0.09370803836666668,0.042286407404761646,5.714510517
8.878012631,1.5043327694852384,-0.3204745111761905,-0.6884846573571431,5.824501327857143
8.894806026,1.3009453955138097,-0.2893485569857144,-1.020418201166667,5.942338732809524
8.911626481,1.0852817353900004,-0.11120434041428578,-0.9428552899761906,5.851825326904762
8.928415393,0.9751567386376194,0.07593598814761898,-0.6152979532666668,5.576379750809524
8.945241514,1.0035309110285717,0.16826984425238087,-0.1677980422666669,5.378499073095238
8.962042407,1.1449306351571433,0.2229225550095237,0.37033190049523795,5.418453180333334
8.978860656,1.2300075803228574,0.2817861479899999,0.9558674494952379,5.700127331428571
8.995670683,1.2226498013228575,0.33569825116619034,1.3344150498285712,5.9654929645238095
9.012474741,1.1441224869895241,0.3055209655376189,1.4274005095714284,6.0720333437619045
9.029285461,1.063704944751429,0.15948732082333322,1.1591994535714283,6.229742010952381
9.046092153,0.9529543376657147,-0.08662288574809532,0.42867507280476164,6.885550151619047
9.062902273,0.8229992275609528,-0.34205488974809534,0.22011853428095213,6.920126908857143
9.079704469,0.7356586909704765,-0.5744247497480954,0.13886862737619024,6.7816753202380955
9.096505291,0.7141048793847622,-0.81957534281,-0.0311230588571431,6.499793907285714
9.113327333,0.6413098743371431,-1.0523581551433334,-0.22975579871428597,6.254006848571428
9.130137006,0.4047860417657146,-1.1344956490004763,-0.42443113075714306,6.103425710428571
9.146941989,0.09553221290857174,-1.0956531582861906,-0.5332160220523813,6.033110409809524
9.163751946,-0.21492497128190444,-1.0382418225338097,-0.6883562062428574,5.914599968142857
9.180558638,-0.5751831645152377,-0.9962650215480954,-0.8185479751476192,5.659479839809523
9.197368667,-0.9900751795247617,-0.8952521558242859,-0.7652414920523811,5.259741643904762
9.214176294,-1.246269475862857,-0.6569518323338096,-0.4660487285619051,4.835573230185714
9.230982743,-1.1893235161423807,-0.3559792741100001,0.05048520253333307,4.500965018804762
9.247792873,-1.062938758332857,-0.13864604244333337,0.5532890277238093,4.412778261233334
9.264604823,-0.9474416006661902,-0.014065082981428617,1.0714365871047615,4.633118605328572
9.281394384,-0.8812116441566663,0.012373461209047577,1.401033946728571,4.871533493995238
9.298224138,-0.8890553883423806,0.00025787483761900774,1.396523430490476,4.868503135328571
9.315019793,-0.9175198419138091,-0.0008210345147619429,1.2476342521571429,4.720727852852382
9.331831967,-0.8215916497938093,0.008652262342857105,1.0004110338714283,4.493507831757143
9.348646696,-0.6629318737271426,-0.046891852904761944,0.7351749286333331,4.2108477659000005
9.365452838,-0.4831163088842854,-0.09069959892380956,0.6934505362999998,4.0695791222809525
9.382252765,-0.32292136693857115,-0.0940221661619048,1.0199676413952379,3.9417199124714286
9.399067372,-0.18358578003380924,-0.02115423906666671,1.8492658422047614,3.389541511519047
9.415865528,-0.048219340214761625,0.029881590885714245,2.0721642573476187,3.3560424999000005
9.432682261,0.1122242382328574,0.0153705165523809,1.9652782110761902,3.403001872519048
9.449492717,0.3402170680566669,-0.09834270390952386,1.7749838544999996,3.6676384368523807
9.466298971,0.7262088003423812,-0.2759993374333334,1.5391898325476185,4.038819752233333
9.483111562,1.153998420342381,-0.4318445935095238,1.3195132584952378,4.285195134804762
9.49991376,1.469044685342381,-0.5015182622571428,1.1583101692666662,4.397559955280952
9.516725466,1.6203584670566666,-0.5074708248285715,0.9773177135523806,4.541332096233333
9.533530001,1.6105362573804767,-0.4276257653190476,0.6261696985523805,4.89801743337619
9.550350569,1.4477426664852384,-0.28196710199523817,0.28107683998095195,5.289189083185714
9.567149804,1.166981901394762,-0.04485099224761912,0.1223764476333329,5.637274030047619
9.583957441,0.9303115889600002,0.06887959162380945,0.24584347291904718,5.875981996428571
9.60076685,0.8440754753885716,0.03054877766190469,0.3214747281095234,5.973764565714286
9.617575271,0.8801479339314288,-0.23297647841904767,0.01397813501428529,5.8001797568095235
9.634390742,0.903150830921905,-0.5551320349333334,-0.4537652390333337,5.807711284095238
9.651190324,0.8731918788790478,-0.7695725964285716,-0.8250472034619052,6.022406800047619
9.667998195,0.7868259974790478,-0.8791296517380952,-1.1990850368904769,6.1340161857619036
9.684808915,0.658957231621905,-0.9378528005761905,-1.5922470149380956,6.106329353952382
9.701616583,0.5675914855076192,-0.960028118309524,-1.8216421093190478,6.143913527809524
9.718426796,0.498961221569524,-0.9712088597857145,-1.969675586366667,6.1769148397619045
9.735232744,0.36983160743333354,-0.8964745260619049,-2.089267072248096,6.156647874666667
9.752041206,0.21956053233809547,-0.7375847839190477,-2.231040046338572,6.083810975380953
9.768836252,0.11865188961428595,-0.5651477688714287,-2.2867217858528575,6.000546259238095
9.785656442,0.05915046870952406,-0.3627267224428572,-2.155563036581429,6.032312823047619
9.802452351,-0.07899266200476165,-0.1299183993000001,-1.7330117792957147,6.037890085142857
9.819277649,-0.331200236385714,0.15458020146190465,-1.2766635758195242,5.836235624714286
9.836080953,-0.5767321360047616,0.4500095674428571,-0.9859808399623814,5.71254160352381
9.852889415,-0.6597454434809521,0.5878463472857142,-0.6164203712004765,5.730870813047619
9.86969983,-0.5826464607666664,0.5680421931428571,-0.20893279715285754,5.678881690428572
9.88650761,-0.3664403189047616,0.47354158615142844,0.3009717804661901,5.4368841761904765
9.903302197,0.06510146457142886,0.33206846955095226,0.8071137609423806,5.292906951523809
9.920121431,0.7475862730000002,-0.00020742059190487482,1.019959279418571,5.352913109952381
9.936935631,1.262471993761905,-0.35321305687761917,0.6140113784661901,5.356707875047619
9.953728661,1.4152165367333336,-0.5692577063442857,-0.09802307405761945,5.426673739238095
9.970550388,1.276398340857143,-0.5188900444871429,-0.619166964629048,5.618533663190476
9.98735589,1.0355816341666668,-0.31314063496333344,-0.7336178280576194,5.6327652016666665
10.0041663,0.8079646201333336,-0.12434111177285721,-0.5869090671052385,5.546092375095237
10.0209754,0.7120307513428573,-0.02772207623952388,-0.31814114256714326,5.395987894904762
10.03777734,0.7925223395714288,0.01235060043666659,0.2465025129090473,5.578086971047619
10.05459202,0.9186107771904763,0.06477982947142849,0.9505514871947616,6.011431927809523
10.0714003,0.9785289083571432,0.10504482906190467,1.4318156356709522,6.29628893657143
10.08820315,1.0284617287857145,0.06546820990952372,1.604725133885714,6.364365663333333
10.10501653,1.0632598740714287,-0.07838216775714295,1.2523324604047616,6.642707894190476
10.12182246,1.0365725244809527,-0.2665501144714287,0.39678875615714254,7.389897956476189
10.13863003,0.8822079840380953,-0.42528471706666676,0.18673099801428536,7.24768966847619
10.1554419,0.7137662569904764,-0.5437594248000002,0.01092373768095198,7.017197949714285
10.17224657,0.5839048794380954,-0.6829289020857143,-0.12267137699047659,6.803238904904762
10.1890579,0.4604301225714287,-0.8490288534666668,-0.1760501746809528,6.6264213185714285
10.20586598,0.26674086709523825,-0.9173544411333335,-0.29867660415714326,6.48785496804762
10.2226773,0.03521794366666681,-0.8596300504190478,-0.4367348464857147,6.401967678285716
10.23947982,-0.21186567485714272,-0.7607105367609525,-0.5464057012238099,6.331630363761905
10.25628978,-0.5606510298571428,-0.6613667777795239,-0.667958049371429,6.145563074809523
10.27309884,-1.0564779327142855,-0.5358210461795239,-0.7030122959666671,5.793356762142857
10.28989315,-1.3957694598571426,-0.3186338019333334,-0.4765108878714289,5.5126137998095235
10.3067128,-1.4564118385428568,-0.09627731647619055,0.14160819298571387,5.32447581952381
10.32352328,-1.2285589263999999,0.040810039999999936,0.8828122958428567,5.218747537142857
10.34033192,-0.8237106005904761,0.048811878428571355,1.3867475874619044,5.179342413380953
10.35712048,-0.44919122973333314,-0.017663246142857202,1.671328817271428,5.182870320476191
10.37394388,-0.29140104568571407,0.004802201442857072,1.754081771685714,5.189878839904762
10.3907679,-0.3581904456952379,0.13007353595714277,1.4471414375428568,4.943535325428572
10.4075608,-0.49943942117142837,0.20019432330333325,0.9309146235428568,4.4860520212857145
10.4243748,-0.557462306242857,0.23741686765571424,0.5521170498238092,4.170559907476191
10.44118111,-0.4841112636166664,0.20379852532238085,0.4975418109190472,4.120757768619048
10.4579871,-0.3277264776642855,0.1328507193223809,0.987116220585714,3.966213596095238
10.47479751,-0.1801690828261903,0.08026694541761897,1.8920111231571424,3.356741484238095
10.49160546,0.05384106861666688,0.017535756012857073,2.047823318490476,3.5135190979999997
10.50840125,0.3560867990452383,-0.04484093333000007,2.1113814428238094,3.725605118761904
10.52522704,0.7035460017880955,-0.10653608650142864,2.1552807064952377,4.0017152303809524
10.54202664,1.0768960089880955,-0.18962320582523817,2.152597861695238,4.233265924095238
10.5588374,1.3646949813214289,-0.2219187848252382,1.8455704422666661,4.410232794857143
10.57564714,1.4597131864976194,-0.13386492258714297,1.1593063246904758,4.972766012619048
10.59245721,1.4009357406880956,-0.1337214059204763,0.7259824645238092,5.333792448142857
10.60927276,1.2784426779738098,-0.245143436634762,0.5191634921952377,5.5073296833333325
10.62607117,1.0940697760690479,-0.3380165983776192,0.5380327730285711,5.684096296571428
10.64287881,0.9838814734976192,-0.4313068237666668,0.794723910980952,5.971911562809524
10.65968794,0.9329706373547622,-0.6950930105571429,0.7480281563619045,6.07158879
10.67649471,0.8539317903166668,-0.9132003475571431,0.36272669126666635,5.9821636169523815
10.69330411,0.7437485286261907,-0.7837254522095239,-0.04400446011428604,5.799012682238096
10.7101137,0.6278583435928574,-0.6802443638571429,-0.48417701887619086,5.786789180714286
10.72692259,0.5793209984279526,-0.7687913552142858,-0.9154619234000003,5.992082651761905
10.74373764,0.5438607761136669,-1.0039430207380955,-1.18860732092381,6.102384557095239
10.76053709,0.49350161778033347,-1.1765454131190478,-1.3428882445904766,6.166122909380952
10.77733271,0.4195550509708098,-1.2607308047761907,-1.37048923972381,6.24543521052381
10.7941549,0.2702867643922383,-1.1805622793776192,-1.389593027914286,6.281399394285715
10.81096102,0.11846871601128596,-1.0015007899538095,-1.3928423893428576,6.183429283142857
10.8277712,-0.027223791407761645,-0.7978459954919048,-1.4198242482952383,6.031771495380952
10.84456723,-0.1281684012649045,-0.6164527240633335,-1.4334302629619051,5.940871678190477
10.86139492,-0.2458848271696664,-0.39723609917761915,-1.3172175202952385,5.986724107190477
10.87818542,-0.4145932197410949,-0.12297358253000011,-0.863471088009524,6.258366233666668
10.89500489,-0.6319011279315712,0.07642267436523797,-0.6375165099952382,6.258182108190477
10.91179908,-0.8332525661791902,0.10971292431761892,-0.3206115223761907,6.069202603047619
10.9286226,-0.7723382994982378,0.013861060174761772,0.4197835467666664,5.517433378523809
10.94543449,-0.25024838673633304,0.020295046650952258,1.0921644936714283,5.491288997714285
10.96223648,0.687835171263667,0.03405234858666654,1.1423068727190475,5.969913357952381
10.97903797,1.3234772683589051,-0.21905268441333345,0.36755422181428554,6.571866000761905
10.99585177,1.4979731470479527,-0.41212644531809534,-0.4029633318047621,6.701731813952382
11.01266074,1.4056024098574766,-0.36162929941333344,-0.700783797709524,6.662673318190477
11.02946762,1.1417773566098577,-0.31203975631809533,-0.6241539546809527,6.758843597095238
11.04628056,0.8635633561098576,-0.5416732068085715,-0.34993737087142873,6.961553986190476
11.06308557,0.7647885369527148,-0.6947747759228572,0.1483091853666664,7.020871882952382
11.07989512,0.8159211024033338,-0.7158777152561905,0.933316753033333,7.176211986809523
11.09670353,0.9069597381795242,-0.704300097732381,1.7214269186047617,7.5288622102857135
11.11351167,1.0196311588890479,-0.70596635978,2.1290315335095236,7.673502262904761
11.13032146,1.1277823676509526,-0.6930055965895239,2.002828734504762,7.6371179589523805
11.14713283,1.278866540954286,-0.6991427363309525,0.7815245224095237,8.582207992904761
11.16393698,1.2886607307828575,-0.7240531976642858,0.46781152817142835,8.650643440428572
11.18074284,1.2770871663447623,-0.7567644779119049,0.5408727559333331,8.71139539847619
11.19755096,1.1792855491304766,-0.8031199922214286,0.522431464838095,8.63776501447619
11.21436142,0.9992299308257147,-0.9501020773500002,0.28156660895714264,8.332061271285715
11.23116908,0.7684442884923813,-1.1811520464547618,-0.2169309906428574,7.800785163238096
11.2479762,0.5883851733971432,-1.3497897507404761,-0.47295413647619067,7.548303739857142
11.26478457,0.5273641860257147,-1.444194422597619,-0.6310577274285717,7.50155686547619
11.28159416,0.41526985182571463,-1.5548054497757142,-0.7579473081904764,7.418697795238096
11.29839888,-0.02029091956952344,-1.6567448384661907,-0.9341774152047622,7.013462719523809
11.31520505,-0.8345550355219045,-1.6285125613161906,-0.6391641918238099,6.387079772428572
11.33202083,-1.2952468508076187,-1.2985116413780955,0.3261050104142854,5.781316378904762
11.34882686,-1.3685271398776189,-1.015331146257481,1.068473753938095,5.579738457761904
11.36563522,-1.1410860333490471,-0.8092201650193858,1.4307263866999997,5.533276815952381
11.38244183,-0.7515806924442853,-0.6623551377336716,1.5534575273857139,5.372527514857143
11.39924322,-0.44868750796809487,-0.5605839647336716,1.5565354658142856,5.216117952095238
11.41605678,-0.35956078480142817,-0.3797960948865287,1.4229200288142856,5.015871533619048
11.43287132,-0.4512276422014282,-0.11961977683890962,1.0975448805761903,4.738049170761904
11.4496711,-0.5324544906204759,0.08436100963728083,0.6730678594809522,4.332492355714286
11.46648761,-0.5626378739966663,0.15986760598013797,0.5369506281952379,4.188113341285715
11.48329204,-0.4948023386728567,0.06718382521823323,0.8525910436238093,4.290787159428572
11.50010404,-0.42436336330952346,-0.0764283311055763,2.104827591338095,3.3784745209523814
11.51690494,-0.21571341009047587,-0.145076558719862,2.394454984433333,3.3861144347619048
11.53372152,0.08203438357619082,-0.16441113467700486,2.359843537957142,3.5382728975238096
11.5505253,0.4709337326000004,-0.20905446084843343,2.319883942638095,3.847865817857143
11.56733453,0.9125858943333337,-0.14031363314843345,1.8772536402809519,4.3845433263333335
11.58414136,1.2888936542857146,-0.030876235615100084,1.4928948254999996,4.799727607714286
11.60095029,1.4842207772857148,0.04681801862299515,1.2961356810476186,5.001602465857142
11.61775932,1.5378929774380954,0.11100912443251894,1.1528761557619045,5.144714294380952
11.63456654,1.46079978492381,0.1627360929439475,0.9395124515238092,5.374550614904762
11.65137872,1.310479981604762,0.15142837657299515,0.5723253091571424,5.700163380476191
11.66818594,1.133781115271429,0.111811327730138,0.3564715442523806,5.815655880238095
11.68499089,0.9601112093666669,0.03730240245870943,0.31090895906190436,5.881762596190477
11.70179648,0.9240891366523811,-0.006962325657142958,0.3743165391095234,5.954616536571429
11.71861372,0.8675976481523813,-0.1183264901809525,0.2698832977761901,5.892490112952381
11.73542108,0.7489048413857146,-0.23643442213333343,0.03088723482380911,5.889718840809524
11.75222499,0.6990585100904765,-0.3276761678476191,-0.35535140827142897,6.022062107857143
11.76903124,0.7116748492714289,-0.5063805431709524,-0.8255811815571432,6.308236397571428
11.78583813,0.7355950901285717,-0.7727884870757142,-1.251671876176191,6.408971881333333
11.80265155,0.7210327331047621,-0.9486323844090476,-1.5745574235571433,6.410285590380952
11.8194626,0.6745892025809527,-0.9964634656090477,-1.7790850060000005,6.344822404333333
11.83626491,0.5502937635428575,-0.9181441657995238,-1.926964311333334,6.241244582857144
11.85306554,0.3752859207333336,-0.79120887109,-1.9962950490476195,6.151550981714285
11.86988112,0.16731561940952405,-0.6841044419233334,-2.0138349589523816,6.0366374160000005
11.88668131,-0.04379653925714261,-0.614040095942381,-2.0302642867619047,5.864850450285713
11.90349306,-0.29177929101904737,-0.5332774108900001,-1.9882986034428576,5.647135065238095
11.92031546,-0.6008592332571426,-0.5007052663185716,-1.385782519919048,5.3121388509523815
11.93711703,-0.8533507755428568,-0.4269293845090477,-0.694653652919048,5.219977625761905
11.95392341,-0.9377377373428569,-0.28517337217571437,-0.15926634125238134,5.348439438095238
11.97072912,-0.8505709511619046,-0.1993505117471429,0.23221119817619004,5.369549373380953
11.98753106,-0.6034711428761903,-0.17849159950904764,0.6007424934142852,5.254375070380952
12.00434752,-0.13658982230476166,-0.12222076740000003,1.040143711271428,5.17333947152381
12.02115854,0.5739027205047622,-0.11018508566761907,1.113215957419047,5.384983031142856
12.03796644,1.2164458320285718,-0.2123737182866667,0.6065419855619043,5.574185090142858
12.05477442,1.3555437042428575,-0.41195493833904767,-0.26867131948571477,5.745072550904761
12.07158005,1.1750648816428575,-0.5078231625295238,-0.7018203393904766,5.951463368761905
12.08839295,0.9650836445047621,-0.48079054876761906,-0.7318048590095243,6.04827073395238
12.10519864,0.8544960930380955,-0.4052020272438096,-0.5156933409285719,5.889159406285715
12.12200664,0.9433201381190479,-0.37005124952952384,-0.007981623880952863,5.725054724380952
12.13881538,1.1059208370428575,-0.414591393672381,0.6195691824523805,5.826317296047619
12.15562243,1.1336903571952386,-0.42160076933904767,1.2729863385476186,6.134488066333334
12.17243468,1.0897980190523815,-0.3717979608152382,1.6923428436095231,6.430862487428572
12.18924123,1.0627870332904765,-0.316683521272381,1.7830167330380948,6.48792419547619
12.20604781,1.1076953070523812,-0.4390222306485715,0.6799630725619045,7.422179790809524
12.22285565,1.112499600366667,-0.6080054488628571,0.19313129399047577,7.7649525071428585
12.23967721,0.9793621699380954,-0.758566270672381,0.16434445309999954,7.782395479809524
12.25647293,0.7658905529380956,-0.844365463767619,0.18792889838571383,7.73842918404762
12.27327817,0.5999419576047622,-0.9755144137642857,-0.017048330157143327,7.546887063285714
12.29009041,0.48052381336666694,-1.1694321480261904,-0.3877560975000004,7.220530098857143
12.30689933,0.3978913398285718,-1.3368709502642857,-0.7446986603476194,6.917580270476192
12.32370575,0.3057123139209527,-1.3976461962166666,-0.9456928113190479,6.77350035004762
12.34050452,0.17433123366380984,-1.3644065080261907,-1.0486927766761909,6.694299789333333
12.35732162,-0.1196768396790473,-1.349807133645238,-1.1363156689571432,6.466449666142857
12.37411949,-0.6428650219647616,-1.3270530871109525,-1.0498417101047623,6.086154873142857
12.39093456,-1.118843714345714,-1.192604127387143,-0.5955933725809528,5.743397812142857
12.40774959,-1.2079636709409522,-0.9610988284728572,0.08110538013333292,5.365871711095238
12.42455655,-0.9900757017171425,-0.706316926634762,0.46699714694285666,5.0738611996190475
12.44136371,-0.7540151050742855,-0.49481753649190485,0.807934239133333,5.018065406047619
12.45816172,-0.6741525786028569,-0.36606718104333347,1.1920841595285712,5.204040651190476
12.47497666,-0.7891835938971425,-0.307332281567143,1.3326247707190473,5.270739487
12.49178492,-0.9155435334685711,-0.22179096513857152,1.1842379970999997,5.0744186984285715
12.50859707,-0.861232053625714,-0.1473812617004763,0.8577814046714283,4.7405989808571425
12.52540584,-0.7353819892161902,-0.11746742469714297,0.5619120996714282,4.421077964999999
12.54221351,-0.6274601164161903,-0.14783202892095249,0.5083929415285711,4.324086032619048
12.55902217,-0.5453091121542855,-0.11641747468285726,1.6954764014333328,3.4537302255238096
12.57582775,-0.41700830909714254,-0.1101006198257144,2.263078309242857,3.246550252714286
12.59263743,-0.19875222157333305,-0.09389461077809536,2.3581445955142852,3.3322028416666662
12.60944553,0.1163427489504765,-0.09173315051619059,2.33339119527619,3.456063441761905
12.62625519,0.4868309157600003,-0.06819927973857155,2.168528596580952,3.7485703027619053
12.64306391,0.8910088993790479,-0.030988809571904884,1.7933460190190469,4.211129765714285
12.65986967,1.210431666669524,-0.11013820481000011,1.5642051923904758,4.4959344427619055
12.67667842,1.328244595386667,-0.20130288741000013,1.4364312262666663,4.580617526142857
12.6934885,1.2881059874533338,-0.2946341044576191,1.3099948167666662,4.615192576809524
12.71029914,1.1404378982723813,-0.3541282010861906,1.0969214496190471,4.796126819095238
12.72710262,0.9857218379866669,-0.4088537941290477,0.8064545676666663,5.013174022476191
12.74390582,0.8340651876533336,-0.45741352794809537,0.6014241037142852,5.09146170852381
12.76070789,0.6843699728914288,-0.49959070129095245,0.5417980126190471,5.149536621285715
12.7775294,0.5894185249057144,-0.6028684555100001,0.735403174428571,5.355431808523809
12.79433616,0.5879943258485717,-0.7878882381290478,0.6449518203809519,5.312070961809524
12.81114494,0.611850170981905,-0.9610871736728573,0.2473710377904757,5.143727621333333
12.82794329,0.6511323339666669,-1.0758839767680952,-0.2861115592095243,5.156780326095238
12.84476323,0.6734111196714287,-1.1446792036252382,-0.8028888021619052,5.299497776809524
12.86155748,0.6463183222571431,-1.2058078965871428,-1.209573359780953,5.386632657619048
12.87838331,0.6130649704095241,-1.2651411727809525,-1.4349205381142862,5.430453156142857
12.8951897,0.5766069776571431,-1.3098162618619047,-1.5539801461904765,5.445875451666667
12.91199297,0.48422661291904784,-1.311870692052381,-1.69695451151881,5.397515425476191
12.9288022,0.3196218809190478,-1.236999572052381,-1.797706547280715,5.282076410476191
12.94561187,0.08156681068095262,-1.1361997673952382,-1.7881214618997625,5.249494425761905
12.96243733,-0.2096927733190474,-1.0273257061333334,-1.6939480191378578,5.198311899809523
12.97922423,-0.5043324515476189,-0.9308055490571429,-1.3277120930902386,5.066727510428571
12.99603814,-0.7843124752619046,-0.866796087009524,-0.6747524738045241,4.805932174666667
13.01284409,-1.0506632668428568,-0.7160551328666668,-0.18492286542357184,4.687080715666666
13.02965414,-1.2080085845190474,-0.5513594811238096,0.20375822843357103,4.785050172761904
13.0464484,-1.1736256735649522,-0.43013271131428576,0.5670506500526187,4.9134806728095235
13.06327006,-0.9318001838030474,-0.3702597392095238,0.8851941200049996,4.821820508
13.08007983,-0.4854733603268569,-0.3111076526380953,1.2229172161954758,4.780955716999999
13.09688623,0.270149889577905,-0.2573116110428572,1.309400410890714,5.047233819571429
13.11369337,1.136744249530286,-0.3642520281380953,0.8609985397002378,5.56544772547619
13.13050164,1.458868503673143,-0.565833477852381,-0.047081743014048036,5.9471156530952385
13.14731079,1.3517810050398098,-0.6571386769476191,-0.4589409374426195,6.108932234952381
13.16412141,1.0469276792445716,-0.6108644009476191,-0.5167164575664289,6.264409323428572
13.18092608,0.7154996055540955,-0.4766876357571429,-0.2626010009378575,6.249492716095238
13.19773567,0.6022908348017145,-0.40337618766190486,0.1520559787764282,6.034440145666666
13.21454466,0.7236932119826669,-0.39189591299523824,0.7714904944430947,6.18052481052381
13.23135062,0.8290553775160002,-0.3138762826428573,1.4951952868240472,6.63729413552381
13.24815977,0.8330776351826669,-0.19243731955238105,2.0142860639478566,7.011283487904761
13.26496884,0.8238991556588575,-0.0705503254004763,2.2249418213238092,7.098199347095237
13.28176408,0.8903282484540954,-0.1296949472100001,1.627672535990476,7.538758790761905
13.29858393,1.0112882342588574,-0.41784718777190494,0.5672033057523808,8.302924214571428
13.31538206,1.0200433278112384,-0.7149655904385716,0.39163087634761884,8.316717100904762
13.33219827,0.9429736819921908,-0.9309790901052382,0.3326802137285712,8.264219456761904
13.34900042,0.8459221523493335,-1.1008403386433334,0.10600973280476168,8.040259576428571
13.36581085,0.7686723983112383,-1.2662878363004764,-0.1627971391000002,7.846276841809522
13.38262648,0.752889179177905,-1.4010707466338095,-0.4244861662380955,7.629255225619047
13.39943143,0.7258546921333335,-1.4733625863004765,-0.6690210844809525,7.429122021904762
13.41624349,0.6198222752000002,-1.499250912914762,-0.7902810009000002,7.318869008571428
13.43304695,0.32544358581904786,-1.49574584191,-0.8785818931666669,7.122463464190476
13.44986477,-0.24873015999047593,-1.4547689712814287,-0.8481103922904765,6.691882788190476
13.4666657,-0.955176353490476,-1.2526113205814287,-0.41114183862380976,6.0520599609523815
13.48348045,-1.2277871995142855,-0.934579038867143,0.35172784875714264,5.5172950383809525
13.50028226,-1.1572560810142856,-0.6548754785814287,0.7867840469476187,5.337452043523809
13.51709207,-0.9091025534380949,-0.4219213170576192,1.0863875318523806,5.224076025571429
13.533903,-0.6578915687190473,-0.20397089353380965,1.347134430938095,5.239717907285715
13.55070691,-0.5753677232285712,0.03153942732333323,1.4564621332238095,5.357408659190476
13.56751597,-0.6452973911190474,0.10789345693761894,1.2599857872238094,5.14418665747619
13.58432651,-0.6188350632619045,-0.030844142129047715,0.9382108275095236,4.854124962333334
13.60113224,-0.46223129549999975,-0.22488185774333344,0.6342158656047615,4.621922905
13.61794044,-0.33497324449999966,-0.3699141642761906,0.5116227692714281,4.571475299238095
13.63474896,-0.2835839135904759,-0.38440869694285723,1.1588313236999996,4.196836248809523
13.65155798,-0.245009558585714,-0.26084956260952386,2.153195903414285,3.4262277181904763
13.66836688,-0.08662977675714258,-0.1936479141333334,2.2315870410095235,3.404605621523809
13.68517456,0.13087290805238122,-0.24142706551428578,2.1513127031999995,3.4471513523333335
13.70198149,0.37776302150476215,-0.3343623438333334,2.0849409955047613,3.6480729471904763
13.71879155,0.7028018406000003,-0.35425850624285726,1.947351569219047,3.8937977573333336
13.73560236,1.0966429028857145,-0.3742503468761906,1.6916458720238092,4.259423292904762
13.75239702,1.365433420404762,-0.36977666068571435,1.4548346598857138,4.547386626000001
13.76923245,1.4703923633857148,-0.3114385209285715,1.2602082377333328,4.721838326714286
13.78602124,1.4730814751952384,-0.24262651392380957,0.9519996642857138,4.955062829904762
13.80282512,1.3648138727190477,-0.16783565581428578,0.5932309002857139,5.220264579619048
13.81964042,1.148535569504762,-0.0645791180380953,0.3391371170476187,5.435561126047619
13.83643737,0.9739850816238098,-0.05468068251428578,0.2495305708095234,5.493113192476191
13.85325834,0.883049238266667,-0.16624623832380958,0.31229954104761865,5.581832796952381
13.87006767,0.8806519281190478,-0.451973239704762,0.34565804685714246,5.654096064523809
13.88687216,0.8852246375190479,-0.8741228297523811,0.04592362473809484,5.609485176428571
13.90368386,0.865384124561905,-1.264185184609524,-0.3987238917857147,5.684739014904762
13.92048637,0.8335636456666669,-1.433036392747619,-0.863821864071429,5.823286852476191
13.93730147,0.7447764759990478,-1.4137889062714286,-1.3798853726428575,5.770049264857143
13.95410271,0.6055170013800003,-1.3093622384619048,-1.736380946071429,5.70046339604762
13.97091776,0.4659817786657145,-1.2101945906238096,-1.9089966558333338,5.657620654142857
13.98772327,0.2955480757228574,-1.0990303670190478,-2.030446239885715,5.609078004571429
14.00453014,0.12420956291333363,-0.9452991400904762,-2.0799561284761907,5.548931065047619
14.021339,-0.01983059024380924,-0.7753434408904764,-2.0389308361904765,5.47696303704762
14.03814628,-0.1232761429104759,-0.5651088839857143,-1.9037355071428577,5.465079992333334
14.05495948,-0.23367893133904735,-0.3300842501285715,-1.6493128822380956,5.455896024666667
14.07176297,-0.46925265455809495,-0.16735157234761913,-1.1634123212380956,5.4617310295238095
14.08857029,-0.8152809370771424,0.016781690523809494,-0.6238018899523813,5.346429941285714
14.10537106,-1.0436179070723806,0.15284354057142857,-0.2528159051428576,5.225798465714286
14.12217921,-1.1079634939628569,0.22288181376190475,0.0782493976666662,5.221035171809524
14.13900008,-0.9728861763914284,0.17954363985714283,0.4395130020952377,5.045212954761905
14.15580159,-0.5237045742485712,0.08313882625238093,0.848789226428571,4.997894880571429
14.17261543,0.35516475484666693,-0.09074936033809526,0.9943803718809519,5.282252069476191
14.18943082,1.1576267651800003,-0.36875545419523814,0.6008473464047613,5.767932277523809
14.2062311,1.379130340846667,-0.5876809530047619,-0.12352079450000042,6.06799744547619
14.22303828,1.2388803391800003,-0.630535489147619,-0.6369296597857147,6.180078314190475
14.23984749,0.9471067474419053,-0.49445070552857145,-0.69207704652381,6.27283864052381
14.25664982,0.6894246510514289,-0.3693527381952381,-0.42424707201428624,6.227123066190477
14.27346594,0.6215205874085716,-0.3264248940047618,-0.05730913953809574,6.054007198809524
14.29026449,0.7689614977428574,-0.360740900147619,0.4364554426047614,6.115580981428572
14.30708096,0.9626997085047622,-0.4259309542428571,0.9311890032714281,6.297872767095238
14.32387633,1.0293411981714289,-0.4434272562714285,1.322924886271428,6.4803847539047625
14.34069283,1.0456714630761907,-0.40650213626190473,1.6174917673714282,6.652458254095238
14.35750732,1.0463199616000003,-0.4212533687138095,1.690033696819047,6.690437889571429
14.37431379,1.0473248618523812,-0.5606208838661905,0.9133910450095234,7.2569013434761915
14.39112026,0.981499354114286,-0.7699026860566666,0.18034419524761855,7.620516115428571
14.40793137,0.8158432643523813,-0.9384082638661905,-0.01458028418571477,7.466531934666666
14.42473671,0.7090857143333336,-1.0889078241376189,-0.22124127013809575,7.256656041666666
14.44154328,0.6774937539714289,-1.3061328056047619,-0.4570436140333338,6.968693897947619
14.45835485,0.6434433120476195,-1.495696352442857,-0.665408441319048,6.826616265471428
14.47516323,0.5985283852476194,-1.6170608153952382,-0.8752369429857147,6.695487973185713
14.49196937,0.4649496306285717,-1.584173203347619,-1.0151549865095244,6.687103386947619
14.50877906,0.12057488310476223,-1.5002263622666667,-1.1697413924857147,6.496126595280954
14.52558718,-0.5473732038952378,-1.4195485265333334,-1.1555134004714291,5.949175130280953
14.54239891,-1.1913493702285711,-1.1777219042761904,-0.7220260532333338,5.358464887376191
14.55920166,-1.3471267564666665,-0.897484172781905,-0.05419833342380999,4.9741051232333335
14.576014,-1.22139149627619,-0.6565308167485714,0.39111683462380903,4.7379154198523805
14.5928195,-0.9281279700714283,-0.4680062923676191,0.6604576790047615,4.5723088629
14.60962739,-0.652223382733333,-0.30635683246285716,0.8761258236857137,4.533106954185714
14.62644052,-0.5894182069428568,-0.20697711698666668,0.9968441439238092,4.585235134519047
14.64324438,-0.7262150674047616,-0.1398323938438096,0.9303112482571424,4.4636836962809525
14.66005383,-0.8204764638809521,-0.09362703784380957,0.8640998883999996,4.361482159757143
14.67686071,-0.7383043879761901,-0.026345920791428622,0.7925239515428567,4.290248017280952
14.69367238,-0.6233294805328569,0.0009246403847618524,0.6626799672095233,4.144425148709524
14.71047665,-0.5280379568042854,-2.567142909624226e-09,0.6545672073523805,4.0927578426619045
14.72728676,-0.44199450813761876,0.015196230004285657,1.4026039325428568,3.54110199137619
14.74408413,-0.3074798811138092,0.05784348957571422,1.9996421280190468,3.136193769519047
14.76089851,-0.055996190970952084,0.07636895376619042,2.0599035194999997,3.2479151330428575
14.77770807,0.3016418729338098,0.07981528936142851,2.026002202738095,3.4124121209476193
14.79452011,0.6689722878623812,0.08699250070571421,1.8197818029666664,3.7499275838095243
14.81131526,1.0438943136385717,0.09553006991999993,1.7309580076333329,4.055338083666667
14.82813287,1.3473583857100002,0.050367904492857066,1.5880475384904753,4.306236127476191
14.84494581,1.4912795111861907,0.0005915689452380254,1.4231360412999994,4.433430714047619
14.86174836,1.4949761799004764,-0.0360566136738096,1.1774787448952375,4.615172605904762
14.87856321,1.4234878676147622,-0.04489285185000008,0.7899367809523804,4.943884563238096
14.89537178,1.2942795526623811,-0.013880665869047707,0.3334181308571424,5.216768416714286
14.9121746,1.1255514508052382,0.052883365255714194,0.12528602279999948,5.269004242619048
14.92898512,0.9862878436147621,0.07443336638904753,0.21648817965714234,5.420949966333334
14.94579329,0.8965057872671431,-0.018472237315714374,0.30582392779999945,5.527767525523809
14.96260095,0.827411538071905,-0.22991990198238105,0.13319945332380895,5.459582000857143
14.97939804,0.8107523009861906,-0.4078316660776191,-0.23414312096190532,5.509073344476191
14.99621994,0.8103488513385716,-0.48928002803000004,-0.7233111177714291,5.645413629380952
15.01301785,0.7427252133671431,-0.4950670656966668,-1.284665550533334,5.693889070857143
15.02983839,0.6493996438528574,-0.5434559115585715,-1.7410528432952386,5.678854031666667
15.04664357,0.5925955999333335,-0.6287305142442858,-2.036705005771429,5.683222012809525
15.06345207,0.518163681014286,-0.662272532807143,-2.2040629273428576,5.696537031238096
15.08025759,0.35183495568095263,-0.5732585766580477,-2.255172899780953,5.6812320886666665
15.0970671,0.16346318382380978,-0.4394121006818572,-2.2206681172095246,5.633370231809524
15.11387694,-0.005331720595237843,-0.359446943491381,-2.118257306876191,5.601416907523809
15.13068269,-0.20259793597619022,-0.3127521368485239,-1.9648310003047622,5.5459619129523805
15.14749188,-0.46900799159523787,-0.2321976373447144,-1.5785490217809528,5.388696562428571
15.16429593,-0.8460052126809523,-0.04800332653042864,-1.094402494876191,5.361472812904761
15.18111083,-1.1061919075761903,0.18176360289671423,-0.6136732782571434,5.376882367714286
15.19791785,-1.1216862087666666,0.3397636889205237,-0.16262912749523858,5.440377156857143
15.2147246,-0.8713669549095234,0.35560500834909514,0.22545328593333278,5.372825173809524
15.23153237,-0.3262157212428568,0.3495871445967142,0.7082075505047614,5.4099602613333335
15.24834189,0.5465285890904764,0.2373588872633809,0.8251848107428565,5.749445923142857
15.26512917,1.2007191975190477,-0.11625740145090485,0.18933751470476134,6.350982085666666
15.28195675,1.4061169396514288,-0.41359711899852386,-0.6055575212000005,6.627660832190476
15.29875686,1.3082557632228575,-0.5555712985318573,-1.0826962448666673,6.671823031047619
15.31557533,1.0459105854609527,-0.5208645697223334,-1.170220954119048,6.835658588285715
15.33238851,0.8728922434704764,-0.42745202286519063,-0.8523507799761909,6.840353584619048
15.34918775,0.9375089917228575,-0.3710126231509049,-0.24144395197619103,6.835296335190476
15.36600174,1.1637418383133338,-0.36638872186519056,0.40084886545238035,6.9193793378095245
15.38280293,1.2982584180657146,-0.3504144783842382,0.9951182092619042,7.0789708299523815
15.39962063,1.2898518471133336,-0.26990620653185726,1.4611348424523802,7.247290490666667
15.41642324,1.275421619399048,-0.1879768293842382,1.6608169986904757,7.306191955857143
15.43325296,1.3493495214228575,-0.23431909371428586,1.1728915600333327,7.659208682571427
15.45004247,1.3981333913752383,-0.40880267678571436,0.2909167038904756,8.356632298904762
15.46684898,1.3313354991276194,-0.545553156309524,0.017406940319046944,8.339805563857142
15.48365542,1.1802944909371431,-0.6199914841476192,-0.1162874473000007,8.219116133809523
15.50046491,1.0747579392180957,-0.7092011815714286,-0.29064092196190544,8.045601236380952
15.51727287,1.0684245880800003,-0.9291931295190478,-0.6835133520095245,7.768959677142858
15.53408308,1.0131068910085717,-1.1324228832571432,-1.005901410628572,7.488728340714286
15.55088875,0.8770022618657146,-1.2632726817809525,-1.2386716606000008,7.268510838619048
15.56769826,0.6105043773895241,-1.2769347759238099,-1.3413444872595246,7.129774230619048
15.58450908,0.08916275834190508,-1.2520460504238098,-1.4060370639976196,6.813618622904762
15.60131181,-0.7350771540390473,-1.1210468826619047,-1.0880140124738102,6.252041265809523
15.61812162,-1.2759418032771426,-0.7562466451857144,-0.2965391705690482,5.598681027857143
15.63491892,-1.321571350033333,-0.4278929336619049,0.377048310669047,5.149506398809524
15.65173827,-1.0741575785619044,-0.22028401245714294,0.7839046659071423,5.009190811047619
15.66854637,-0.6907523927047616,-0.10706796853809533,1.0675006820166661,4.937528518190477
15.68536273,-0.4037518047047616,-0.08273821534761912,1.1352123986357137,4.936061494761906
15.70216327,-0.4000444638952378,-0.10710178987142865,0.9975183577309517,4.825161963190476
15.71897938,-0.5693128903476188,-0.05270560049523817,0.8113021623023804,4.57842260947619
15.73577923,-0.6696096374514283,0.027183248547618978,0.5680997371119042,4.332223614
15.75257629,-0.6481065976942855,0.033174537138095164,0.3280915872547613,4.102547288619048
15.76939897,-0.5725542931276187,-0.04294611192380959,0.236345699769047,3.9855699299523804
15.78620342,-0.48410245348476155,-0.07379955369523816,0.7428796233785708,3.620854513666666
15.8030121,-0.34779809767523784,-0.03931841431428575,1.6156121719499992,2.9819576582380956
15.81982514,-0.09861453372285685,-0.03162230802857147,1.7566099905023802,3.052477605571428
15.83662608,0.2577090490866669,-0.07882191491904766,1.7458740359785705,3.2493974900476195
15.85343093,0.6077110199961908,-0.13066943630476194,1.8224876438309516,3.52804383847619
15.87024378,1.0039508456485717,-0.09926058992380957,1.850804079211904,3.807551950333333
15.88705733,1.36629763104381,0.040700627195238044,1.4032299634499992,4.346054311047619
15.90386458,1.5828378768057145,0.18856467943333333,0.9440741428023801,4.792546631666667
15.92066892,1.677879424291429,0.25175341395714285,0.5653818337476183,5.100621298952381
15.93747856,1.6585150672914286,0.2609689561952381,0.14925580958095158,5.380413581190476
15.95428811,1.5606951486247622,0.2867374860047619,-0.05557648880000075,5.482404806428572
15.97109572,1.4734056109104767,0.22184345976666664,0.010180263580951598,5.572561927952381
15.98790268,1.3942627679152384,0.05452626233809522,0.17711518519999925,5.75667953147619
16.00471185,1.281714643681905,-0.15602357472380954,0.07180574419999923,5.772294401952381
16.02151923,1.1435404731580956,-0.3637273538809524,-0.32440228094285795,5.762573858904762
16.03832877,0.9761510803485717,-0.4609519867857143,-0.7684089283238102,5.793972115190476
16.05513607,0.8494231360152384,-0.4207894348333333,-1.219139115895239,5.868332614333333
16.07194483,0.7369780540390478,-0.4230658838095238,-1.626887043085715,5.982647829238095
16.08875315,0.6572861671428575,-0.5105826202380952,-1.9400831685619058,6.044484344190476
16.10556251,0.5937629881476193,-0.5920728190047619,-2.136891234228572,6.105178924666667
16.1223689,0.4983074097714289,-0.5760101917714285,-2.234824958028572,6.182778774714286
16.13916935,0.36991768791428603,-0.4783188800571428,-2.287316764833334,6.160890677380952
16.15598501,0.26339512778571456,-0.33021691445714285,-2.2887270220714293,6.0734418551904765
16.17278176,0.1696150189285717,-0.15061203217142857,-2.1475217907190487,6.0699158597142855
16.18960298,0.015011878214286003,0.028295861780952378,-1.9682110829095247,6.059654019095238
16.2063948,-0.23773829145238068,0.29376562859047617,-1.7572292030047627,6.109001692619048
16.22324042,-0.5281999224999997,0.5192806081571428,-1.5311907584333344,6.039655075095238
16.24001019,-0.781513077880952,0.5544134817761904,-0.8872888655285722,5.682591539714285
16.25683526,-0.8759730202619045,0.49170905487142846,-0.30761179467142924,5.346007919714285
16.27364357,-0.8034167516523807,0.4228056994904762,0.08775863195238029,5.05563495652381
16.29045136,-0.4389090537952378,0.3981237623809524,0.521738608714285,4.912284017952381
16.30725888,0.2541071346809527,0.3107511358142857,0.628993670166666,5.103330595761904
16.32406649,0.8753499076333336,0.12299546876666659,0.10252262297618986,5.390283188380953
16.34087986,1.076877911871429,-0.02480288780476194,-0.7402715684523816,5.65699583295238
16.35768463,1.0371792883952384,-0.08429231966190483,-1.1744238764047625,5.863111772619048
16.37449224,0.952308018966667,-0.060077438852381024,-1.1778728055476198,5.883835030190475
16.39128379,0.9754474957238098,-0.030149889947619125,-0.993525471185715,5.748674526380952
16.40811235,1.1586836405333336,-0.08741273066190484,-0.5725807464238103,5.688556674190476
16.42491901,1.3882411092952385,-0.19485237068095246,-0.04443468380476264,5.757107987619047
16.44172447,1.4686450730143337,-0.2530890633000001,0.4056624002428564,5.836574658
16.45853495,1.45158007020481,-0.2784999595571429,0.8136064210047612,5.999487369095238
16.47534073,1.404340017300048,-0.28703915796666674,1.1852551186238087,6.223051154904762
16.49214971,1.3798227536333814,-0.36758089072857153,1.2370148725333325,6.268436706714286
16.5089617,1.320478461952429,-0.46816374013809525,0.7916211966761898,6.564246496809524
16.52576778,1.2022074516857624,-0.5776126839380953,-0.012940633895238918,6.968546336619048
16.54257498,1.0529603276095718,-0.6961360106000001,-0.41818204384761987,6.834474164809524
16.55939014,0.9620231219095717,-0.8997874310338095,-0.6851920627666676,6.514190335714285
16.57619172,0.8620971724571909,-1.0967196616909523,-0.8928212381619056,6.273134512333333
16.59299927,0.7897957165429051,-1.2572559508861905,-1.119202108638096,6.1094159282380955
16.60980935,0.6862201916952861,-1.368111008005238,-1.2680072330428578,5.977616604142857
16.62660527,0.5131117728857623,-1.4033192829338095,-1.2510918151904769,5.954184605476191
16.64342799,0.1706808634095718,-1.4355535174004763,-1.2001077618095246,5.84046279352381
16.66022207,-0.3941567285428092,-1.4019338637909524,-1.074092870690477,5.534043084619047
16.67704093,-0.9173120317809045,-1.145821918362381,-0.6118105763571438,5.153252110952381
16.69383449,-1.0683163234951902,-0.7990265524100001,0.05452355330952304,4.721240002428571
16.71065724,-0.9821101598047141,-0.4708328197433334,0.5278509175476183,4.460773588904762
16.72747048,-0.8093122301142378,-0.20476205645761908,0.8902028119285708,4.417608557571429
16.74427216,-0.678177788204714,0.020295437589999965,1.143379455661904,4.512322827619047
16.76108526,-0.6977698916809043,0.23477513944714284,1.1573846852333327,4.488838597809523
16.77788965,-0.7900956926332854,0.3798686883090476,1.0646243948047613,4.338687585904762
16.79470168,-0.7727156594142853,0.48919398653761903,0.9793052163285707,4.2397895817619045
16.81150347,-0.662674744980952,0.5694244524947619,0.7954334248523802,4.0269359809523815
16.82831733,-0.49770682206142824,0.5803721121090476,0.5696606352809516,3.7589742256190473
16.84512583,-0.3642778170328568,0.5803381261090476,0.6445751701857135,3.7688635698571433
16.86193097,-0.24764726284238062,0.5437350783471429,1.1376905271857136,3.5541350256666666
16.87874448,-0.13114363814714253,0.43797042819476184,1.804888571961904,3.1017029695238096
16.89554725,0.1077297073576194,0.27174472380904763,1.900834106199999,3.237733169380953
16.9123562,0.5170390945814289,0.029056695909523745,1.6918204397857135,3.6537464002857147
16.92916563,1.0145063626528577,-0.1823845655285715,1.3307004939428562,4.2354645622380955
16.94597276,1.3712159337576193,-0.17675642819047627,1.0440688416571422,4.64989645552381
16.96277989,1.5887048129861907,-0.02661730073809531,0.7673576218238087,4.987737402809524
16.97959106,1.6892505145338101,0.24027578380952375,0.4103224220142851,5.333023966619048
16.99639994,1.6877262932480956,0.5141205907190476,-0.010287029461905442,5.624302516
17.01322089,1.5770906947242862,0.7819830298666666,-0.1402406636285721,5.841617387761905
17.03001644,1.4311500730576194,0.9313847911047619,-0.059508976533334014,6.057358782380952
17.04682276,1.3242850530576196,0.8304304628347617,-0.01243906367619116,6.130891359333333
17.06363022,1.260074025081429,0.5423170050252379,-0.19331839544761975,6.190775947428571
17.08042749,1.1694365228671433,0.18317414526333325,-0.5636793375428579,6.277454875619048
17.09723585,1.0120798065338101,-0.13041849868904773,-0.9632947388761912,6.332682196714286
17.11404245,0.8383958680100004,-0.3617359677366668,-1.2916053534000007,6.358137171238096
17.13086386,0.7150673412004767,-0.47344897412238107,-1.6104269312095245,6.352590499142857
17.14766451,0.6227501233100005,-0.5823203233985715,-1.9168921482571437,6.341009868047619
17.16447894,0.5290131795433337,-0.6567286076414286,-2.0903437422095243,6.367244150095238
17.18128947,0.420420873671429,-0.6531295755938096,-2.173545559295239,6.389740801095239
17.19809596,0.3294577144047623,-0.5632735129842859,-2.259716209976191,6.327285776761905
17.21490428,0.2498099690047623,-0.3900364162700001,-2.2856949909285724,6.285239960809524
17.23171224,0.1900469234619052,-0.1392938899842858,-2.16624739632381,6.3136594503809516
17.24852155,0.05179026008095278,0.20326937582523802,-1.9901234536571435,6.225192252857143
17.26532768,-0.2412732215857139,0.6858906823014285,-1.64711571884762,6.064171282285715
17.28213993,-0.6264678183476187,1.1455414713014285,-1.0335408279904768,5.792294190190476
17.29894792,-0.8658286730619044,1.3472173802538092,-0.5102698576571436,5.5975764162857145
17.31575316,-0.9944799741047615,1.2972792805395237,-0.17253170701428638,5.342602406857144
17.33256126,-1.0527811277428567,1.0882512635871426,0.01962535717618977,5.067485023857143
17.34938259,-0.905293214885714,0.8455242110014283,0.3165346440380945,4.701426284380952
17.36617973,-0.45858215150476156,0.5370631955885713,0.4324460937285707,4.582528678619047
17.38298566,0.22392992744761944,0.2330605189219046,0.25816025045714214,4.62373848547619
17.39979416,0.7979287874000004,0.027450868096666567,-0.1046855109714293,4.865417876571429
17.41660927,1.0169411386857146,-0.034762416522381066,-0.46096355581904835,5.124626654714286
17.43340052,1.007537592019048,-0.00899202480809533,-0.6969443390095245,5.263424783952381
17.45021973,1.0024936085428575,0.022548505287142785,-0.7408709640095246,5.2718074307142855
17.46702545,1.1189647174476194,0.01932323552523802,-0.6336883817714293,5.20937644847619
17.48383774,1.3141555558761908,-0.024162803331904823,-0.2202213037714293,5.3617700392380945
17.50064349,1.4374930744952386,-0.05064583952238102,0.23086476327618974,5.540157053238095
17.51745444,1.4744997933047626,-0.07761988747476198,0.5373294921333327,5.669190421238095
17.53425959,1.4529217765904765,-0.11311746702238101,0.7138950257428563,5.787039450857143
17.55107017,1.3655936377809528,-0.15801729397952388,0.7608781769476183,5.880777912047619
17.56787833,1.2676352319428577,-0.24783712619380963,0.47188351270952317,5.981471263142858
17.58468577,1.19216276352381,-0.39328915727952385,-0.22312428857619107,6.314703678761904
17.60149705,1.068520114576191,-0.5711771277557144,-0.5520439603857149,6.326496179904762
17.61830303,0.914174170766667,-0.8071576980604762,-0.7216498626285721,6.090616287904761
17.63510164,0.7675045104333338,-1.0635124330699999,-0.8993840446142862,5.7958279893333335
17.6519175,0.618688765019048,-1.2770946706557145,-1.078498091185715,5.5437017640476185
17.66872352,0.5230201993476195,-1.3489311876080952,-1.1307923852238102,5.481120502904762
17.68553804,0.49947284515238133,-1.3521270977985715,-0.9599320379428579,5.424180285333334
17.70234094,0.37115201491428607,-1.3433544634985715,-0.832700996328572,5.500231640809524
17.71914988,0.037912005438095635,-1.3008060518380953,-0.7906322537571433,5.422190497238096
17.73596293,-0.49262889227619006,-1.1882366657999999,-0.7128639733428577,5.134697758809525
17.75276266,-0.966174239228571,-0.9556049654333333,-0.46936961596190535,4.7429947556666665
17.7695799,-1.145556200133333,-0.6951628711742858,-0.011473752342857762,4.3435268704761905
17.78638611,-1.1189800898476185,-0.43495000910285714,0.4933398847047612,4.01890057252381
17.80319351,-1.0654681069523806,-0.21483810117904767,0.9090593711333328,3.8965327158095238
17.8200013,-1.0616409210952376,-0.024829015293333378,1.1766725436571424,3.9384115839047618
17.83680909,-1.075354485285714,0.19322522256380947,1.0571994723238087,3.8126059928571427
17.85361659,-1.0260305858571424,0.4091970784209524,0.9437293947999993,3.716386758476191
17.8704281,-0.9132167725285709,0.5956945793733334,0.9022541896095232,3.679418780333333
17.88723572,-0.793317703980952,0.7322825482923809,0.8910075083714278,3.645050471809524
17.90404148,-0.6711842900476187,0.8097224070685713,0.9492264189428564,3.629856722904762
17.92086117,-0.5073111851904758,0.8145884046733333,1.2724453549904755,3.5439443796190475
17.93766078,-0.333722841180952,0.7914856244733334,1.8746032261333325,3.174148492380952
17.95445641,-0.10273910704285673,0.7195829037590475,2.1289873407428566,3.1700738951904763
17.97127334,0.1968067941000004,0.5741572917304761,2.1045586949761894,3.358284152190476
17.98808074,0.52775021962381,0.40225344873999996,1.9010677678666659,3.631090348
18.00489214,0.8886570476571434,0.2642531137066666,1.658880426819047,3.9972897744285714
18.02169984,1.155420144419048,0.1863935182638095,1.4274257989761896,4.247802904666666
18.03850608,1.3253295308000004,0.19369348640666662,1.1356529225047614,4.436715548857143
18.05529587,1.3962628273761908,0.28226680597809517,0.7899530785523803,4.565310155809524
18.0721306,1.3858490444238099,0.36554134358761897,0.45892278921904683,4.637403026238095
18.08891067,1.2899628366619051,0.4291826391209524,0.30977950208095156,4.707307654047619
18.10573662,1.1210432733761908,0.5444858659923809,0.4094729082714278,4.9323369001428565
18.12255153,0.9845969563285719,0.5644774818666667,0.5895021018428563,5.157592780714286
18.13935575,0.923362164280953,0.4596887605571428,0.5168380112714278,5.185960632333333
18.15616888,0.8653521991952385,0.2538614747285714,0.24112506703333253,5.215734001952381
18.17295752,0.7602029074047624,0.007838123509523783,-0.13888088301428653,5.277548286285715
18.18978584,0.5841026987380956,-0.2287820074904762,-0.5239521379190484,5.356504206666666
18.20658948,0.43407492407142895,-0.4182054323476191,-0.943269519633334,5.334218534333333
18.22340212,0.3321750958380957,-0.5745415014428572,-1.2983511686809532,5.280252627095238
18.24020248,0.2766742478619052,-0.7310238857761905,-1.569103144490477,5.220473451523809
18.25701818,0.21026409235714325,-0.8366307595809523,-1.7535158509666675,5.180393707190476
18.27382406,0.06486368173809567,-0.8225926026857143,-1.8950208880238104,5.135706645190477
18.29063107,-0.17459599178571386,-0.6901075194952382,-1.9223712967047628,5.100299836714286
18.30743841,-0.41309240888571386,-0.4949443035904762,-1.8573917605047625,5.034689434047619
18.32426408,-0.6300128982285711,-0.2267738105904762,-1.6446280479714293,5.006091576999999
18.34105564,-0.8527153333238091,0.05416595007619047,-1.2213379088285723,4.9545434982380945
18.35786344,-1.0804895900857139,0.31946572445714283,-0.705525761590477,4.838844320285714
18.3746739,-1.191674028133333,0.4979891067095238,-0.20271071940000085,4.8176225128571435
18.39147986,-1.2594781830047614,0.5916424563761905,0.24250493726666586,4.789911093380953
18.40828898,-1.2445158958285711,0.5536574153761904,0.5065927732380944,4.623942130857143
18.42508457,-0.9888088589238092,0.47290182399523806,0.622441711857142,4.544154713952381
18.44190515,-0.29464853373333305,0.3918451411714286,0.47864252042380867,4.855139670095237
18.45871326,0.662625676219048,0.10920538793333327,-0.18287541757619127,5.422050441904762
18.47553374,1.1590178354571432,-0.21545067710476193,-0.9304197062428579,5.7679847150952375
18.49233246,1.2839063917980955,-0.3992409294380953,-1.1659017631476198,5.937167959142857
18.50912727,1.2131030674171432,-0.4567810396285714,-0.9973421437666674,6.013079328238095
18.52594926,1.180568513540953,-0.3981013908190477,-0.6523181711000008,5.973860695857143
18.54273965,1.315481662874286,-0.39193382010476197,-0.18423478948095318,5.978091319428572
18.55956247,1.45524408716,-0.42296115986666677,0.3437090032809516,6.101169539619047
18.5763582,1.4983864058933336,-0.4216638449142858,0.7886021590428565,6.222316918714286
18.59318211,1.461781161321905,-0.37384906416666674,1.1246192681380944,6.345837212333333
18.60998476,1.4405834562742859,-0.34103684274761914,1.2122630618095231,6.353616609857143
18.62679436,1.431342034274286,-0.3793566277190477,0.9127491314380946,6.589832904285714
18.64361041,1.4644391424647623,-0.5385679511000001,0.16814063849999916,7.170331593333334
18.66040119,1.4377472288504767,-0.6833205244809525,-0.1504228114523818,7.250990314380952
18.67720139,1.319421518574286,-0.7817056484619048,-0.27239189826190563,7.152397450333335
18.69402554,1.196164267574286,-0.8650291157952383,-0.44537976807142937,6.980454923333333
18.7108389,1.0691525143028575,-0.9824954860809525,-0.7353600433714294,6.740776619952382
18.7276455,0.9311801821123812,-1.0708280709857145,-1.0447010652761912,6.531252406904762
18.7444524,0.8388749532695241,-1.137611124509524,-1.2315205051395244,6.386067816666667
18.76126135,0.7592370170885717,-1.1557902232714288,-1.209021818015715,6.400716444238095
18.77807464,0.5076782590885719,-1.147158471652381,-1.0481866653966674,6.376996321428571
18.79487915,-0.1262843494352377,-1.1375618825857141,-0.7693360304919055,6.010568423285714
18.81167022,-0.9627880822923804,-0.9624608237666666,-0.1603491532061913,5.2851836995238095
18.82849811,-1.3392158462923807,-0.5918741162904764,0.47735070065095153,4.791575375190476
18.84530327,-1.37617149807619,-0.24299989362380958,0.8346664339366657,4.642618597476191
18.8621121,-1.227110022588571,0.0019025560742856151,1.0023439272699992,4.595722891047619
18.87891831,-1.072773388445714,0.12292071317428561,1.0920634044128563,4.627907711
18.89572851,-1.0581218628266662,0.27721074022666653,0.9984760740319039,4.506142904380952
18.91253452,-1.0789958408266662,0.46223963951238084,0.8622566633652372,4.358008941904762
18.92933972,-1.0617806570266661,0.6168117517504761,0.7381310465080944,4.255783977857143
18.94615223,-0.9834934415647615,0.680922010955238,0.5987775895557134,4.108672231523809
18.96295905,-0.9021964980933329,0.6939528591090475,0.6824461507890467,4.116310472047619
18.97977186,-0.7505029723314282,0.6982793218566666,1.0944737368842847,3.899879676380952
18.99657248,-0.4726098832361901,0.6767112279042856,1.8743182081223797,3.4368485353809524
19.01338785,-0.14211979361714247,0.6313879156185713,2.0913123347561897,3.476780654142857
19.03020415,0.24616840909714327,0.5023577163614286,1.872482589422856,3.6680394588095235
19.04699808,0.6299847421447623,0.2994547862185714,1.557539866184761,3.9562834630476185
19.06381145,1.0187137921780955,0.11731231283761896,1.3785080853895229,4.320948298047619
19.0806172,1.283130441416191,0.03744380742776182,1.2662819738180944,4.5066096304761905
19.09743589,1.4574127878923815,0.03487921823728564,1.0328561068242847,4.671740852190476
19.11423406,1.5488027164352385,0.12353386123728564,0.6785767816814277,4.89839472552381
19.13104218,1.5855756260542857,0.23802647633252375,0.2199432679671419,5.162882943190477
19.14784905,1.5374683198638097,0.41091891628014277,-0.06282825127095329,5.3271012748095234
19.16466368,1.4183712232923813,0.605407481413476,-0.07838363303285806,5.508795380809524
19.18146091,1.2935401144828576,0.5987966224134761,-0.0021836019376199425,5.64013221095238
19.19827395,1.1947655224019051,0.43762577079442844,-0.028288699270953285,5.674610850571428
19.21508464,1.0900970413904765,0.20512449319157128,-0.34807817703285804,5.688914369999999
19.23189083,0.9638925280095242,-0.028352165479857264,-0.7784322045566676,5.736376722428572
19.24870002,0.847415197461905,-0.20188875938938108,-1.1368850242233342,5.844621364476191
19.26550764,0.7660043807190479,-0.342975644294143,-1.5442036616995247,5.873881027476191
19.28231549,0.7383908771285718,-0.4740716270322382,-1.913694285175715,5.888265230047619
19.29912598,0.6884313310952385,-0.5649066732227144,-2.158828343651906,5.947543686238095
19.3159314,0.5893255642428575,-0.5955557127622383,-2.344704417985239,5.967423099
19.33273855,0.39868304843333374,-0.5441427216479525,-2.45770679773762,5.99754812152381
19.34955176,0.09764171781428613,-0.37589462455271444,-2.4643372467852394,5.877830224190476
19.36635785,-0.1563777469614282,-0.1978043303622382,-2.3139668759904772,5.781610103285714
19.38316587,-0.3711540585804758,0.030114044732999872,-1.906059162942858,5.753868304333333
19.39997482,-0.62088934586619,0.3581764201615713,-1.319321643704763,5.7447850180952384
19.41678434,-0.895277522913809,0.6802333494472856,-0.8430710860380961,5.63454293952381
19.43359171,-1.0936605363328569,0.8787326273809523,-0.4685813131333343,5.62499218852381
19.45038904,-1.2324918111899994,0.9331038594285713,-0.0872206347047629,5.5633413845238096
19.46720485,-1.1809807732566662,0.8505874616666664,0.21879511791095138,5.330400602
19.48400556,-0.7091764723042854,0.7267876409142856,0.5374789919585704,5.329349501333333
19.50082258,0.31096581050523847,0.48400431016666656,0.3892360301490466,5.901781629285714
19.51762341,0.9746385756004765,-0.033940934023809585,-0.22477743727952487,6.2956142622857145
19.53443968,1.1771472522147624,-0.3335170405476191,-0.7910693826128582,6.430294215380952
19.55124994,1.1045229321195242,-0.37669163659523813,-0.973235845479525,6.459007367380953
19.56805817,1.0561691465480958,-0.2937592779285715,-0.7666459877652392,6.446690155380951
19.58486246,1.1864435331671432,-0.19153540478571437,-0.3965070928128582,6.394465265047619
19.60167999,1.3544048808576195,-0.1956634862142858,0.060057742329998914,6.448152528952381
19.61848169,1.410886015181429,-0.24735838459523812,0.5465771471395227,6.509763406809523
19.63528837,1.329327129143334,-0.2496433996095239,1.0341382821871417,6.6065585427142866
19.65209631,1.244988600381429,-0.19187846922380955,1.4051088492823798,6.710887380380952
19.66890644,1.2218102273338098,-0.13867805401904768,1.4533797219633322,6.719678232333332
19.68571362,1.3124449139052383,-0.25388737233809533,0.6618755092395225,7.387403239571429
19.70252095,1.3939778463876193,-0.45353686524285725,0.07879707942999878,7.7894052331428565
19.7193307,1.308733213496667,-0.6536255649095238,-0.13832840452238215,7.767062432238095
19.73613924,1.1450178736871433,-0.881922367052381,-0.30652410633190597,7.635647508333332
19.75294519,0.9929330916871434,-1.1696904131476191,-0.6854965912795249,7.371229755904762
19.76975378,0.8466637021157146,-1.3875714966571429,-1.0209001415176202,7.152788604761905
19.7865632,0.7620684760109528,-1.5191823045619048,-1.2533108733033345,6.9596899880952385
19.80337271,0.7542330424157148,-1.5717630812285714,-1.4024336450447632,6.846535213428571
19.82018268,0.6565315155776195,-1.5913086249904762,-1.344959690327144,6.828133812904762
19.83698482,0.22840245565857178,-1.598048601852381,-1.226248366374763,6.499477029238095
19.85379644,-0.6469726562699996,-1.5149176688666668,-0.7821048326604774,5.720368510047619
19.8706044,-1.1261746088890472,-1.1502462739619048,-0.07789083885095356,5.178573332857143
19.88739906,-1.188892591598571,-0.7955711399142859,0.4837630022442845,4.9861788152380955
19.90423167,-1.055630570360476,-0.5609555131523811,0.8210479532061893,5.060115909761905
19.9210232,-0.9742220242652377,-0.3836974303333334,1.0374596800157132,5.1690080389999995
19.93783034,-1.0648710840985711,-0.20586006276190483,1.0872092133490465,5.152463226238096
19.95464237,-1.1584288051938092,-0.04307297586666675,1.0263555844919037,5.006661267428571
19.97144743,-1.128003915108095,0.05289562256190467,0.9804225649680941,4.941679257571429
19.98825589,-1.0040981201366663,0.06788261586190468,0.8315332731109513,4.775017956476191
20.00509112,-0.9031645229461902,0.022448836304761827,0.671280684968094,4.5911210162380955
20.02187558,-0.8092578251842852,-0.0532342011285715,0.7464676868585702,4.534406301523809
20.03868808,-0.7285264332604757,-0.054838593557142934,1.577307808925237,3.8216608121428575
20.05548936,-0.5772634233142854,-0.041520895033333415,2.1112340574585704,3.4799346535714286
20.0723074,-0.17223503469523774,-0.023242614128571506,2.069352711887142,3.678979396047619
20.08910666,0.4493651842571432,-0.06280267103333341,1.7630893332204751,4.088752781714286
20.10592346,1.1342088153523815,-0.15687547841428578,1.5588721717871419,4.614894462
20.12272562,1.6036239350666668,-0.174009563004762,1.3831738630728563,4.984625550333334
20.13953594,1.8260031199714288,-0.15843266110000007,1.1591510261442846,5.216185235380952
20.15633948,1.8275557925857147,-0.10693393010000005,0.8307886974571419,5.47156735847619
20.17315769,1.7271599087571432,0.04052201199523803,0.3717499062190465,5.8450728623809525
20.18995782,1.5680010431523814,0.2824360175142856,0.029988805361903695,6.1957978741428565
20.20677094,1.3875724019857145,0.5662622608476189,-0.09289143777142964,6.466672422857143
20.2235756,1.2692105428904763,0.5982809961809522,0.02251772075237991,6.624817655095238
20.24038749,1.2335936227952384,0.3352179059904761,0.01696422546666558,6.65187101104762
20.25719384,1.209404627414286,-0.0671064810095239,-0.3695498932476201,6.659691710523809
20.27399909,1.1763073148428576,-0.4832564151619049,-0.9431898764380963,6.7585534240000005
20.29080889,1.1706408091190479,-0.6238102940666668,-1.397330880200001,6.7512535149523805
20.30761823,1.109538259866667,-0.5219841045333334,-1.83116483124762,6.83418161547619
20.32444086,0.996142523514286,-0.4670904661285716,-2.28364485224762,6.840226102714286
20.34123366,0.8895769344952384,-0.526012026057143,-2.5682496968190485,6.892590069904762
20.35804876,0.8145528973523811,-0.5602423916952382,-2.624648116933334,6.950405547809523
20.37485194,0.7435485974476193,-0.5049149670133335,-2.5999944210285726,7.007246713333333
20.39166091,0.6300826525238098,-0.3499609309657144,-2.5666090193333346,7.02874408647619
20.40846555,0.46302675048571457,-0.1586004970609525,-2.5299454075809535,6.933714122047619
20.42526292,0.17282869683809554,0.036660708891428466,-2.3165072713428585,6.731998946285715
20.44208336,-0.2960346085428568,0.3146391632247618,-1.8812931605809537,6.422791054904762
20.45888099,-0.8277448700190472,0.7201320139390476,-1.363843986009525,6.118023965047619
20.4756987,-1.0985635803523806,1.0010780898485714,-0.8270240965809534,6.028426417952382
20.49250755,-1.1180334318761902,1.1410063967057142,-0.3626315934380963,6.04714612847619
20.50931689,-1.0016139576095233,1.1428534821819045,-0.013514575490477283,5.871826934809524
20.52611356,-0.7204639571809521,1.0028249543723808,0.2987506389857132,5.594233814142857
20.54293397,-0.15395169037142822,0.7098715383628571,0.3947165012714275,5.58462903952381
20.55973907,0.5761596132000004,0.2192704415057142,0.06349993892857031,5.827061371428572
20.57654956,0.9571456225333338,-0.20765173225619057,-0.6232647555000012,6.0247094544761906
20.59335745,0.9960983364380956,-0.388594267684762,-1.0778620696904773,6.181501646857142
20.61016792,0.9113572662952385,-0.37373733878000004,-1.0517033962619058,6.197901997428572
20.62697337,0.9795623731333339,-0.1816804331133334,-0.7565949871190487,5.950969567571429
20.64378306,1.1813294317380958,-0.2293138653038096,-0.4066636675476201,5.997699676047619
20.66058887,1.3933159734666671,-0.4563798826371429,0.05333064854761799,6.049751521428571
20.67739844,1.4807089167095242,-0.5655948271371429,0.4081974030238085,5.9676956442857145
20.69420412,1.47634472142381,-0.5039326385419047,0.6064483098333322,5.882504171809524
20.71101671,1.4075523101857148,-0.3832285326371429,0.7376527105666656,5.985767854761905
20.72782144,1.3340331030428578,-0.325716326652381,0.6540937310695228,6.042819123
20.74463054,1.291918845233334,-0.34186799327142864,0.46125569802190375,6.111822464809524
20.7614408,1.2768476121190482,-0.4404518675380953,-0.05006185031142962,6.474875721428571
20.778249,1.2276860190000005,-0.6048038531095239,-0.38736762316857243,6.564038183857143
20.79505392,1.1140498205238099,-0.7855861683904763,-0.6029228028400011,6.368316561666667
20.81185261,0.9814147947619053,-1.0465388000571427,-0.877456699040001,6.096467208190477
20.82867282,0.8069043385190482,-1.337217403342857,-1.2338090396590486,5.811268342571428
20.84548135,0.628747122476191,-1.5682762549619047,-1.502629881801906,5.538685794904762
20.86228738,0.5055060612380957,-1.6701894686761904,-1.5253635474480964,5.414074632285714
20.87911184,0.31591097500476245,-1.6621323625809525,-1.393881945362382,5.324894219428572
20.89590606,-0.12208280123333282,-1.5512293449999999,-1.1552548067433346,5.0303665313809525
20.91270023,-0.7122715086619043,-1.2859659124285714,-0.7300471124100011,4.545816019238096
20.92950429,-1.0166501544238091,-0.854825728,-0.19444627983857254,4.196374490666667
20.94633009,-1.0467273847571423,-0.42687400604761905,0.21623636430428458,3.9754347325238095
20.96313733,-0.9123232704714281,-0.05557949057142856,0.43191779230428456,3.8080489320952386
20.97994595,-0.8913538341904758,0.19152486471428573,0.6168944608757132,3.8603124517142855
20.99675291,-1.0243113835238091,0.3919502397952381,0.715498969685237,3.8216828188571434
21.01356387,-1.199137869271428,0.5744016071714286,0.6400655792090466,3.6387363244761906
21.03037257,-1.214803377723809,0.697346856252381,0.6705891972566655,3.6405279105238098
21.04717745,-1.0770845639809519,0.7068250222380952,0.8481858117328561,3.7666335571904765
21.06398727,-0.8367332049523805,0.5793592178571428,0.8976147061614276,3.7161807328571426
21.08079432,-0.6278272810380948,0.4169309523333334,1.065417108134761,3.7005592814285717
21.09760865,-0.4671749387476186,0.23620612714285713,1.3494200252776178,3.714499535380953
21.11440165,-0.35150550659523766,0.12383402393333333,1.8422211465966654,3.4206595672857145
21.13122183,-0.19567716687619002,0.10529277869523812,2.0399204266061894,3.3450541800952385
21.14802561,0.0750742866952385,0.1018272482809524,1.9712527820395227,3.4932954967142855
21.16483747,0.4512047086952385,0.12773840634285719,1.7419414634299988,3.7780988100476187
21.18164355,0.8595510210809527,0.1874312404319048,1.59661370238238,4.1006249518095235
21.19845479,1.1773476828380955,0.2863130683842857,1.432725009525237,4.414298502285715
21.21526116,1.3684349968857148,0.38566097767000007,1.1920429866047608,4.682288086238096
21.23205741,1.451665742119048,0.486206741622381,0.9037133398999989,4.888096824904762
21.24887698,1.4985877900380957,0.5510528712414287,0.4905688195190466,5.147946279095239
21.2656923,1.4648409798476194,0.6274704309080953,0.038701568376189405,5.4216146940000005
21.28249294,1.3482035228476192,0.7656886861461905,-0.1749218985761915,5.559668339904762
21.29931341,1.2516313053238097,0.7461261692414286,-0.04778502095714393,5.703253073809524
21.31611055,1.2193819908952384,0.5282424063366667,0.13496376223333226,5.899182931428571
21.33291745,1.1758295241095242,0.194844126622381,-0.09504107061904865,5.9242617870476195
21.34972694,1.1038459142333337,-0.18496610445857137,-0.55827218004762,6.088577152047619
21.36652277,1.0706728526795242,-0.4922137488347619,-0.9661532583333342,6.3344239881428575
21.38334262,1.0250629243700005,-0.6265634724871428,-1.36655055904762,6.444710157380952
21.4001575,0.9297035535319053,-0.6468302210966665,-1.7955773898095249,6.424285195047619
21.4169597,0.827871231836667,-0.6175557574633332,-2.1164406935238107,6.375954852904762
21.43376681,0.7395005226366671,-0.5741230222252381,-2.353810628285715,6.300024682095238
21.45057567,0.609204201489048,-0.4694368130823809,-2.49564229877143,6.195744276047619
21.46739187,0.4326420511557147,-0.2689266858442857,-2.480720996900001,6.158165154000001
21.48419032,0.24522785910809558,-0.07536089712999998,-2.3612826495285724,6.143632748714286
21.50100344,0.04731228235095277,0.09610868908904764,-2.188229481385715,6.092740532190477
21.51780831,-0.2155122303347615,0.2594761109319048,-1.8074639297666675,5.93727310947619
21.53461867,-0.5301919210966662,0.3808037069857143,-1.3578447954809532,5.776950781714286
21.55143423,-0.7752719153347615,0.4320718304142857,-0.9120266891476201,5.661315606238095
21.56823234,-0.9167642594061901,0.4209894990809524,-0.4780078274809533,5.575303004999999
21.58504267,-0.9630172821066664,0.36044160231904765,-0.011664628957143734,5.5224848129523805
21.60184876,-0.9310704640733329,0.2731049826523809,0.42682112970952296,5.25266515247619
21.61865653,-0.6084455309304757,0.11951214918095236,0.8653960114714275,5.050123200714285
21.6354661,0.20839177997428612,-0.07782160105714286,0.8306372733285705,5.320145039571428
21.65227324,1.0330263094504766,-0.2668608541047619,0.04776779794761816,5.7888324332380945
21.66908444,1.2734593665933338,-0.38388904505714294,-0.8601927305285723,6.049956918857142
21.68588983,1.2157009444504767,-0.35775709720000004,-1.1553135828666676,6.1483803060952384
21.70269479,1.0367172107076195,-0.2535862979142857,-0.9641219663619056,6.051722514428572
21.71951131,0.9280142104852386,-0.18665931905714284,-0.5504283680285723,5.931212031190476
21.73631525,1.0252703714042861,-0.2785568748190476,-0.06470637117142941,5.977920310190476
21.75313464,1.1615097638328575,-0.44421240545714286,0.41164427687618965,6.113285551523809
21.76993284,1.2035625096376195,-0.5553553529952381,0.6714216525428564,6.157537676
21.78671931,1.1823111717804766,-0.5807741681380952,0.7860667817238087,6.17734868847619
21.80354886,1.1249298370185719,-0.5691730592571429,0.8467633722571419,6.246083237380953
21.82034084,1.0955947469233338,-0.6058209041571428,0.8095209483523801,6.248823790047618
21.83716547,1.0731213208757147,-0.6781882260142856,0.6432311306380943,6.213368108285714
21.85397018,1.060351576366667,-0.7775551349809523,0.2680984336380944,6.3069464111428575
21.870777,1.0280607543809528,-0.8963733683809524,-0.1584818365047628,6.349106371142858
21.8875915,0.959762187466667,-0.9825770911095238,-0.43785577745714377,6.148521303238095
21.9043993,0.872048446366667,-1.1055084636619048,-0.6425688949523819,5.92906796387619
21.92120607,0.8325168294285719,-1.2328620495619047,-0.8987531209047629,5.7522395474
21.93801663,0.8099153385004766,-1.3110135367523807,-1.1786159448571438,5.571763631495238
21.95481689,0.723579656786191,-1.307931408942857,-1.284934123500001,5.555907175066666
21.97163268,0.42454322207190515,-1.231320381090476,-1.3441242264714295,5.467644227304762
21.98842646,-0.2561769256423806,-1.1421139523285713,-1.1732365404714296,5.030068396590476
22.00524523,-0.9720048676899997,-0.8945894865190476,-0.6110475857571438,4.383285042733333
22.02205519,-1.2153123446423806,-0.5425508702809524,0.05314128748095143,3.9020160770190477
22.038864,-1.1531309854042855,-0.23973293809047622,0.4949804375285704,3.7032033200666667
22.05567253,-0.9712107976138091,0.007751805481428557,0.7543460983095228,3.6160925996380953
22.07247803,-0.7740872927566662,0.1596684683528571,0.8481767859761895,3.600266190780953
22.08928879,-0.7749595868519044,0.3097910200433333,0.7671055567380941,3.465263142495238
22.10609629,-0.8624961716109522,0.5204004220242857,0.6043888842142847,3.231523539685714
22.12290327,-0.8775399752347616,0.7286770685004762,0.5941748052142847,3.167340714352381
22.13971021,-0.8012457120347615,0.8568026083480953,0.6362249965571418,3.1300863305904763
22.15652124,-0.6860416729538091,0.8770288570219046,0.6651709080333325,3.0670021646857144
22.1733296,-0.541257744668095,0.793009545207619,0.7761141232714276,3.078023288209524
22.1901394,-0.3149187904776187,0.6310686243028572,0.9901627699857133,3.2022826758285716
22.20694156,-0.07381366540190443,0.5020689993647619,1.327565448699999,3.207578544209524
22.22375691,0.20817284365047653,0.41089594800285717,1.5293339945571423,3.2538388395428575
22.24054911,0.5684387570885718,0.29350546296952384,1.366442152461904,3.599299343923809
22.25737098,0.9702371870457147,0.23906206953619044,1.0977230923857133,3.996917176285714
22.27416995,1.258072217388572,0.34381014543619043,0.878108756909523,4.339923848047619
22.2909837,1.380780083874286,0.5088779657695238,0.6017700547666658,4.671088882238096
22.30778166,1.4361264365695243,0.6877799673409524,0.26171760902857055,5.011844416000001
22.32460102,1.4567256655695242,0.7976020021504763,-0.07837858085714376,5.275773667285715
22.34140178,1.3815023786171434,0.870918144817143,-0.30407925447619144,5.417377528904762
22.3582135,1.2553582191885717,0.9005727952933333,-0.19774033342857233,5.561405313380952
22.37503346,1.1834531285219052,0.7225163394838097,0.0023778563809514538,5.74954959
22.39183155,1.145434629426667,0.4833829161980953,-0.05135367595238185,5.805116073142857
22.4086456,1.1098213423504766,0.2418211259119048,-0.4165213731904771,5.855056632
22.42545027,1.0000061535123814,0.1346057214214286,-0.8817322196666676,5.889602254142858
22.44226231,0.9068599201647624,0.11410808144523814,-1.2305395659047629,5.912465332571428
22.45906352,0.9058120137433338,0.09546881992095242,-1.5214132864761913,5.980453865904762
22.4758845,0.9028370494195241,0.03421512747809528,-1.7611382518095244,5.976638192476191
22.49268093,0.8449515161242862,-0.04642590094571425,-1.9333774078095245,5.997283263857144
22.50949283,0.7739031882814289,-0.08277600501476186,-2.049946427304763,6.006774825142857
22.52630052,0.6583491280433338,-0.03989536205761901,-2.195903579357144,5.96604396247619
22.54311147,0.4477169854719052,0.09714105797571435,-2.3345056544619056,5.784931068571429
22.5599184,0.20763687863428615,0.26719930840428574,-2.3859936623000007,5.5889910930476185
22.57672527,-0.030111585318094786,0.46642748159476194,-2.2753336429190485,5.427824064095238
22.59353355,-0.2986468814133329,0.7227950401185714,-1.9463653109666674,5.241293900380952
22.61034371,-0.5996885299371424,0.9854847497709526,-1.533459981204763,5.081277139476191
22.62715043,-0.8162722814609521,1.1411227406280955,-1.0738111109190487,5.005478510666667
22.64395746,-0.858789716460952,1.1771623655328571,-0.6079212596809533,4.887169069857142
22.6607705,-0.8146206083847615,1.0832901590090478,-0.11481591625238187,4.659498656238095
22.6775748,-0.7450110571799996,0.9408019405328574,0.2853732223666658,4.359189476857143
22.69439117,-0.48289026532285667,0.7283192433228572,0.49541144153809435,4.156807961238095
22.71119001,0.07857919877238134,0.5452452628514286,0.2923740319857134,4.198091179333334
22.72800005,0.7624498320580957,0.5391629210895239,-0.1923904758714295,4.4170550474761905
22.74480987,1.1380023727723814,0.481883039137143,-0.6503957679666676,4.681310958666667
22.76159504,1.1690572782676196,0.46531821580380966,-0.8802491369190486,4.8487284929523815
22.77842434,1.0205870808676194,0.3995803098514288,-0.8599891662047628,4.9187161109523805
22.79523582,0.9263962562628575,0.31560469956571446,-0.7411368516809533,4.910741018619047
22.81203939,0.9968167485385718,0.18973571282333349,-0.53468526534762,4.877442075333333
22.8288495,1.1780714079195242,0.04722341121857156,-0.2657968259190485,4.995671542285714
22.84565445,1.3097815966576194,-0.09087707663380937,-0.024336479871429513,5.110001110714286
22.86246672,1.3353172709909527,-0.20683402169095222,0.07026414086190381,5.181678166285714
22.87927218,1.273006212038572,-0.29024085607666655,0.1497878972476181,5.278039796095238
22.89608412,1.1354245457052383,-0.3267835952623808,0.2680643457333324,5.445323186047619
22.91288835,0.991725421971429,-0.3602603169290475,0.3309830768571419,5.543322612285714
22.92968429,0.8905908038523813,-0.40999152607190464,0.26580034559523713,5.4866167813809525
22.94650599,0.830474898814286,-0.520949977405238,-0.13409701407142954,5.5540239165714285
22.96331259,0.755676587314286,-0.7101178544338094,-0.5257586126428582,5.506353525
22.98012297,0.6537192661619051,-0.9290479285766666,-0.688088025295239,5.249161113666666
22.99693129,0.5536962690047622,-1.122448425100476,-0.7872160899523821,5.036894792571429
23.01373946,0.4793503624285718,-1.2214382637671428,-0.9408985375761916,4.899263168380953
23.03054573,0.4444949739666671,-1.198605098100476,-1.0297731955285723,4.901615328285714
23.04735591,0.3089184078857147,-1.0733868251761904,-1.0674137103557153,4.919688279904761
