Time (s),Linear Acceleration x (m/s^2),Linear Acceleration y (m/s^2),Linear Acceleration z (m/s^2),Absolute acceleration (m/s^2)
0.349318775,-0.06802795054761901,1.2999713874680954,-0.3962497171947619,3.8167148969523814
0.366135688,-0.3381845611190476,0.7672307492776189,-0.4460729559280952,4.378450568047619
0.382937881,-0.5893602599,0.5011610645776191,-0.33499269545190474,4.6785646452857135
0.399744979,-0.6384313390952381,0.5661872342919049,-0.3763363957614286,4.769859119619047
0.41655527,-0.6312043979571429,0.5974531742919047,-0.4653779524028572,4.817395811238095
0.433360088,-0.5116346819571428,0.5107010547680952,-0.5323950308076191,4.697080329095239
0.450174581,-0.3595615881142857,0.3824063711538096,-0.5768307873528572,4.549115141009524
0.466980996,-0.26732259991904755,0.2664456369252381,-0.6545194700004762,4.514199055390476
0.483785022,-0.22079977820476188,0.15413000487761905,-0.6222826725304762,4.531934455438095
0.500593198,-0.029470480614285692,-0.08359123393190475,-0.620900185387619,4.648846206628571
0.51740066,0.39933296329047624,-0.5108707516938096,-0.6019040374828573,4.831708358342857
0.534211267,0.6756305098619048,-0.7832961307414286,-0.48839436546857146,5.092178804152381
0.551016625,0.9596980497999998,-0.9257424670271429,-0.7550990950795238,5.090419524247619
0.56782601,1.1028552821714286,-0.9054453257238095,-0.7949006358890477,5.1692569493428575
0.584633007,1.1309066471619047,-0.8009623116857143,-0.9071352623604761,5.222106360961905
0.601447397,1.0426126179380952,-0.6958469661285713,-1.04222230967,5.227769949104761
0.618250333,0.8744278607095237,-0.6350831983380951,-1.1452788199747619,5.151979427104762
0.635057126,0.7868542756652381,-0.7227755499095239,-1.1252972703657143,5.03858117267619
0.651864639,0.7531129036938096,-0.8792541592428572,-1.0099082014323808,4.879234180914286
0.668675053,0.7714946582509524,-1.1183280033857144,-0.9307349601133333,4.687618582104762
0.685491214,0.8155357979890476,-1.3676816392714286,-0.7998443920080953,4.538626363866666
0.702285819,0.9242803908938095,-0.9581277027142857,-0.49382292872238087,4.252347519628572
0.719096701,1.1928564452319048,-0.2676836648619047,-0.24846457517476195,3.768610885247619
0.73590628,1.4512728027271429,0.03752476837142858,-0.043799754460476195,3.645166614771429
0.75270176,1.5709834468033335,-0.10833242952380952,0.2373659021109524,3.6989472959619056
0.769500913,1.6422316403890478,-0.3423652648095238,0.44722216249190483,3.628115727390476
0.786329617,1.6621935481366668,-0.4491672969047619,0.5477413995395238,3.602109945485714
0.803146122,1.6421700829842856,-0.4561693099764285,0.6183149962633334,3.5841808171952385
0.819944604,1.5739503361223808,-0.4085523059430952,0.7524797269680953,3.604764143528571
0.836752341,1.465975761431905,-0.3598217736192857,0.8714430650504762,3.5996066791
0.85356069,1.2729782149842859,-0.2548251378383333,1.054797425764762,3.433316518480953
0.870372325,0.9686209814652381,-0.05108188441452379,1.2000705605742858,3.0939656841476193
0.887178413,0.6456942104080953,0.09012839910928572,1.251216057417143,2.7933317925761907
0.903983782,0.3697878973747619,0.1370196569854762,1.3583965279328571,2.637389205766667
0.920790432,0.21017694470809528,0.1070672444235714,1.5621782235042856,2.582333817195238
0.937602126,0.10625019527000001,0.10253297718071427,1.7818740186471427,2.537190988242857
0.954405877,-0.0018280120300000163,0.13003921511880953,1.9922949053138095,2.528186299957143
0.971218426,-0.12546898070619047,0.1014275778197619,2.124379547456667,2.586801736052381
0.988024893,-0.2690348739,0.030361765924523804,2.134355351914286,2.663948868242857
1.004833191,-0.40743726778571426,-0.06315957931738095,2.0817554166095236,2.6950313620523807
1.021638649,-0.5117612453190477,-0.12289619447452382,2.0030751170571426,2.6788629605285714
1.038449846,-0.604277463252381,-0.1262019929602381,1.907246847838095,2.638736253338095
1.055256292,-0.6914056029190476,-0.12258111864595238,1.7868560580095236,2.570882333052381
1.072063766,-0.7589044230857143,-0.08644237973642856,1.5422817780190476,2.3981879926238094
1.088870304,-0.7841040180380953,-0.03838836580309522,1.234869914352381,2.206602394814286
1.105681674,-0.7571362427809525,0.012434300911190485,1.0131184685476189,2.061203002861905
1.122492066,-0.6675237360761905,0.12312732424452381,0.886627818845238,2.0553821507190477
1.139297414,-0.5184818676809524,0.283403101435,0.8417808016261904,2.193754342242857
1.156090728,-0.3381098566095238,0.43444740207333343,0.894802329102381,2.4090985567619048
1.172911333,-0.1412472952714286,0.524222237744762,0.8722306234833335,2.5375319484285717
1.189722011,0.04844588318095236,0.5568392844685714,0.761597074244762,2.620566963904762
1.206527938,0.23909091943809516,0.5901792390257143,0.7279663966257144,2.749314705047619
1.22332531,0.36036359690952374,0.5679581279114286,0.7243829710542856,2.8476493605238096
1.24014489,0.44097412196666663,0.3603286062447618,0.7339319246257143,3.042880372
1.256951569,0.5459702468571428,-0.1453236399647619,0.7176855320066667,3.4868276803809524
1.27376004,0.6015167122523809,-0.6646212853457143,0.5326094315304761,3.9246542829047617
1.29055548,0.5962865692999999,-0.7267392252361906,0.4632468081629047,3.9193321578095244
1.307375627,0.554871150395238,-0.5400129275885713,0.5007057899724285,4.065538518047619
1.324171708,0.48122698915714274,-0.20594412968476186,0.40345025349147623,4.318759125190476
1.340987157,0.4044606004428571,0.10558684640095241,0.23837626836766668,4.584635691190476
1.357801029,0.3642058259190476,0.2050166808809524,0.1658240017867143,4.666346723428571
1.374620059,0.38463597072857136,0.12348129613333339,0.22702367819623812,4.694777066857143
1.391414207,0.47840308012380944,0.009953407790476218,0.35775758541528574,4.787072984666667
1.408224894,0.6189639455047619,-0.03129373299999997,0.5208124036248096,4.909056969190477
1.425015318,0.7618823846190476,-0.010177907714285691,0.6167782715676667,5.005946551333333
1.441837338,0.8775321302190475,0.018660931119047645,0.6894373964819523,5.08941914547619
1.458647924,0.9110061668380952,0.020363603076190503,0.687703244753381,5.12195679947619
1.475455754,0.8484049070285713,-0.03539460072095235,0.7084036228319525,5.048067422428572
1.49225927,0.7031793367095237,-0.15414240273999996,0.7584432264319524,4.906359029142857
1.509078422,0.49091643379047617,-0.28706003399238095,0.7723221282414763,4.76631781247619
1.525873638,0.24772378945714277,-0.38045451782571427,0.811319239098619,4.669666789428571
1.542685841,-0.015547996447619093,-0.4142877717780952,0.9128898964324286,4.59766962147619
1.559492603,-0.30106806754285714,-0.4288174541190476,0.9372393475276666,4.475200235333334
1.576286619,-0.5476109981619048,-0.39130135972857144,0.9490094937657619,4.408488200333333
1.59311228,-0.772516534447619,-0.16269804210952374,0.8300994791467143,4.242733037095238
1.60991772,-0.9455088206380952,0.39930477587142865,0.6979702300324286,3.778335798761905
1.626727817,-0.9779232172428571,0.9556442670285715,0.8278699957848096,3.2859508628571428
1.643535667,-0.8895013389047619,1.0234359787333334,0.8675942861571428,3.2263713612095235
1.660342347,-0.7269442365000001,0.8179221608119048,0.7641730635519048,2.953116205652381
1.677153869,-0.5195227861080953,0.47573900227857147,0.7992579866614287,2.566933201714286
1.693956125,-0.29997169402761903,0.16629230411761903,0.9272322243566665,2.1908251792761906
1.710764443,-0.10130227748476192,0.055726187579523814,0.9456266662138094,2.0444862117047617
1.727572313,0.03655793556285712,0.11734531038428572,0.7795356952614285,2.015002320657143
1.744371689,0.11683015031047617,0.21815844943666665,0.5374264930709524,1.9501858113714283
1.761188288,0.1652893282628571,0.22349866230190474,0.31423139435666664,1.8953780478000002
1.777997113,0.2139805669771428,0.13724100021142857,0.19095865749476193,1.9089628337047617
1.794804353,0.24616291983428568,0.059374945511428565,0.10501923739,1.9345966642285712
1.811601419,0.3216171889771428,0.018931070968571422,0.014229706447142852,2.036844212561905
1.828421558,0.47019793311999997,-0.01672653924380953,-0.11630504745285714,2.2154178295142857
1.845230955,0.688173844772381,-0.04631714593428572,-0.28417687464333335,2.4105826351333333
1.862032456,0.9568400440247619,-0.09666992369142857,-0.4761898602147619,2.559197599609524
1.878848302,1.2451510656914284,-0.17602975028666668,-0.6599743734528571,2.6789674420857144
1.895652276,1.4987597693104762,-0.22346006122,-0.8496860747861906,2.7597555050857143
1.912460105,1.6629552217390475,-0.29082865940761904,-0.9745324878290477,2.775775892847619
1.929257875,1.7777424370295236,-0.37061972844095237,-1.0242178070957142,2.759169350704762
1.946080425,1.864158499867619,-0.44313467115523814,-0.8426088605242857,2.8181787820857145
1.96288394,1.8577647493438096,-0.5765714645171429,-0.5219854002671428,3.0395040523238097
1.979692238,1.758384943029524,-0.7433847245314286,-0.24561030240047624,3.355667979942857
1.996499671,1.6184026854533335,-0.9003255480457144,-0.15146199864333335,3.5531747561142857
2.013312108,1.4913268770485715,-1.0071028300290477,-0.31297416918095244,3.7713816198142855
2.0301153,1.367967299037619,-1.102783884257619,-0.40187974209523813,3.94837268527619
2.046923555,1.2321866410047617,-1.1729531968585714,-0.35567520920000006,4.0711753961428565
2.063731467,1.0680163474142854,-1.1182862235633333,-0.21043547572380955,4.169357969904762
2.080539673,0.8971081744619047,-0.9940759794157144,-0.06378629672380956,4.24031125152381
2.09734801,0.7958551474571427,-0.8896759577061906,0.05416376806666663,4.245886045952381
2.114152941,0.7074571563523809,-0.9250184920904762,0.16408353749523807,4.190426872
2.130966539,0.5784128506285714,-0.9898136682857142,0.2478229544380952,4.117237123619048
2.147772079,0.39310380384285715,-0.9630935531714286,0.3888987188190476,4.021536676619047
2.164580662,0.12168379050952376,-0.8904782703095239,0.6286219811523809,3.9935699736666663
2.181395582,-0.2665321146333334,-0.7899848846333333,0.8627300091047619,3.990570087
2.198191092,-0.7503458545857143,-0.669064090257143,1.0745920509619047,4.028414741904761
2.215006684,-1.261679161204762,-0.5142040024380952,1.2746696187714286,4.100074322238095
2.231810363,-1.7292456286809523,-0.3134727931047619,1.4101127272,4.144415353619048
2.248618752,-2.0490113100142855,-0.15965722845714284,1.4752432845523809,4.113039466571429
2.265422889,-2.180966150266667,-0.04591269712380954,1.5027291887904763,4.049782199428572
2.282238764,-2.1731592360714282,0.01696704690476189,1.4786193029842858,3.9990633628238097
2.299027511,-2.0712412426238096,0.07628926784285711,1.2878749597033332,3.9030630202047623
2.315849419,-1.9107146036714286,0.17550581983809524,0.8955571877985713,3.718236008442857
2.332662182,-1.7432482583619051,0.31397760486666665,0.46323527603666664,3.4803843878714287
2.349457774,-1.536176204742857,0.4663778941333333,0.2513262089890476,3.3450662636809523
2.36627543,-1.236195518885714,0.6150190944190476,0.4133931795604762,3.304516056347619
2.383076759,-0.8135576929333335,0.7831227438952381,0.5400546902795238,3.42280955782381
2.399895921,-0.3164691697904763,0.8766924540238096,0.4691439299271429,3.6351632896333337
2.416695856,0.09080905006666658,0.9256047294095238,0.35714364620809524,3.753178981109524
2.433508692,0.3272015026857142,0.9651594161714285,0.3597646611604762,3.7863546891095234
2.45031528,0.32309445882857135,0.9551413626476188,0.4005732082747619,3.7968101291571426
2.467124554,0.243707872595238,0.8940147445142856,0.3651393822842857,3.8230653815380955
2.483928966,0.21242422151380946,0.48138661599047616,0.29984664355095236,4.220787711919048
2.500740396,0.21579565322809516,-0.31303623756666676,0.28682862583666663,4.917542112347619
2.517547249,0.1532097998471428,-0.8057641757095239,0.1753285470985714,5.2092950476809525
2.534352434,0.09425733208523802,-0.7113993963761905,0.03310885604142856,5.2722974762999995
2.551165198,0.09259773441857136,-0.4543929782809525,-0.04614869749666669,5.420014838014286
2.567972182,0.1712763423709523,-0.2716271084238096,-0.002527849972857176,5.490812838966667
2.584779483,0.27813912584714273,-0.315342244804762,0.05696862655095234,5.407031839395238
2.601585481,0.32949045170428565,-0.5058630989952382,0.18422105767476188,5.389372912442857
2.618394725,0.31501440218999993,-0.6292110853285715,0.2897924298604761,5.456885829014285
2.635201527,0.21176211618047613,-0.5878595853142857,0.15319825926666664,5.562746671571428
2.65199898,0.0394555558471428,-0.49932545721428573,0.17498499443809518,5.587648654238095
2.668818305,-0.07712873948619053,-0.4657457671000001,0.3916705279619047,5.571126352142857
2.685625545,-0.1445369265338096,-0.43605343515238104,0.6158458222000001,5.552817520952381
2.702436578,-0.2291055632671429,-0.3903774762285715,0.7152685523571428,5.5093100657619045
2.719231225,-0.38231940485761917,-0.36639740365714296,0.6998298707999999,5.399346170809524
2.736048912,-0.6210480302861905,-0.3864238603952382,0.6848499080095237,5.16896044895238
2.752866639,-0.9235414095242858,-0.36669138511428584,0.7621864336619046,4.876229800047619
2.769673268,-1.1505801335957142,-0.4255524363809525,0.8273505455714285,4.654684342190476
2.786474435,-1.2462487560338096,-0.5382110505904762,0.7934327296380953,4.505278954238095
2.803295529,-1.2309138092633334,-0.5994756336380954,0.7107727953838096,4.416606324999999
2.820087703,-1.2102693375061906,-0.4555123648380953,0.6802461403233333,4.358112582904762
2.836895125,-1.2315194038104762,0.06665938239523803,0.6669209827042858,3.915537871523809
2.853709151,-1.220453387115238,0.8407804398133333,0.54806266799,3.193104856095238
2.870514061,-1.0404509475485715,1.2662230446133333,0.4748195239661904,2.781499188666667
2.887319123,-0.748779836077143,1.1041777701566668,0.40031710126142855,2.5944956003333335
2.904129119,-0.40595467879142866,0.8036946342042858,0.2034487468947619,2.356645241285714
2.920941985,-0.07381791155333335,0.5320109866804762,-0.09274262758142861,2.1634946863333333
2.937742754,0.24202307068476192,0.36343406496619046,-0.2722301227719048,2.160923427
2.954554623,0.5408192646371428,0.34244591849,-0.44285426534333333,2.2479743899999995
2.971359685,0.7966072048799999,0.3761150269519048,-0.6367660334861905,2.354292339952381
2.988170871,1.0506388289752382,0.3273554756757143,-0.6177567612480953,2.4272256934285714
3.004976148,1.3298116695466666,0.20320183892333335,-0.7147698714719047,2.536164382380952
3.021784668,1.5738882564514287,0.10442429500428571,-0.9566225977099999,2.6734281731904765
3.038592641,1.7903876418085711,0.026422091932857144,-1.1731685200909523,2.7926161987142857
3.05540161,1.9688256467799998,-0.08164060682904761,-1.3023778824385714,2.934048818619048
3.072207638,2.0730770087990473,-0.16815022059571427,-1.4003423735957146,3.0315918265238095
3.089018336,2.077319213275238,-0.2099487213819048,-1.4008024150195237,3.0203411797142854
3.105824519,2.033147448532381,-0.3112636747914286,-1.3019730306719048,3.0819976614285713
3.122631686,1.9778685342133333,-0.520363353572381,-1.1011851912433335,3.314126190142857
3.139442578,1.901322410175238,-0.8439489092200001,-0.7688089069766667,3.7151395998095236
3.156242748,1.8233158531238094,-1.2051351184104762,-0.5332847095795239,4.065005590952381
3.173044393,1.7575581584190476,-1.4803570793057144,-0.6499213377666668,4.287477327
3.189864775,1.6416642041,-1.6941231773485712,-0.7854756457333335,4.523411560904762
3.206671098,1.4825326998571429,-1.757308869195238,-0.8262773524952381,4.669445718666667
3.223491196,1.2779243275761902,-1.689396449566667,-0.7789462435519048,4.8080662638571425
3.240287104,1.0422202632,-1.5409709159195237,-0.6028352379328572,4.953510387809524
3.257096347,0.8386923868666666,-1.4018107596338094,-0.3498787113138097,4.992411727047619
3.273897656,0.6869745651190475,-1.3186121668719049,-0.19711812333095255,4.9100556081904765
3.290708863,0.5142521800714286,-1.284622078919524,-0.0912177420500001,4.763040045666667
3.307512166,0.2839585882380952,-1.19510748281,0.030918453426190363,4.580747545904762
3.324326272,-0.01562518742857146,-1.0653751010814285,0.22727369409285703,4.506916545
3.341135516,-0.39633724242857143,-0.9330743608957144,0.4515868964261904,4.523907053952381
3.357943405,-0.83480076,-0.7340538843242856,0.6515331296642856,4.602086462333333
3.374752843,-1.3428253844285716,-0.5054099901338095,0.9008181690928571,4.710701106047619
3.391553084,-1.8215692327619049,-0.29807783318142855,1.0812746825214286,4.814731011476191
3.408373375,-2.1360624234285717,-0.10552422213380952,1.2113260342738095,4.819395224619048
3.425174796,-2.3066159827714285,0.0237992603947619,1.3254134569566665,4.765496655619048
3.441988413,-2.3140973534380955,0.06127811607142857,1.2818893392614286,4.7769375485714285
3.458786966,-2.1930865163142856,0.09390263325238093,1.0423689711661903,4.82494088
3.475600085,-1.979300164066667,0.25945631659523805,0.6358765221661905,4.792032509428571
3.492416541,-1.7131810132095238,0.563342366847619,0.1359377616899999,4.5902044918571425
3.509215519,-1.3840191024476192,0.8910867145666667,-0.1756732208338096,4.456704280619048
3.526018986,-0.9581447670190476,1.1107245399523809,-0.07399335078142863,4.526765377428571
3.542833396,-0.44167435744761907,1.329138256242857,0.10612815616619041,4.622847128428571
3.559639761,0.02836882493333338,1.4975574357190478,0.17181225898523803,4.7445309357619045
3.576451213,0.31871839926666673,1.5118692489095238,0.2473123470419047,4.6953894718095235
3.593275227,0.46470274239047626,1.1643902688142855,0.1577996355514285,4.647079059857142
3.610064237,0.5129523731047619,0.36963101814761906,-0.08675853982952386,5.031941587523809
3.626863867,0.35263754070952386,-0.4772965793761905,0.05242128880666662,5.679057762809524
3.643679295,0.012929802852380979,-0.7478860445666667,0.26517773238285713,6.144059635999999
3.660486058,-0.3513916333619047,-0.5366702532952381,0.24084614285428566,6.511668032714286
3.677295606,-0.5748730614095238,-0.2942330268666667,0.23660377942571426,6.817863268571428
3.694090577,-0.6062049411714285,-0.23069572439047614,0.23811336642571426,6.873626502619048
3.710911632,-0.511067526695238,-0.37105723779999994,0.2392399736638095,6.761752764285714
3.727706043,-0.3078470570761904,-0.6336686950857143,0.22216840299714283,6.585931075666666
3.744527615,-0.07575400669523805,-0.8492170741809524,0.22673001456857142,6.363320626809523
3.761321611,0.04412686259047623,-0.9702081452476191,0.2791420135780952,6.239561095095238
3.778141159,0.017299044742857192,-0.9740299723904762,0.25489996866190473,6.24962924547619
3.794940444,-0.12558212163809518,-0.9390056246380952,0.3051565672238095,6.290214802428572
3.811757459,-0.30350421722857135,-0.8625974654714287,0.46502385672857144,6.1804292025238095
3.828566346,-0.5211436407761904,-0.7770847365761904,0.6867638357761905,6.009980069571429
3.845369965,-0.749712251447619,-0.6947694959714286,0.931756455252381,5.903239503666667
3.862173531,-0.9864522956142856,-0.6135426929761904,1.0543144331047618,5.745759022380953
3.878987353,-1.3013812246238095,-0.5558510734571429,1.0816036420142856,5.459127402142857
3.895801184,-1.6353185857666668,-0.5649324598428571,1.0351134212142856,5.143004493190476
3.912601669,-1.8815450327190475,-0.6612901460238095,1.0141522671571428,4.897877640428572
3.929417454,-1.9372487862428573,-0.7092241105380952,0.8886796420619048,4.828508641761905
3.946219353,-1.8598452295095238,-0.47567603699999994,0.827320514695238,4.710221060285715
3.963031302,-1.7570480618619049,0.16806243699523815,0.8983305479809525,4.19410449752381
3.979836334,-1.5194813920999999,0.925274122304762,0.6151302612666667,3.582519642095238
3.996646839,-1.0812088478142856,1.2294456390885715,0.2154754755047619,3.241567720095238
4.013456714,-0.5685964368619048,1.0047265006933335,0.05954875689047615,2.991851771238095
4.030258043,-0.1285648856714286,0.631567750617143,-0.11553941030000002,2.680464982428571
4.047070551,0.24882245632857136,0.4168819245695239,-0.2909609604904762,2.558863307142857
4.063878198,0.6180470727571427,0.43706439788619056,-0.46842283439523813,2.5899058185714288
4.080684807,0.9501157317571427,0.5706913811671429,-0.6945456621571429,2.6631256624285715
4.097492301,1.2144393182809523,0.6157477242576191,-0.9163095170619048,2.810720194285714
4.114301728,1.466329659709524,0.5372722262290477,-1.1214649918714286,2.990280821142857
4.131111399,1.7262513864238096,0.338265532514762,-1.2197059506857142,3.1063255730000003
4.147921801,1.9370890912333334,0.1990085783242858,-1.3652586029142857,3.1769083908571427
4.164719499,2.088539867157143,0.14026714504333343,-1.526663510609524,3.2668863613809522
4.181528194,2.1935141710857144,0.023577077048095328,-1.5970158322000003,3.2734302965238093
4.198337172,2.234948266104762,-0.172466959285238,-1.5967088058666665,3.264386920476191
4.215151096,2.2083431595666667,-0.4980196725709523,-1.413428459909524,3.4810293293333334
4.231955608,2.1276700780523807,-0.8668153399519046,-1.0682619810619047,3.9050089499523812
4.248744751,1.992178213052381,-1.2549702326661905,-0.7211572840666667,4.321332762047619
4.265573445,1.8518829742904763,-1.5463067009614282,-0.8271412168761905,4.577631509285714
4.282364255,1.6784315733380955,-1.7504006794947617,-1.0884350027809524,4.8864171842857145
4.299191077,1.4880159184809523,-1.8663813727471428,-1.1216986917809524,5.005479074095239
4.315997493,1.262069310452381,-1.8335566294090475,-0.9718169883047619,5.110202556428571
4.332799371,1.0254102547857142,-1.6801762127185715,-0.7862585045761905,5.215684441142857
4.34961426,0.8136002790238095,-1.483704589692857,-0.6624562599285715,5.259699595
4.366416109,0.6647544474857142,-1.3558702469166666,-0.6044695293095239,5.2006874746190475
4.383233541,0.5633229868761904,-1.3586469378119046,-0.5225071950479381,5.094482433571429
4.400039163,0.38955553373333324,-1.2928201812166666,-0.34136462076222385,5.036122973619048
4.4168392,0.09289185206666667,-1.1764627411714284,-0.08246937119079524,5.041187716571429
4.433653805,-0.3133823530761905,-1.0722647167857142,0.1564868077615857,5.0259889239047615
4.450452805,-0.7730835278857144,-0.9424543608285715,0.3764538040473,5.052007162952381
4.467267175,-1.2899910608857144,-0.756460916447619,0.599776519142538,5.124530657333334
4.48407766,-1.7974557876476192,-0.5123178163999998,0.8181715593330142,5.242828524571428
4.500883506,-2.185964970361905,-0.2904572486857142,0.9929652228092047,5.367303514238095
4.517690715,-2.4490412757428572,-0.12311964941904752,1.1149705548863476,5.421113522428572
4.534501383,-2.589527084695238,0.030495212195238177,1.131574058793014,5.445673978333334
4.551306222,-2.5683961595666664,0.09574465524285722,0.9567589092692048,5.3918806497142855
4.568117367,-2.3917631648619047,0.20672346295714297,0.5139171069358713,5.364116647285714
4.584925126,-2.0537209624333337,0.4013081731952382,-0.06842933244508102,5.270618169809524
4.601735234,-1.5924447434333335,0.6843428157666668,-0.5056166407784144,5.191090988428571
4.618538333,-1.0871417635761904,0.9857081231761905,-0.3674366290022239,5.2808245937619045
4.635348136,-0.6280362265285714,1.2558365549857142,-0.02387316882127148,5.243494878619048
4.652155253,-0.25940850800476184,1.4868499665095238,0.12560513897872852,5.301332861619048
4.668967844,0.013884464900000018,1.4657315072714288,0.1468046151692047,5.210990150095238
4.685770395,0.19262922378285716,1.1321166810809524,0.0868551092739666,5.105300480238095
4.702564347,0.2608036540971429,0.446923891652381,-0.018773497564128643,5.391415431714286
4.719381903,0.13471611344476192,-0.33544892339523796,0.060174012493014226,5.962857467333333
4.73619075,-0.18272024104095236,-0.6476381163761904,0.21234038046952378,6.398039888333334
4.752990522,-0.5149383658028571,-0.5479680922095237,0.09476183142666661,6.650601320761904
4.769813072,-0.7010209900409523,-0.43001740297142854,0.06340761980761901,6.815858076809524
4.786607228,-0.7193255878028572,-0.43125393254285693,0.05552554699809519,6.826099822380953
4.803429127,-0.607602641612381,-0.5664812494476189,0.07778151828380948,6.710862263904762
4.820233885,-0.3813385224695238,-0.7474738073523808,0.10249837804571425,6.5232710451904765
4.8370462,-0.09293610135047624,-0.9314110844809523,0.13473931375999998,6.296659141238096
4.853847947,0.14212154781619044,-1.0376806938142857,0.20147845285523808,6.114597215285714
4.870661554,0.20147771500666664,-1.066062609147619,0.1514774333495238,6.061811408952382
4.887453952,0.16236155948285708,-1.1025305246238095,0.08745655555714282,6.074469110809524
4.904281923,0.06233126214952378,-1.0552228289619046,0.11302586392857139,6.056893697904762
4.921077669,-0.11510359100285716,-0.8939732140619047,0.3153366460190476,5.806781876366666
4.937891855,-0.40155686077714287,-0.6690851844904762,0.5995866045904762,5.5336953887952385
4.954698047,-0.7634232895152382,-0.4789544965857142,0.7674022132095237,5.24551945222381
4.97150897,-1.1667622667914286,-0.3987658588999998,0.794954499995238,4.921357480938095
4.988312068,-1.4706625086342857,-0.4211658066619047,0.729519297647619,4.6554189017952385
5.005122523,-1.6318677890628572,-0.5400810693142857,0.6130744913714286,4.485405357652381
5.021929965,-1.6534773111104764,-0.5904913172857141,0.49268008264761903,4.435163313128571
5.038738415,-1.608639768169524,-0.4195318900571427,0.4735519416999999,4.3384191397
5.055544485,-1.5540122928885716,0.1086497764285715,0.5530652815095238,3.891696582985714
5.07235319,-1.4127846275061429,0.8334522929619048,0.45139978469047615,3.294829575652381
5.089164284,-1.0756700890537618,1.1981875329714287,0.21032505235714286,2.909998251890476
5.105970548,-0.6161823329585239,1.0701629775619048,0.15965493663809524,2.661275441414286
5.122775406,-0.1756003073394762,0.8266920362714286,-0.03020806393333335,2.438126943842857
5.13958639,0.22526111485100003,0.6760343824571429,-0.19652650326666668,2.396269120366667
5.156393406,0.557700582851,0.673103968352381,-0.36851474640952386,2.4385734410809525
5.173202994,0.7688493273748096,0.6888945897904761,-0.6084705122666667,2.4812778170333334
5.190007804,0.9130657513033809,0.6439783005857143,-0.814713953504762,2.5041754982714286
5.2068149,1.0636444772319524,0.5448347727761905,-1.0565099247904761,2.555197481795238
5.223616789,1.2910770460890952,0.4238100279285715,-1.1395418232666668,2.578199636319048
5.240435727,1.4766312893271905,0.37159222651428575,-1.2478395289333333,2.6412037867952383
5.257223089,1.6091040882795713,0.3474248477709524,-1.3601860986380951,2.746451182509524
5.27404926,1.694858789336714,0.28868650258047623,-1.3937618676190477,2.789221238761905
5.290845483,1.7583514507776665,0.1383010092471429,-1.4010228316666666,2.7690746660000003
5.30766914,1.7858353795490953,-0.1642001242766666,-1.338241580047619,2.874129319047619
5.324460898,1.7949736003824288,-0.6736140932290476,-1.080972952561905,3.2646160241904765
5.341277486,1.7443304174490952,-1.2553533372290477,-0.6228351650619048,3.8502777911904764
5.358078042,1.615275269401476,-1.7354352587671427,-0.45210294501428583,4.224478882761905
5.37489583,1.430840492211,-1.9249248958909526,-0.7955226245761905,4.597520881428572
5.391703782,1.2178396724348095,-1.999806222452857,-1.0649555893666667,4.894349648619048
5.40851739,1.0086800370776667,-2.0286231267957144,-1.0575036520761905,5.030635015952381
5.425325199,0.7936666011714285,-2.0076573008528573,-0.8410353462666669,5.195471640142857
5.442127992,0.5248317831952382,-1.897243772243333,-0.6220104269333334,5.381546643
5.458937328,0.20147233919523813,-1.7139171873099999,-0.5037437082190477,5.542192551857143
5.475744426,-0.11771263394761904,-1.526286919924286,-0.5012823372666668,5.619452172571429
5.492551135,-0.4296279067095238,-1.348420370205238,-0.4323808736109524,5.591477987714286
5.509355018,-0.7090019952809524,-1.2474416097195238,-0.2656530638966667,5.5246995958095235
5.526170762,-0.9301907675666666,-1.1315663883004763,-0.08077631537285723,5.461687813809523
5.54297497,-1.1598683084714285,-0.9603951545385715,0.005364144141428488,5.449269774714286
5.559783583,-1.4312078158047619,-0.804084755157619,0.11642422991285706,5.454694926142857
5.576591127,-1.7160652705666668,-0.6945270811195238,0.27062971680809517,5.457870489714286
5.593400646,-1.919740551995238,-0.5974842480861904,0.5200692060938095,5.4381736084285714
5.610214295,-2.0540480499952385,-0.48810865771904766,0.7399145010461904,5.3990421934285715
5.627015664,-2.139152254342857,-0.39704920004761907,0.8263947637795238,5.396304634285714
5.643822955,-2.1855091821333335,-0.28366820023809525,0.7714372547319046,5.367405934952381
5.660630754,-2.1822641122666666,-0.03111144480952382,0.6053809396366665,5.244860970380953
5.677446385,-2.132894050490476,0.40990193679047626,0.18906284092238093,4.926787402285714
5.694246952,-1.9646662303333333,0.9163779303333335,-0.44898260626809533,4.522482517285714
5.711056674,-1.6157913435238096,1.3284083774333335,-0.7348189623157143,4.3865211723333335
5.727863201,-1.1325746377619048,1.4512048902428571,-0.42189311836333343,4.310154337904762
5.744659301,-0.6589318570952382,1.497002283657143,-0.16767546531571437,4.262635898904762
5.761484405,-0.21727574442857145,1.5889879861809522,-0.06351354432047625,4.338164512714286
5.778279538,0.2157977762380952,1.6947019439904762,-0.1491137870490477,4.358674856666667
5.795095221,0.5496768383333333,1.670883882561905,-0.2650679137014286,4.219264930619048
5.811893976,0.7499946298428571,1.4173273131809525,-0.36043358273476195,4.028425613952381
5.828708795,0.8814095087904761,0.8938105900857144,-0.38292858002047625,4.136220417809524
5.845508385,0.9019987072190476,0.04303970780000013,-0.3849270300953334,4.662005310666667
5.862321361,0.715769330647619,-0.6003655255333331,-0.45364468579533335,5.147871617380953
5.879141043,0.4249603010285713,-0.667462985042857,-0.5849300694143811,5.397982306428572
5.895938892,0.19754703269523802,-0.4874335473761902,-0.46752447602390484,5.705917292857143
5.912752998,0.06830713288571422,-0.37813116285238074,-0.2887339634620001,5.9101198761904765
5.929560309,-0.007438676733333364,-0.44155229870952356,-0.21522462792866673,5.970261342238095
5.946365199,-0.0629012755428572,-0.6134260498523807,-0.18391769130961913,5.994956859333333
5.963174086,-0.11541587406666673,-0.7791028025666665,-0.1171524396905715,6.036085272619047
5.979984337,-0.169687958052381,-0.8585788865790475,-0.03832345205723818,6.0861987817619045
5.996789694,-0.2346260548333334,-0.8794849489409522,0.06924320546657135,6.141363086142857
6.013596852,-0.33334093440000007,-0.8570441067504759,0.18733093994276184,6.154689227761904
6.03040868,-0.48048104563809535,-0.802039646302857,0.295770181085619,6.098659511666667
6.047214567,-0.6710842167047619,-0.7387162166552379,0.42952376460942854,5.943590643095238
6.064022783,-0.9623510554047618,-0.6677667076219045,0.584773269433238,5.662184391571428
6.080828893,-1.3126373575190478,-0.5864907222695236,0.6686275501999047,5.314807029361904
6.097638421,-1.5711656014666666,-0.5104517713028569,0.7509913061379999,5.092393932266667
6.114453962,-1.7388221820857144,-0.5205150789219045,0.7236536017570475,4.943662044790476
6.131252372,-1.865716360942857,-0.6241976877314284,0.6531678934951428,4.778573123885714
6.148060771,-1.8960866418,-0.6650519374457141,0.5636994710999047,4.754539333123809
6.164870798,-1.8285126857380956,-0.5630300389219046,0.5386052770379999,4.742082358266667
6.181680071,-1.7969545126933333,-0.2114764398885712,0.5156884775141904,4.485143725171428
6.198488999,-1.7245460806600004,0.49562942386095254,0.3159700575047618,3.975022316885714
6.21529272,-1.407385917031429,1.0616494814028574,0.0662744442523809,3.5805432849333334
6.232101169,-0.9233595530790478,1.0681898706933335,0.0487064406809523,3.3457924665523806
6.248910159,-0.43786952612666685,0.7726512181885715,-0.11500656606190482,3.043084877361905
6.265719311,0.0013586453019046754,0.4782500493314288,-0.29102943628095246,2.829345556171429
6.282523458,0.4025104840638094,0.4201638811409526,-0.4714061362809524,2.771829871409524
6.299314208,0.7510858490638095,0.5329514003314287,-0.6922141086619048,2.7916633261714288
6.316142241,1.046745663635238,0.6094230923600001,-0.9114408095666666,2.824887572171429
6.332948412,1.3071517944447617,0.5821033658723811,-1.1593637636619047,2.9246834437904763
6.349758307,1.5691868975399998,0.4754534220914287,-1.4380013204714286,3.090065606790476
6.366563267,1.792817751587619,0.3173745245676192,-1.5946429286619046,3.190040354076191
6.383370944,2.01181529254,0.23122060863952396,-1.5991626637238094,3.2311741656
6.400184033,2.1992981547971433,0.2137117385680954,-1.601163847057143,3.2955639085999997
6.416987243,2.254728680625714,0.15301895139666682,-1.6494796616428573,3.337279120266667
6.43380017,2.233934675006666,-0.10079356605095224,-1.907990611695238,3.6560494782380952
6.450604297,2.323437645382857,-0.7316287359557142,-2.1679567779190476,4.196548426857143
6.467411221,2.1061353116685715,-1.2310577575271429,-2.042856080109524,4.532095616428571
6.484221889,1.7374351252400002,-1.6129953748604762,-1.3436328967857143,5.209417030333333
6.501027542,1.4925347510495237,-1.9347303936223805,-1.0544118938333333,5.466677851047619
6.5178371,1.3085614727638095,-2.069837933574762,-1.1849683296428573,5.6447706192857146
6.534643902,1.1666777589142856,-2.077968869970476,-1.4384949718333333,5.924527584285714
6.551456208,1.0351323060714286,-1.939309233767619,-1.376015816404762,5.9722709952380955
6.568258707,0.8303208693,-1.7835845720714285,-1.0569372120238096,5.97558993647619
6.585070667,0.5794742335380952,-1.6248501823761903,-0.8624919255476191,6.080345365190476
6.601875077,0.33286604434761896,-1.4605944497761905,-0.7720056999,6.111807526285714
6.61868364,0.10008303329999998,-1.321331160442857,-0.6842701037285716,6.057404056857143
6.635491103,-0.2026208922714286,-1.2042981329666667,-0.4659091347285716,6.079263884047619
6.652299472,-0.514897675747619,-1.1749173346333333,-0.2256526890142858,6.057249104095239
6.669107617,-0.8036627201761904,-1.107318741947619,-0.05765769030000008,5.999816165476191
6.685916881,-1.0799878551761903,-0.9490982010190475,0.10170955880476182,5.917293237571429
6.702726043,-1.4156071799380952,-0.6897118204952379,0.3156738167333333,5.865201733095238
6.719519234,-1.7379137221285714,-0.4067455246380952,0.49432153359047615,5.921830259047619
6.736340227,-2.0166714078428574,-0.23067692347190472,0.6000818922238095,5.988329068190477
6.753140345,-2.198530571866667,-0.15478790373380946,0.6509265047809523,5.939322815380953
6.769956242,-2.203389224619048,-0.09939750034809518,0.6648670151142856,5.925361228809524
6.786763248,-2.1104602587428567,0.15928388779000008,0.7593027069238095,5.7593028111904765
6.803571677,-2.152351197838095,0.8075746355519049,0.7767761320666666,5.378353281857143
6.820383139,-1.9671939328714285,1.3213437853138097,0.49019678425714275,5.087156531904762
6.837206461,-1.6662440755,1.7184376490280955,-0.2654431092666668,4.412132361904762
6.853979724,-1.4659049171095238,2.0347792762185715,-0.5307808035523811,4.112029825142857
6.870799354,-1.2189423698238095,2.159136181842381,-0.3029661206714287,3.978188725714286
6.887614589,-0.8522610665380954,2.1697354090190477,0.12442017456666657,3.843279191095238
6.904417231,-0.44121131453809526,1.9366317249714289,0.31015955551904756,3.8753166458095243
6.921230493,-0.10970845687142865,1.4737464133047622,0.17923274777619036,3.992720032619048
6.938031485,0.07499080603333327,0.838368461304762,0.06135173924285703,4.208164676142857
6.954847067,0.13432212095238089,0.06335780759047624,0.16851251181428561,4.6768209973333335
6.971650715,-0.019678808476190534,-0.39396190617142846,0.032102990671428466,5.011712652190476
6.988455625,-0.29174197295238097,-0.39623530679047614,-0.2778395954238096,5.246734675523809
7.005264065,-0.4358319555714286,-0.37281274764761896,-0.34632236904285724,5.346721380571428
7.022077317,-0.5379267193809524,-0.41668474077619033,-0.2753435004238097,5.447695321142858
7.038881576,-0.6167296342380952,-0.4969381829238094,-0.19747510124285728,5.49313424947619
7.055691776,-0.6216558616190477,-0.678974537342857,-0.08936996402857152,5.453660845142856
7.072500846,-0.5684044020952382,-0.8585390587714286,-0.0005735811714286625,5.378850685285714
7.089307862,-0.5353877318095239,-0.9559795059142855,0.08030568701904753,5.340355270285714
7.106113128,-0.5965148381666667,-0.9647123016285714,0.17483679736666657,5.372434422952381
7.122923399,-0.7404420149714286,-0.8954277263095236,0.13957828850952372,5.475164361142857
7.1397301,-0.9083222662571429,-0.866109325495238,0.1419874628428571,5.483487641857143
7.156535559,-1.0410684120761904,-0.9022180009619046,0.3192836159999999,5.309878904523809
7.173345606,-1.0766786678142857,-0.9661681762809522,0.5000615914761903,5.2096431749047625
7.190154331,-1.0256226006619047,-1.0142965768238095,0.6477104141428571,5.196848698714286
7.206963168,-0.9390769402904763,-1.0289228527285712,0.7268338316999999,5.246406312571429
7.22376999,-0.8737365802904762,-1.0132722397619045,0.6569214605190475,5.307912160571429
7.240565806,-0.9257727067666666,-0.9803463615095237,0.5300855977095237,5.254283996285714
7.25738689,-1.0446493115761906,-0.8259363625571426,0.4295812674714285,5.137055199571428
7.274182289,-1.0868007854333332,-0.4445457909857142,0.37072086897619033,4.9610290679523805
7.291000718,-0.9997345778142857,0.08630956949047637,0.17096157298571418,4.7561415677619046
7.307817367,-0.8345226050666665,0.7636205128857144,-0.29555685182380964,4.436190710380952
7.32462069,-0.4826343571619048,1.1818923496523812,-0.4694034372047621,4.246158927714286
7.341413282,0.028343410599999997,1.0728646687396668,-0.3514122735857144,3.920339205857143
7.35823461,0.4319175594095238,0.9094394956444288,-0.3040225846333335,3.7927165721904763
7.375039419,0.7733006306000001,0.8400749025015716,-0.41892371860000016,3.686443890142858
7.39184796,1.083872698504762,0.8174196879158573,-0.6254394622190477,3.668810410904762
7.408661262,1.3746556383142856,0.8125308808920476,-0.8795990489809524,3.672056375904762
7.42545306,1.6907070987428572,0.7469799405158574,-1.1321941160285716,3.714225498952381
7.442278202,2.055979382314286,0.6026203746110953,-1.3697785253142858,3.8236001515238094
7.459080865,2.388740760838095,0.4215363094206191,-1.547043573314286,3.942165525952381
7.475887474,2.6262716962190473,0.235482034277762,-1.5306577456000001,3.9363769189999998
7.492697063,2.7353412082238098,0.09690788818252391,-1.4248503106476191,3.850705937333333
7.509508148,2.7111007485190477,-0.07295081725557133,-1.4261336241952383,3.9248305229047613
7.52631374,2.603427569004762,-0.32390031355557136,-1.4550983168190477,4.088026986
7.543121813,2.4327909037666666,-0.6206054232984284,-1.3509520632952383,4.307977317952381
7.559927974,2.219974761861905,-1.010692641822238,-1.0918223914714287,4.644102866285714
7.576740748,1.9453119266238097,-1.2872130076031905,-0.9707937779809526,4.745993799809524
7.593546167,1.6621307815761905,-1.486531802574619,-1.0548206879809523,4.790382124714286
7.6103542,1.3819369531952381,-1.613374210527,-1.045407752157143,4.786413364
7.627159974,1.0660380465761905,-1.6902126130355715,-0.8878997819190478,4.800802332190476
7.643970347,0.7286368949095238,-1.6625687962260476,-0.618961984157143,4.776309921619048
7.660775522,0.4316631328619048,-1.5118722915260474,-0.3413571147142858,4.707153992333334
7.677583249,0.21121495681428573,-1.298805917959381,-0.18245742714285726,4.707396584809524
7.694380499,0.11236457033809522,-1.1648801167133331,-0.21150088590476201,4.742458549095238
7.711199733,0.0026253121809523736,-1.146783874084762,-0.2808905726142858,4.6200634729047625
7.728001865,-0.1721090077904762,-1.0628895985752382,-0.26375252855238107,4.557048293619047
7.74481531,-0.43604653783809527,-0.9755286488419047,-0.11733723250476201,4.541694545095238
7.761616516,-0.8048881177904763,-0.8540092876371427,0.05358397397142846,4.5959586138095245
7.778436309,-1.2751299368857143,-0.6784722009752381,0.19353972735238084,4.654404838
7.795222889,-1.8011372031714288,-0.4494693846419048,0.3055335794904761,4.662215506523809
7.812045254,-2.2244002761238093,-0.1883875074514285,0.4072491158142856,4.6522129309523805
7.828857021,-2.4314828656,0.07753880821523815,0.49713095035238086,4.67294357547619
7.845667893,-2.392085222890476,0.23884614312000005,0.5350352639857141,4.672450666047619
7.862462467,-2.1156238089857142,0.2894366582628572,0.4731182258047618,4.771310477857144
7.879275932,-1.7128821270333332,0.37824076702476195,0.31218258261904747,4.895045590380953
7.896091117,-1.3622726201761908,0.572686922024762,0.03241508066666654,4.852934487619048
7.912893738,-1.011662437747619,0.9532442093438095,-0.2563084278519049,4.647809585857143
7.929693481,-0.5529127234142858,1.2350672768009525,-0.344989279894762,4.727478170952381
7.946510618,-0.09925189470000002,1.3640261605390476,-0.24436016026142865,4.844609618761905
7.963320909,0.13809996558571425,1.3666682471104763,-0.20638638167238108,4.80182014947619
7.980133774,0.2867962632952381,1.0535905475238097,-0.3537312150057144,4.9398613028571425
7.996934767,0.3710937840571428,0.4216331074761906,-0.5704857252914286,5.275548335
8.013742638,0.32015383810476183,-0.23054418095238086,-0.3326177284961906,5.561060341190476
8.03055066,0.09481369877142853,-0.5468888962857141,-0.076194521924762,5.669046144809523
8.047359741,-0.1891939413238096,-0.4715512365714285,0.08037880774190466,5.85900472204762
8.064166747,-0.36783654350000006,-0.26095390310476185,0.1610586018799999,6.0727270542380944
8.080975727,-0.41003083048095246,-0.27791572745238086,0.22969616026095224,6.136674653714286
8.097783189,-0.32076555208571433,-0.4419865153095237,0.32397464907047613,6.125176332809524
8.114577917,-0.14434278581904766,-0.6495640844523809,0.4090644972133332,6.042908485047619
8.131398432,-0.009205863628571474,-0.8255644751809522,0.34468368116095227,5.875944339999999
8.148212039,0.12377446037142854,-0.9779940558714285,0.39022632435619037,5.7099599097619045
8.16502349,0.22769458518095237,-1.0954614365857143,0.5115669908419046,5.597687203238095
8.181822326,0.23452573160952378,-1.1592069352523808,0.6082362276371428,5.57234566947619
8.198630187,0.09407149041904758,-1.1054560115857142,0.7169620251942856,5.657192303142857
8.215429645,-0.1967464117714286,-0.8937716937761906,0.8741578827657142,5.584889552380952
8.232246791,-0.5817578350095238,-0.6791114806809524,1.0447285713657142,5.354927420761904
8.249036423,-0.9058769033428572,-0.5443006242523809,1.1567570041219046,5.1691276448095245
8.265861261,-1.191627258395238,-0.5239420844904762,1.158186989089,4.962464934761904
8.282659386,-1.5344445422,-0.5209084010761904,1.1864544691651904,4.646514636571429
8.299490531,-1.8125856093428572,-0.4637242725428571,1.261724273279476,4.383384406142857
8.316285299,-1.8087903034380954,-0.3599077860047619,1.2588928142332856,4.378055667
8.333094023,-1.652670298338095,0.0002926872523809843,1.2948252472809048,4.183384844000001
8.349903919,-1.4033976566238096,0.5650470369952382,1.3598211378523333,3.7762329316190475
8.366688564,-1.0133529447666667,1.0406368800142856,0.9935938403285237,3.456307691761905
8.383518906,-0.5227611689571429,1.1300209590095238,0.5386258874237618,3.403803603142857
8.40032285,-0.1028822093380952,0.8926561673380953,0.24428176875709512,3.3245447228095237
8.41713959,0.21539689804285717,0.6383083888142858,0.14635880217614275,3.23676199452381
8.433943493,0.497731713947619,0.5472814468761905,0.11574248469995227,3.3191596800952383
8.450748943,0.7554674317904762,0.6051701590628573,-0.038968585790523924,3.3989061288095237
8.467559081,0.9944377455238096,0.697020530667619,-0.2697320438381429,3.4563768434761903
8.484366982,1.311073762904762,0.7333933057914286,-0.35942342164290486,3.5510773965714284
8.501176195,1.6617984827142858,0.6548313412914286,-0.49609454469052383,3.664443374523809
8.51798083,1.971622535047619,0.5243865875771428,-0.6872674566905239,3.7624718812380955
8.534791376,2.241704759047619,0.41005702245142867,-0.8678671745476668,3.8016005399999995
8.551585961,2.4745798734285716,0.30501585915619056,-0.9987653152667144,3.7765191552380952
8.568406017,2.648238272809524,0.14850300836095243,-1.0788566114619524,3.703000843142857
8.585210664,2.7728120769142857,-0.0439738318771428,-1.0608810909190953,3.6989016912380954
8.602024189,2.8676578941238096,-0.3015223003533333,-0.9341808187705238,3.8311237049523807
8.61881673,2.902767175661905,-0.6490893136723809,-0.6520160194571429,4.190216186904761
8.635638446,2.8435774359809525,-0.9897739773533333,-0.4068121724904763,4.557818151095238
8.652448217,2.7186543259809524,-1.2372227623390475,-0.44847050248952386,4.69728760152381
8.669231643,2.5201476074095237,-1.432820547210476,-0.6572612816180954,4.868303718523809
8.686062015,2.248502833504762,-1.564374787467619,-0.7029712265228573,4.934356563571429
8.702868633,1.8910836151714288,-1.5841802415390478,-0.5634644579180953,5.004771101428572
8.719677308,1.3667386259333332,-1.4347493307961905,0.5094974058914286,5.775141097000001
8.736473907,1.1112908068380951,-1.325887362172381,0.17403351870095232,6.079648745428572
8.75329434,0.9810363792666666,-1.1317759695485714,-0.024115390394285726,6.26385455352381
8.770088234,0.8696764537904762,-0.9451164064057141,-0.06877668808000005,6.209957615380952
8.786895452,0.702096802895238,-0.8586194401771428,0.03835255649142853,6.183815930190476
8.803720779,0.4025165013714285,-0.8670601844866666,0.3156235604580952,6.2232506736666675
8.820521549,-0.014388515723809555,-0.8144807815676189,0.5095293908390476,6.241075395380952
8.837334749,-0.4974735349619048,-0.6824407804866666,0.6140748819071428,6.33377183095238
8.854139781,-1.027816931295238,-0.4552091417247618,0.7597910324785714,6.4315076422380955
8.87095106,-1.4833959623904762,-0.23829646343904753,0.9142831893357142,6.467220136761905
8.887754362,-1.8373277300095237,-0.07024987545619037,1.0365244337785715,6.493254669095238
8.904566973,-2.0669499237238096,0.05556453969619056,1.0694521796414285,6.505222159666666
8.921372464,-2.1264414445809523,0.1475792157295239,1.0866090885504762,6.489277276476189
8.938182774,-1.9755242607809524,0.17489340182476198,0.9126051071219047,6.608827719904762
8.954986627,-1.6852591093714289,0.22961214601523816,0.5878249381695236,6.772175311761905
8.971798646,-1.3275638023333334,0.4658495811104763,0.2002490847409523,6.746015383999999
8.988605235,-0.9098625012285714,0.8042878422295239,0.015711259645714175,6.721200133333333
9.005414032,-0.4760796796095238,1.044995466777143,0.06926252427809512,6.87762040257143
9.022219379,-0.040853034847619055,1.2543632869676191,0.232953937135238,6.943233016761905
9.039029772,0.2997026784380952,1.438246658777143,0.37671708193999986,6.953891885619048
9.055836961,0.5169211455857143,1.460138661424762,0.38906258043047603,6.790092367333334
9.072643925,0.7659384863952381,1.0137723967104761,-0.6129009042361906,6.099426077904762
9.089454034,0.7035928226809522,0.2742596352819049,-0.09707983333142874,6.115033175523809
9.106258862,0.46817354930000005,-0.4939563842895237,0.6139153412876188,6.362362964571428
9.123069784,0.1235220318714286,-0.721383571670476,0.9591966101733332,6.6890868158095245
9.139877227,-0.17775512875714283,-0.5429719062323808,0.8678510274590474,6.83894749247619
9.156683134,-0.31154198875714284,-0.2801007089190474,0.7129904855066665,6.910769828285714
9.173490048,-0.2385783877095238,-0.2319068908714284,0.7067414777923808,6.8711176438571435
9.190288712,-0.0145983071857143,-0.40260989323809504,0.8965608818671427,6.76114478647619
9.207109156,0.26362927184761903,-0.638604164095238,0.9746026454385712,6.581219114619048
9.223909407,0.42109394637142855,-0.781299454790476,0.8183142770576188,6.409877414095239
9.240723554,0.5108581951333333,-0.8794299987904759,0.7993429048385712,6.275921415809524
9.25751829,0.5671451148000001,-0.9265163284571427,0.8759633360280952,6.238297587380952
9.27434023,0.5217097088857143,-0.9055597667428569,0.9772543964571427,6.294380953809524
9.29114865,0.2790714274571429,-0.7480072065999998,1.1868563550285713,6.184099318666667
9.307957018,-0.09388807278095235,-0.5236887249809522,1.4628267061238094,5.9248382869047616
9.32476439,-0.5081905978285713,-0.3641071999809522,1.6165282896476192,5.654868724476191
9.341567519,-0.9263287385333333,-0.30867635624285694,1.5736021938380953,5.367259574809524
9.358382094,-1.3068708124742858,-0.25986598774285696,1.5302422500476187,5.0580310257142855
9.375191999,-1.596460444569524,-0.2998572983952379,1.5623341656476188,4.766195207857143
9.391994975,-1.7046807096171428,-0.414381844538095,1.5068268378190475,4.634368258476191
9.408798939,-1.60376330786,-0.45300424654761884,1.4140171436904763,4.662200315476191
9.425615813,-1.4046616384314285,-0.15861370437142838,1.4235508498333334,4.472484273095238
9.442418627,-1.1424968186219049,0.46532735383809537,1.4260185502619047,3.9758823389047615
9.459228868,-0.7567696401457142,1.0227322352428572,0.990813476690476,3.5014215215238096
9.476034307,-0.2718925987171429,1.1121267137952384,0.47924191040476183,3.321982151142857
9.492830234,0.1665119272828571,0.9358364060476193,0.25104436988095225,3.183953334904762
9.509654798,0.5571278673780952,0.7118265742809526,0.13643278962333324,3.0328456029999997
9.526456494,0.9303131387114285,0.5918015753000003,-0.018506578043333437,3.0726448639047623
9.543274689,1.2366812909971427,0.6203046299619049,-0.33357426666238105,3.1416852046666666
9.560064554,1.4755679652495237,0.6483274414857145,-0.5722045501385715,3.2123265582380958
9.576883359,1.7566669327733333,0.5591706548952383,-0.512018164014762,3.3232435115238097
9.593690517,2.0018690711066665,0.4458928562666669,-0.5937875622861905,3.4112725629523806
9.610498581,2.1764156818685714,0.38161902202380976,-0.7581567594290477,3.4597382018571428
9.627307926,2.307275465592381,0.31692364101904785,-0.9341474828576192,3.4676308427142857
9.644116539,2.4579096067828567,0.18310058687619069,-1.04515840611,3.4538847155238095
9.660922121,2.5943649042590473,-0.03896513436190455,-1.053288757776667,3.4891900372857143
9.677736043,2.711844858687619,-0.4013772464571426,-0.8808349512528573,3.72640345347619
9.694539438,2.7748076745590473,-0.8323194866952379,-0.6335734100147619,4.078779129666667
9.71133443,2.7604765267761904,-1.2355081013142855,-0.4622499914147619,4.385477619619048
9.728153591,2.6679231496047615,-1.5093867438047617,-0.4795558338814286,4.594052078333333
9.744951666,2.4868224234619047,-1.615435918138095,-0.5892233763338096,4.714240966380952
9.761758467,2.2231183562714287,-1.5926668530047616,-0.6828825785861905,4.832806176142857
9.778569745,1.9169301532714287,-1.4613367261809522,-0.6803571751576192,4.986083562857143
9.795387331,1.628490811319048,-1.2863893281523808,-0.6242495178719049,5.091975341285714
9.812193023,1.377962861747619,-1.0610690116523809,-0.5461474174433333,5.074244186523809
9.828999551,1.1565788813904763,-0.9515127226809522,-0.27809931834809526,4.919407576619047
9.845814288,0.9355156194619046,-0.9524876276047617,0.022754603889999957,4.8911320122857145
9.862617316,0.6737207231285713,-0.9730742317714284,0.28216580262380947,4.962321750428571
9.879428716,0.3012027740333333,-0.913802464742857,0.3391999431642857,4.863008558761904
9.896233891,-0.17126433053809534,-0.8235730669904759,0.4550930970595238,4.831109509380953
9.913042005,-0.6619361014428572,-0.6448324974666665,0.5977245426785714,4.901087680380952
9.929849499,-1.134208906252381,-0.4030550547047618,0.7039107282214286,4.996721165904761
9.94666213,-1.5177557354904763,-0.195506254742857,0.831823141697619,5.081418323428572
9.963457101,-1.8261834326333333,-0.10603035054761889,0.9489153282023809,5.104748086857143
9.98027491,-2.0150166466333332,-0.06668572187619033,1.0287989263671429,5.057402215952381
9.997079057,-2.063396476585714,-0.06414404360476175,0.9866008956671428,5.036366071571429
10.01389141,-1.9845834119190477,-0.07913684831904746,0.8048984407623808,5.107459193904762
10.03069708,-1.8486568473476193,0.09777005525238111,0.45350144866714276,5.013577893857143
10.0475048,-1.5660523232761903,0.46036411479047634,0.10394965742904756,4.868820973142857
10.0643154,-1.0805798144571428,0.7864710491047621,-0.08502585269952385,4.957375846095238
10.08111771,-0.5127532369523808,1.080770129366667,0.0722502951671428,5.2325569134761905
10.09793588,0.01037838338095239,1.3866141184142857,0.2737836808814285,5.494737263428571
10.11473614,0.29050765714285715,1.5243214199714288,0.4720845420719047,5.480692693142857
10.13154536,0.3927866276666666,1.2687981016380954,0.49206349107190467,5.372383772190476
10.14835466,0.4393517062380952,0.5846663658761907,0.39349343940523807,5.656930285571429
10.16516146,0.33425518442857144,-0.24819521679047601,0.6381270799766666,6.148181684857143
10.18196851,0.04001654897619046,-0.7003436088857141,0.8111317355957142,6.584481330333333
10.19876521,-0.24991636047619045,-0.621164571690476,0.5413961892623809,6.761343712142856
10.21558708,-0.4502658162857143,-0.41216852551904737,0.23568205321476185,6.8509811024285705
10.23239988,-0.480605624952381,-0.3824056898047618,0.3884429449123809,6.9487526010476195
10.24920068,-0.35248533885714284,-0.46263190682571415,0.5312771257790476,6.8746843873809516
10.26599814,-0.12201754822380957,-0.5863270759923808,0.6166956623504761,6.709691824476191
10.28281639,0.1247351850523809,-0.7208331880685712,0.6600819116838095,6.517173589238095
10.29962556,0.3063987606761904,-0.8082471121638095,0.6673536897314285,6.354807551761905
10.31643541,0.3809032326285714,-0.8033377103066665,0.5660483724171429,6.322184691333333
10.3332437,0.38745594019999996,-0.8080038798304761,0.4983023746333333,6.335132684190476
10.35004793,0.30310423597142855,-0.7392504102733332,0.5640062738123809,6.273753435376191
10.36685654,0.14198680713380948,-0.5711261205542856,0.7347571301933332,6.098613682090476
10.38367304,-0.06807562858523816,-0.42178385612571406,0.9495278843838095,5.9409681049000005
10.40046128,-0.3856542622138096,-0.3365244639971427,1.0808629044314284,5.7570967699
10.41728366,-0.8502573456695239,-0.22010962183523797,1.1057554985647617,5.401789648852381
10.43408608,-1.341734636364762,-0.17607834243047604,0.9547859194790476,4.954894710852381
10.45089668,-1.6935495989361906,-0.3288939795780951,0.8217981250504762,4.58217624537619
10.46770549,-1.7296486241266666,-0.4686380115876189,0.6318321730028571,4.519880338519048
10.48452132,-1.5706622259790475,-0.33268969421619027,0.544050493907619,4.506444203566667
10.50131943,-1.403595248864762,0.15129806853142874,0.5706458480028571,4.085812393090476
10.51813415,-1.152037194817143,0.7506504966266669,0.24874407247904756,3.5530402433761905
10.53493828,-0.7312898295790475,1.0840319677933334,-0.1311693484257143,3.1661762264238096
10.55174388,-0.24092903595999998,0.9228248822171432,-0.08012397038285715,2.9669874485190477
10.56855196,0.2637448083733333,0.6562203224409526,-0.05559837908761903,2.8507788755666668
10.58536203,0.7247083527542857,0.5977457136266668,-0.27636421951619045,2.9122911779
10.60217122,1.1262344632780952,0.6797766230285716,-0.534989794992381,3.0794002324714285
10.61897733,1.4635785931685714,0.681072984314286,-0.7890960895638095,3.250372330471429
10.63578427,1.734774986892381,0.5938967522000002,-0.9490835959733334,3.3861531509000002
10.65258034,1.9186144272209524,0.5124435878047622,-1.1106312852114286,3.452342304090476
10.66940135,2.1645724773161903,0.3902354239428573,-1.1387379689733332,3.4740899800428573
10.68619913,2.3831409272685713,0.3120764095809526,-1.1389296632114285,3.5325293299
10.703016,2.498837482354286,0.21459222965714309,-1.1733808943952382,3.617092312952381
10.71981359,2.531321582334762,0.03139389117619069,-1.2125378578095238,3.7171607305238092
10.73663295,2.5191142899585715,-0.37757294529999974,-1.2117457859047618,3.9760759771428575
10.7534286,2.4474962382061904,-0.931741555633333,-1.0497175072857143,4.366909201619047
10.77024742,2.3191412460428573,-1.4982866787761902,-0.8343459638142857,4.781931999190476
10.78705988,2.142488252547619,-1.8357981954904758,-0.8803878952523809,4.993890386476191
10.80386261,1.904157899690476,-1.9322771118190474,-0.9742223522047618,5.136381762714286
10.8206795,1.6465186618809526,-1.898491337238095,-0.9670446019190476,5.2202221231428565
10.83748557,1.4019455001619048,-1.8074501128952378,-0.9537798436809524,5.334966022047619
10.8542933,1.1451859077142859,-1.650000140833333,-0.9017940575857143,5.48109418247619
10.87109615,0.8991417601428571,-1.4559385663095237,-0.8066720778714286,5.548614374809524
10.88790358,0.671999976809524,-1.2972536768571428,-0.6588575443190476,5.564650156142857
10.90471516,0.4497806004761906,-1.1927860578047618,-0.48294281398095235,5.561587302952381
10.92151982,0.15687143238095244,-1.1260632333428569,-0.2861296166095238,5.505312479523809
10.93832826,-0.27631424719047615,-1.0805057570999999,-0.12056186660952378,5.386008766142857
10.95513634,-0.8141635372380953,-1.0376081239571426,0.10273480977142857,5.335590846809524
10.97194348,-1.4110396589523808,-0.8913673219333331,0.32772361091428576,5.378365473952381
10.98875268,-1.9933690457142856,-0.6634587560285711,0.43339996103809525,5.490564749809524
11.00555943,-2.4396925085714285,-0.48343665258571394,0.5232113428952381,5.650666227904762
11.02236801,-2.791878189333333,-0.325209163485714,0.5858504203857142,5.712456366523809
11.03917821,-2.963060322242857,-0.21196074712380925,0.6091338111714285,5.652337258095238
11.05598534,-2.8479185274333334,-0.24104658759999972,0.5628681977000001,5.773781936142858
11.07278958,-2.425378691528571,-0.27071112674285686,0.34755071425714285,6.1344311297619045
11.08960254,-1.866615017195238,0.05329472683809554,0.09602090144761903,6.340684148190475
11.1064004,-1.3796832674333332,0.6308088757428574,-0.18829409992857146,6.247521063428572
11.12322098,-0.919525680052381,1.0932646252380953,-0.5148754985952382,6.06752091647619
11.14002293,-0.48977948367142854,1.2930985860000004,-0.601166306547619,6.097578274904762
11.15683276,-0.13860167771904763,1.4077267193000003,-0.5094440622142857,6.059002794666666
11.17364974,0.053448404614285676,1.4469238236333335,-0.33117770726190476,5.94687082442857
11.19044952,0.1204830805666666,1.2546956653000003,-0.26152577997619053,5.842229539809524
11.20724888,0.14362796147142853,0.783855688014286,-0.4715255343095239,6.048168380142857
11.22406313,0.1428866954238095,0.11486153396666697,-0.5275941647857143,6.381432012285715
11.24087417,0.05060360547142854,-0.4295681315095235,-0.08686750848095255,6.861414612666667
11.25768043,-0.1990318071476191,-0.5929722329380949,0.11187160009047606,7.170772734809524
11.27448633,-0.44458686738571435,-0.43259870414761875,0.09500715270952369,7.376333895857142
11.29129589,-0.5324335665761906,-0.32325124719523785,0.10427404009047607,7.5000242513333335
11.30810332,-0.45640251748095245,-0.3988170167523806,0.04977798169047608,7.389018328142857
11.32490892,-0.20839615090952388,-0.6700283457047617,0.0016704484523808248,7.175981204095238
11.34172132,0.12652292711904756,-0.906570071038095,0.06490023069047607,6.949283850571429
11.35852884,0.43028817862380947,-1.0604093640142855,0.08149925999523797,6.644751279357142
11.37533606,0.5890749409523809,-1.1494407197285712,-0.011063199780952503,6.5440082965
11.3921381,0.5839419535666666,-1.1791962212523808,-0.013015541404762031,6.5197864525952385
11.4089559,0.37531681859047616,-1.0172479718238092,0.1029119249285713,6.347496920547619
11.42576057,-0.06491584435714293,-0.7613957720619047,0.3483300080238094,5.905121981261905
11.44256661,-0.594341147504762,-0.650249185785714,0.5589317692714284,5.433663744547619
11.45937447,-0.9809227614190477,-0.6455353780238092,0.6334307207095237,5.141539206547619
11.47619208,-1.2775928292857142,-0.5424403007095235,0.7345873755238094,4.910681542261905
11.49299066,-1.5085339205238097,-0.41146248847142836,0.8611809113952379,4.675499225928571
11.50979494,-1.6083954459047618,-0.3922504695809521,0.8680258009190476,4.595286450595238
11.52661141,-1.5255640858571429,-0.42325923539047594,0.7491645173476188,4.601741592023809
11.54341659,-1.312438556095238,-0.29579871019999976,0.7465236852999999,4.556684631785714
11.56022331,-1.0392443849523811,0.08503659590000025,0.9000837901095237,4.2331821746904765
11.57703491,-0.7622958648571428,0.6438427425714287,0.8460659852047617,3.853201014595238
11.59385104,-0.41997392404761913,1.0730132602428575,0.2066699875380951,3.408230854785714
11.6106471,0.020108319476190406,1.1531463804523812,-0.2700811583190478,3.124598000642857
11.62744878,0.47691807861904756,0.8785356566904765,-0.4252909437314288,2.913283712119048
11.64425867,0.9099927118571429,0.6084340867380955,-0.48871700120761924,2.837359865404762
11.66105645,1.3190767367619047,0.5413877396190478,-0.6087436889980954,2.923868815214286
11.67787961,1.633951272238095,0.6507012957523812,-0.8269252877600002,3.0825015334523806
11.6946675,1.8954660608285712,0.6963640394333336,-1.0457069292838097,3.216201056690476
11.71149419,2.1393987621333332,0.6504148301285716,-1.1753507257314286,3.4634008781904764
11.72830485,2.344636377804762,0.5513660112666668,-1.1767906944457145,3.529815588809524
11.74510881,2.5063709417666664,0.4722609519571431,-1.251913760417143,3.629562459857143
11.76192297,2.6265525249809523,0.39467954633809543,-1.3083392012980954,3.6785217229047626
11.77872786,2.6671046075,0.2964423270095241,-1.3403081057028574,3.6595394909523806
11.79553357,2.6746408030761906,0.0851647512952383,-1.3385340245409525,3.6997098224761906
11.81233936,2.6880413350238093,-0.2964020456571427,-1.26693885246,3.8398376065714284
11.8291547,2.6409830876380953,-0.7931006295142854,-1.0237094859885718,4.185007678904761
11.84595827,2.5386768862857143,-1.2149448848476188,-0.7989245242409526,4.484168291523809
11.86276646,2.3790137824285713,-1.5041775476095236,-0.7571808128885715,4.605458626095238
11.87957591,2.1550757487142853,-1.6355403264190476,-0.7873195949838097,4.663640227
11.89638115,1.9257157643333334,-1.6283917427047616,-0.844459945317143,4.747317776666667
11.91319529,1.6733608302380951,-1.5396274839,-0.8701869335076192,4.861866685333333
11.93000017,1.410909908142857,-1.4165539741428568,-0.8187210248409525,4.925862933714286
11.94680818,1.1788225457619046,-1.2994734219095236,-0.683297881121905,4.885102202666666
11.96360099,0.967950202142857,-1.2078291347857142,-0.42660985393142875,4.855742512809524
11.98042252,0.782351022647619,-1.0394823891666665,-0.28137038151904775,4.846177935095238
11.99723245,0.5066821177904761,-0.9048764818952377,-0.1969696993285716,4.768658998523809
12.01403922,0.07129023755238084,-0.7956519353619046,-0.038833371280952586,4.731843576809524
12.03084636,-0.48605528897142863,-0.6427576654952378,0.20406514971904743,4.771285406428571
12.04765744,-1.111926084447619,-0.44976325255714267,0.3816488555285712,4.895530667666667
12.06445806,-1.7075359764476192,-0.23753238851428557,0.5321641280238093,5.002979590571429
12.08125733,-2.124450394066667,-0.03409821636666646,0.6253530382666664,5.087353748761904
12.09808142,-2.3402457180190472,0.10896948413333354,0.682061328695238,5.067964513190477
12.1148878,-2.3155257531142857,0.07267377499047639,0.6337349697666664,5.114593055952382
12.13169473,-1.973292651590476,-0.10985853549047597,0.4888163392666664,5.515458083666666
12.14848791,-1.517770466304762,-0.0732499303476188,0.34064140909523793,5.873863826
12.16531319,-1.2727817864333333,0.27285003670000024,0.1765596766666665,5.898542868095238
12.1821069,-1.0524355172761903,0.7253295581285716,-0.17835452304761926,5.680969592904761
12.19892543,-0.6958630765904762,1.0493603888619047,-0.5109165722380954,5.624978057190477
12.21574271,-0.2394476164,1.3279777481952384,-0.4906952381095239,5.770984388809524
12.23254077,0.12302219302857142,1.4681301117666667,-0.2880086784904764,5.8608241700952375
12.24935339,0.2362097445047619,1.2917931193857144,-0.1114724079190478,5.794084442238095
12.26615733,0.22900390626666672,0.7157976968142857,-0.20094286253809543,6.061581174190477
12.28296895,0.16651980083809523,-0.042428130090476135,-0.08515075833809543,6.455470616857143
12.29977153,-0.07624978106666666,-0.5143955547571428,0.31534806894285694,6.891236839142858
12.31658608,-0.3738393101619048,-0.4774302754238094,0.4033899421333331,7.17913768452381
12.33339198,-0.6532983098095239,-0.23593166885238082,0.3082830281809522,7.461847253190476
12.35019862,-0.8110931146190478,-0.09719962155238081,0.24583802341904745,7.605109412571429
12.36698566,-0.7787323224285716,-0.25837739298095225,0.21963298327619032,7.562024839761905
12.38381562,-0.49052412162857156,-0.6568221363619047,0.1814179307523808,7.478845593666666
12.40062206,0.08126062441904755,-0.9509409040761904,0.12357083109999982,7.321298767380951
12.41743265,0.44003700078571417,-1.0518383979333332,-0.020700519966666848,7.067200972904762
12.43424259,0.6816515014619048,-1.1483622505047617,-0.02460616256666685,6.860189207047618
12.45104338,0.793926080095238,-1.1702913555999999,0.10581086652857125,6.831370927380952
12.46785524,0.6531075182652379,-0.9902342841238093,0.2547967576714284,6.815196768428572
12.48466342,0.24345353106047618,-0.6594888141714284,0.4195891477476189,6.471648224285714
12.50146338,-0.2538421664776191,-0.4401199249333332,0.5674722166761902,6.11584656195238
12.51828145,-0.5515098060585715,-0.4298933573619046,0.6616999734476189,5.927719338095238
12.53508536,-0.7765171073442859,-0.4108961195523808,0.8191451941619045,5.785049044809524
12.55189364,-1.086171320469143,-0.3027453649047618,0.9988916885476188,5.5338704603333335
12.56869143,-1.4533389862929524,-0.2885794866190475,1.0024414232999999,5.221899741809524
12.58552178,-1.664352984612,-0.32073527287619036,0.8464920208619046,5.007948165428571
12.60231331,-1.6086647793929525,-0.1724742026047618,0.6486990196238094,5.019766770238094
12.61912771,-1.3829928466024763,0.28673959920000014,0.6964417156714284,4.678826515
12.63593821,-1.0730027925072383,0.8531926245761906,0.5734157193285713,4.178056302714286
12.65274153,-0.5768976211262858,1.1280928793380953,0.11342198228095218,3.755244446047619
12.6695482,-0.022701047697714347,0.9808172271380953,-0.23638934462380976,3.5353301154761905
12.68633682,0.4736876714927618,0.6662862187195239,-0.3812605624809526,3.2921605668095233
12.70317232,0.9398524874927618,0.47073425564809523,-0.4591347461333336,3.23552530647619
12.71997981,1.403252862730857,0.549920922214762,-0.5578663944809525,3.3666821874761905
12.73677772,1.703937280740381,0.850971517071905,-0.7203523402904763,3.4227530268571424
12.75358938,1.7409798985499048,0.9517681711909525,-0.8445633422571431,3.441457519952381
12.770404,1.966103315373714,0.7405257451909525,-0.7865775766380955,3.587379511190476
12.787207,2.1300601505070476,0.5423401196195238,-0.8240192674238097,3.7028583704285714
12.80401391,2.207339831778476,0.3967851002338096,-0.9967359077571432,3.725139487571428
12.82081532,2.329484587656095,0.2518032164290477,-1.1576493865190478,3.7226622706666666
12.83763128,2.4508305901941903,0.07058638614333337,-1.2056952942190478,3.725230068952381
12.85444631,2.559959678446571,-0.16747065957095233,-1.1947522163380955,3.736739327380952
12.87124614,2.627884598027524,-0.4916089603328571,-1.098494507014286,3.885463780428572
12.88805483,2.6349762394513334,-0.9166039512852381,-0.9046799625857146,4.205317412904762
12.9048642,2.5712652263380953,-1.3322805677614287,-0.728536705209524,4.512442862238095
12.92167196,2.4820324239714284,-1.7105485825709525,-0.7542467011238098,4.760474306952381
12.93848507,2.3432524885761903,-1.9186611175995236,-0.9040434680190478,4.992012315095238
12.95528796,2.132936267642857,-1.9352607273376188,-0.979151031114286,5.133872391142857
12.97209414,1.8671329135190473,-1.816871574999524,-0.9684023495428574,5.25749003295238
12.98889856,1.5819595995666667,-1.633476211947143,-0.8638819009285716,5.363627433761905
13.00571323,1.2720270838047618,-1.3847461428519048,-0.7231624247476193,5.4230421647142855
13.02250727,1.0057454222809523,-1.2013088862709522,-0.6306008562238097,5.3744112622380955
13.03932715,0.7519191674238094,-1.151649793042857,-0.48384233960476214,5.2703308630476196
13.05612446,0.43839334309047606,-1.0886054266857144,-0.3120122531428574,5.21491372
13.07294189,0.013550224804761804,-1.021139349347619,-0.20074998846190498,5.057993093904762
13.08974319,-0.5033453418619048,-0.9562797547285714,-0.022220635080952622,5.003105205
13.10656092,-1.0465031464333334,-0.781421774990476,0.17498614025238068,5.081296583857143
13.1233526,-1.5979333945285714,-0.4663681530380952,0.3255372606809522,5.176287436190476
13.14017768,-2.0345303671000003,-0.14406544822857142,0.43783407755238074,5.308833243238095
13.15697803,-2.3249924295761906,0.11013864334761905,0.5028791618476188,5.434593538809525
13.17379921,-2.4325017247380956,0.24440347581904764,0.4951136246095236,5.432110343333333
13.19059544,-2.2792371795,0.230685461152381,0.3519550298523807,5.616868576571428
13.20740664,-1.868179480309524,0.15789363500952383,0.23376845947142835,6.000482607142858
13.22421679,-1.458528507404762,0.35159655983809524,0.0793190306428569,6.19949451452381
13.24101909,-1.1238318171619048,0.7257227216904761,-0.2524739596904764,6.118510090666668
13.2578327,-0.7493097385428572,1.0018376850238095,-0.6424635741666669,6.082753539666667
13.27463992,-0.3856879303523811,1.2990316209761903,-0.7091145856761907,6.060087537714286
13.29145207,-0.12938105501904767,1.4475763412238096,-0.4924761341428574,5.916797205
13.30825302,-0.0037944885428572175,1.2265471958333332,-0.2602055584523812,5.8438178736666675
13.32506248,0.05371720440952377,0.5888185727857144,-0.10689674115238121,6.060254526142858
13.34187033,0.046020553123809455,-0.07887790326190477,0.08435086680476164,6.3996282466666665
13.35868008,-0.13019644654285722,-0.43708360769047616,0.19267479848095212,6.569482705285715
13.3754844,-0.40045405578095244,-0.42243507935714286,0.27148375612380926,6.789783788857143
13.39229662,-0.5666435787809524,-0.2524253755,0.3169138544095236,7.027300572
13.40910346,-0.6262982460666668,-0.21639199488095237,0.2370228539333331,7.019913991619047
13.42590824,-0.5367650419428572,-0.40817129045238093,0.2837683302190474,7.0324656174761895
13.44272113,-0.2988591195666667,-0.6494218054523809,0.39069759836190454,6.985239689952381
13.45952764,-0.021356242190476292,-0.8718187241666665,0.22033308226666648,6.735435284857142
13.47633501,0.20451202833333326,-1.0273754937761905,0.011292088552380725,6.493569692333334
13.49314505,0.4264486061904761,-1.1515426182523807,0.07474409677619025,6.2886769193809515
13.50992946,0.5244897034761904,-1.2462430455380953,0.17923104476666643,6.165584215619047
13.52675895,0.4494627599238094,-1.236542656442857,0.3635422019571426,6.190430771571429
13.54355478,0.15920432396190468,-1.0480026746333333,0.6082672760523807,6.0274985384285715
13.56037613,-0.34604843458095247,-0.786435922157143,0.7037573400047618,5.580641940666666
13.57717249,-0.7911138137142858,-0.6821074941761904,0.7689452540333331,5.210315832285714
13.59399164,-1.0813449450857144,-0.6643001694571428,0.8993909273714283,4.949334457380952
13.6107984,-1.3330770504190477,-0.5536020144571429,1.0751298949766666,4.667565696809524
13.62760412,-1.5534633511809528,-0.4458198549333333,1.0338139079766664,4.53592232995238
13.64441788,-1.6106997898952384,-0.33122337451428563,0.8410976613957141,4.595511649047618
13.66121857,-1.4372523171809526,-0.10025231061428568,0.6609345106576188,4.5794139925238095
13.67803474,-1.127885920704762,0.3725986252619048,0.518768923595714,4.270025182857143
13.69483592,-0.7453006449904763,0.8684351103095238,0.17894960583380928,3.912926002047619
13.71164985,-0.24937174441904772,1.0595786457190477,-0.03232364426142883,3.6578465183809525
13.72845639,0.2610921518190475,0.8898964608619048,-0.03911055552333359,3.403595705952381
13.74526073,0.7000375587714285,0.6133196012428572,-0.10642115559952406,3.2741149344285714
13.76205584,1.1001406850571427,0.5067827587190477,-0.24319121098047644,3.3692940978571433
13.77887967,1.407490979980952,0.6774699800523809,-0.4919759346947621,3.5173184963333335
13.79568637,1.684265011747619,0.8381017048333335,-0.7314007764090479,3.6012683736190474
13.81249766,1.9664837178,0.879368418652381,-0.7323350990757146,3.781811362190476
13.82930196,2.2640249274190474,0.8111338387476191,-0.7525804695042859,3.9010938180476193
13.84611271,2.477332183180952,0.6946250142857143,-0.9356232682185718,3.9476001393333333
13.86291884,2.6708013272285713,0.5114773568095238,-1.0590706069804765,3.927905901
13.87972841,2.8115197418952382,0.31793242404761907,-1.166244204504286,3.8657063522857142
13.89653414,2.8668007508904756,0.11896092547619047,-1.2149787360376192,3.82339233652381
13.91334442,2.881018161657143,-0.2132131031904762,-1.1230610509423813,4.018167554285714
13.93015021,2.8466075884666666,-0.6752888815714286,-0.9367027182852383,4.376264492476191
13.94695955,2.742693849838095,-1.076875505,-0.7506994079566669,4.722456388476191
13.9637659,2.6041911895999994,-1.3808713186190478,-0.7968589223238098,4.907377293619048
13.98057479,2.4271851720285715,-1.6498955544761904,-0.8070235691809527,4.984860999047619
13.9973729,2.1955188852666665,-1.7948498498571428,-0.7667904679904765,4.990943242666667
14.01419014,1.8972918248380952,-1.7302866208999998,-0.6787489921333335,5.016826218666667
14.03099876,1.5592845450761903,-1.5087270963476191,-0.5962742608476193,5.0828193359047615
14.04778224,1.2779333420761905,-1.3159894034904762,-0.437317186039524,5.048674335904762
14.0646071,1.123446867547619,-1.1607633090904763,-0.4005341975728574,5.052738853904762
14.08142385,1.0492382219761904,-1.060672464804762,-0.42415146943952414,5.017949093761905
14.09823159,0.8263590165666667,-0.9968104362190476,-0.2429479054109526,5.018817134142857
14.11504167,0.4072998421380951,-0.943972564852381,-0.01281433788714311,4.980304871476191
14.13184427,-0.10809736590952386,-0.9176275843285715,0.16448232329380927,4.917388720428572
14.14865455,-0.6872948181,-0.8270243008714285,0.2857570954366664,4.940235342333334
14.16545761,-1.2489273151000002,-0.6293242772142859,0.41657725057952355,5.008747767
14.18226657,-1.733474385195238,-0.4036608196047619,0.5927325452938093,5.088753985666666
14.19908538,-2.1142976568142857,-0.18516265776190477,0.7045864513699998,5.190669902571428
14.21588312,-2.344649172957143,0.05874025257142856,0.7493982621366664,5.268168937380953
14.23269566,-2.4182253281333335,0.22080791566666663,0.7088483040890473,5.266690284714286
14.24950588,-2.261749057547619,0.27125465305238095,0.5855433608604759,5.362452534190476
14.26631067,-1.9237228064380953,0.4288455645285714,0.42744985732238067,5.440057889857143
14.28310417,-1.4653716484952384,0.6790689513857143,0.2440268093271426,5.451833274428571
14.29991595,-0.9498870486380954,0.885350159242857,-0.05072465881571456,5.502289434380952
14.31673888,-0.43205013730476205,1.0406129246714284,-0.2098505204823812,5.730629453380952
14.33354216,0.025021848219047543,1.2567928405142856,-0.16744747533952406,5.847092917952381
14.350354,0.24161603336190468,1.3048198336666665,-0.062262937325238334,5.705531688380952
14.36715995,0.3226358890761904,0.973554316047619,-0.05358958732523833,5.7518859377142855
14.38396904,0.3624981357904761,0.357970215047619,-0.042167872849047855,5.921378355571429
14.40077341,0.23186012674285703,-0.2344500223333333,0.21978868053333306,6.275757854952381
14.41757896,-0.12447283382380958,-0.5237069129523809,0.4363239904952378,6.534777846809523
14.43439743,-0.5751062461571429,-0.4778126534285714,0.4231770947571426,6.828370969190476
14.45118986,-0.8124675864619048,-0.38751681639523805,0.29981340685238067,6.9076173286666664
14.46800587,-0.8057878244619048,-0.4727859269523809,0.2506448655666664,6.872787379380952
14.4847995,-0.6144601617904762,-0.6790519214761905,0.3689893995761902,6.831275150428572
14.50162254,-0.3454827013666667,-0.8046723093095238,0.3976074514809521,6.593584342571428
14.51843341,-0.08827469462857146,-0.9095142454999999,0.2307684535761902,6.3734233931904765
14.53523887,0.12851048651428568,-1.0031638372142857,0.1557101465904759,6.152434561857143
14.55203459,0.342212166117619,-1.1040356953571429,0.19776582722857114,5.976606497380953
14.56885581,0.46857307637952383,-1.198275384452381,0.31960202403333304,5.900214730761904
14.58566948,0.47222099985095234,-1.197377704452381,0.4934355247952378,5.949896047428571
14.60245876,0.28268350305571427,-1.0570381028380953,0.6550806193190473,5.880380573571428
14.61928251,-0.07639438765380957,-0.8592485473142857,0.6741422840571426,5.626117324380952
14.63608258,-0.5076383011490476,-0.620062873504762,0.5926639295761902,5.280034648238096
14.65289814,-0.937579098187143,-0.38030640283809525,0.6051788784333331,4.913652559238095
14.66970005,-1.3427479550728572,-0.23486230488571436,0.776334461733333,4.491460186428571
14.68651578,-1.6354576576442856,-0.27226193747619054,0.8055579094952379,4.210088458714286
14.70330746,-1.631773023406191,-0.26011734918619056,0.7210092488142854,4.265970533333333
14.72012765,-1.4786465906347621,-0.004904656210000067,0.7110139756238092,4.085675283333334
14.7369233,-1.2976572741014287,0.45672534757095234,0.7307896217095236,3.6996531745714285
14.75374397,-1.0220077889442858,0.9131467909614285,0.4051740113285711,3.2240477414761908
14.77055076,-0.5783259017538097,1.0343094325661906,0.1366788206142854,2.9142829408095237
14.78735881,-0.024262854087143015,0.8791964848090476,0.07730268302857114,2.7009730555238094
14.8041562,0.5282610313890475,0.742442176385238,-0.10730173468571458,2.7222433655714284
14.82097513,1.0219567332461903,0.819730486132857,-0.34462726682857175,2.8884059029999998
14.83778346,1.3591425475271426,1.043035439037619,-0.5920867011619051,2.998346066809524
14.85459099,1.625671312912857,1.0670367422138096,-0.767667776066667,3.178507186095238
14.87139935,1.8848772446033328,0.9454622041185713,-0.7240672054952384,3.290069488952381
14.88820797,2.108193119317619,0.7563010396899998,-0.716142223014286,3.375705818857143
14.90501626,2.2143602995238094,0.5877550215471429,-0.8506092628238099,3.4077018213809525
14.92182314,2.3065496285476192,0.4079876172614284,-1.038933294204762,3.4223926140952377
14.93861965,2.4554688873476187,0.21164235611857132,-1.1781374670428575,3.4576491188571428
14.95544802,2.611522243095238,0.03717347549952372,-1.2481078647523813,3.492091560190476
14.97225979,2.7120800812809525,-0.15332737426238102,-1.209118823219048,3.5125575404761906
14.98905954,2.7517038583523807,-0.439069884167143,-1.0879340001714288,3.603864192333334
15.00587063,2.735538891360952,-0.7750679425004763,-0.8730261383142861,3.785813168904762
15.02267346,2.6429204600085714,-1.109952813119524,-0.6150416760904763,4.077804272809524
15.03947249,2.4897330829133333,-1.3705645743242858,-0.37597227104285735,4.3299642158095235
15.05628602,2.3223424525799996,-1.5479920932428572,-0.29412714222857167,4.413261953047619
15.07309813,2.1428197338561907,-1.6035682814666667,-0.32473059075238125,4.499098565904762
15.08990458,1.931230573418095,-1.544868537390476,-0.38308588245714315,4.664036129666666
15.106711,1.70439663388,-1.4071237473523812,-0.40168345126666694,4.855139046761905
15.12351907,1.4797992365942858,-1.236582529004762,-0.3251455164761908,4.9589518172857145
15.14032954,1.2281416144038093,-1.0631571497714287,-0.17885436271428595,4.951241108285714
15.15713775,0.9310346898799999,-0.9580970264904762,-0.02211252219047643,4.730959219190476
15.17394332,0.5482478255657143,-0.988555476804762,0.3962975746666665,4.675499252904762
15.19075142,0.1589539164704761,-1.0707524617666668,0.5925892484285713,4.502525122190476
15.2075622,-0.28991746905333343,-1.0160516557285715,0.6819656383952378,4.458444136809524
15.22436644,-0.7968519528628571,-0.860666638347619,0.7848772611619045,4.526001247238095
15.24117512,-1.2550534066247618,-0.6406173252047619,0.8726134476666665,4.649979359904762
15.25798491,-1.6140911011009524,-0.3978093238238095,1.0075843510952378,4.815549836619048
15.27479293,-1.8985705261961907,-0.1507812000142858,1.084458681033333,4.898694917190476
15.29159885,-2.08356574602,0.046733878938095164,0.9903294365380949,4.855850617714286
15.3084073,-2.041472173829524,0.08340106694761895,0.802214532295238,4.950123510904762
15.32521766,-1.7955057677342856,0.0632343973761904,0.6984178458476189,5.182804602857143
15.3420228,-1.5394345635009525,0.18450253351904755,0.592455075533333,5.286579290952381
15.35882824,-1.2753280514238097,0.45659076601428566,0.45042081738571405,5.265503218666667
15.37564236,-0.9290277503285715,0.7332785697428571,0.3479017252904759,5.2119116346666665
15.3924559,-0.5715754939952382,0.9463812283523809,0.13214790887142827,5.14535306047619
15.40925544,-0.24352956951904772,1.0516916683999997,0.16303914141904735,5.178428059476191
15.42605372,-0.013197501471428688,0.9417051815047618,0.35135575908571404,5.1990697750952375
15.44287184,0.16785625054047607,0.46866805217142843,0.4364688644238093,5.34222759247619
15.45965936,0.25945834892142844,-0.13512516016190487,0.3741425012809521,5.543049788761905
15.47648648,0.16972545220714277,-0.5349689210666667,0.3861534481495235,5.653281174238096
15.49328678,-0.02788628845952392,-0.6218264669714286,0.4455133051495235,5.781577870380953
15.5101052,-0.24986240974523816,-0.49333181830476186,0.5834599732447616,6.048643671857143
15.52691336,-0.3710297629547619,-0.32431155154761904,0.49997668600666634,6.055888835714286
15.54372255,-0.3892457370976191,-0.3024705931761905,0.5315171592923806,6.094654594047619
15.56052758,-0.23143539533571428,-0.46150096255714296,0.5550024054495235,5.975068807142857
15.57733693,0.08841038324999996,-0.6688088689380953,0.4573993880638093,5.7971915979999995
15.5941466,0.39706335185952374,-0.8016893977195239,0.41246979286380925,5.515342742690477
15.61094814,0.6687563147214286,-0.8614749000052381,0.4283858735304759,5.34033492502381
15.62776252,0.865430457302381,-0.8711764926242858,0.47252747263999967,5.256045443880953
15.64456944,0.9035262097023808,-0.8455251512433334,0.5808861623642854,5.2291182540714285
15.66137605,0.7450968311309523,-0.7124196234433333,0.7574585959257141,5.069433250976191
15.67818313,0.46709745841666667,-0.5149864923957144,0.8967224415447617,4.832634882547619
15.69499345,0.18822075074523806,-0.36910172877666675,1.0221186478114284,4.660984413833334
15.71179829,-0.08573351017857148,-0.3327767736052382,1.056571131578095,4.480363063357143
15.72860896,-0.39770156427380954,-0.2879193851528572,0.931212779230476,4.216772647261905
15.7454158,-0.6696375693357143,-0.2299265408004763,0.920660225325714,4.001671262119048
15.76222451,-0.8798137079785716,-0.13737994154809532,0.8889520586161901,3.800326148980952
15.77903299,-0.9271034030261903,0.04911175222809517,0.7864656724352377,3.6697460053619047
15.79584149,-0.8394744594666668,0.4658292815138095,0.7798725018161902,3.3943440560761906
15.81264753,-0.6158255480380953,0.9478853088614284,0.8672074752923807,3.065114864790476
15.82945783,-0.22639090389523817,1.2100000153614285,0.776433018633333,2.91482147307619
15.84626174,0.23962835191428564,1.1336003030090476,0.558655959442857,2.813513832457143
15.86307474,0.6828655203904761,0.8610387074852378,0.2599013127761902,2.7067220994095234
15.87987945,1.0205833486761904,0.6376071429614284,-0.04907574617619074,2.598315240742857
15.89668805,1.2433305156285712,0.5889965011185713,-0.22350684594285744,2.525962348361905
15.91349231,1.415689931104762,0.6448408989090474,-0.24822518447619077,2.555415815409524
15.93030422,1.535482721757143,0.7081251825042856,-0.20881592167142882,2.5912561531714284
15.94710698,1.700704571814286,0.6679996535333332,-0.266836899414286,2.7488955843380953
15.96391109,1.8879556798571429,0.5248000961857141,-0.40304842522380974,2.826343944147619
15.98073545,2.046213856847619,0.33181928449047604,-0.5375655215571432,2.8725697014809524
15.99753607,2.211082160557143,0.18390344435714273,-0.597194513424286,2.9412329808142856
16.01434434,2.3528761098428568,0.09813290547142844,-0.6265939453095241,3.015909504195238
16.03115117,2.430083283461905,-0.002922353304762031,-0.7032920867380955,3.0276704491476187
16.04796408,2.4942359272761903,-0.16116623649523823,-0.7621436637238099,3.011933058195238
16.06476754,2.5570321850571425,-0.42862556092380966,-0.6909761946761908,3.1659365089571425
16.08157632,2.5910821274333338,-0.7483029592476191,-0.4045300455190479,3.515716457385714
16.09838563,2.551558012161905,-1.052143778114286,-0.07608428171904791,3.876631945861905
16.11519406,2.456866224709524,-1.2573343912714288,0.00923767258095211,4.050728080000001
16.13200032,2.307100965947619,-1.3967468624761907,-0.05537861871428599,4.151758287952381
16.14880936,2.105627309804762,-1.4428766341190478,-0.1259158736238098,4.201649382761905
16.16561763,1.830426363804762,-1.404666514609524,-0.10681528706666692,4.240137466238095
16.18242283,1.5070722217571426,-1.3047183127285717,-0.03900369861904788,4.272147054047619
16.19923543,1.2197995527095238,-1.1229624293761904,-0.07925244457142883,4.296603472
16.21604118,0.9787436894571426,-0.9826778684238097,0.0044037983619045025,4.117025111952381
16.23284828,0.8026563440571427,-0.8983707881857145,0.24223494812380927,4.063572643714285
16.24966059,0.649160498695238,-0.8721223104333335,0.4677638836999997,4.149079277857143
16.26645397,0.3776071526,-0.8205093428952382,0.5864964666333331,4.205714120190477
16.28327834,0.009920585742857077,-0.7547380810428573,0.5626488157190475,4.260124883809524
16.30007862,-0.42659447301904774,-0.6563539959095239,0.5562750639857141,4.318469696904762
16.31688836,-0.874484709304762,-0.526323068704762,0.6355093206238093,4.366778052857143
16.33369541,-1.248497395257143,-0.33958891458095253,0.7927150044809521,4.417847419904762
16.35050816,-1.5644359361142857,-0.13000794816190492,0.9080419994333331,4.464160583952381
16.36729366,-1.8037579286380951,0.00832773391428555,0.9562452804238093,4.453187051285714
16.38412125,-1.8931740919571431,0.050754569838095065,0.8695874809952377,4.435459573571428
16.40091822,-1.8033819766238093,0.025456996171428412,0.6858242778380951,4.560560910857143
16.41773805,-1.6399414085285713,0.20042230967142843,0.532327688838095,4.539161213952381
16.43452408,-1.4151715664761906,0.5466430300523808,0.37380390221904736,4.413701092571428
16.45135239,-1.0877410343809526,0.8498914809285714,0.17990912993333308,4.293484444333333
16.4681634,-0.6125726245714286,1.0015473138523807,0.22972951902857122,4.4982210557619045
16.48497045,-0.07322931290476196,1.0594976061476191,0.2613282799809521,4.776021506285714
16.50177703,0.25425286519047613,1.0524407795095239,0.3298455845714283,4.841121128428572
16.5185835,0.3813010624285713,0.8749711853666665,0.3822083047428569,4.75814952347619
16.53539616,0.4267681893809523,0.4073914799857142,0.2026899712476188,4.957132457095238
16.55219912,0.4029764107142856,-0.24052281606190495,0.19163657939047596,5.236916517333333
16.56900906,0.22807141710952372,-0.6399751844904764,0.47695313750476165,5.634720198619048
16.58581982,-0.0632165500142858,-0.6059137525857144,0.5827661071714283,5.868160966047619
16.60262572,-0.26658133098571435,-0.3886546407142859,0.4607439949809521,6.015413764523809
16.619439,-0.29251651536666673,-0.21135713937619072,0.4422803493619045,6.1099500169047625
16.6362414,-0.16622493379523817,-0.21609383534761922,0.606319453138095,6.04782722347619
16.65304904,0.06293255942857134,-0.36886791949047637,0.7461484700047617,5.938603186809524
16.66985878,0.2688777106380951,-0.48578500740952407,0.6899611099428569,5.7298424143333335
16.68666142,0.3884691624476189,-0.5858870233238098,0.596098908438095,5.571721779095237
16.70348405,0.471917413542857,-0.6913998694190477,0.6004554460095236,5.4475654998095235
16.7202825,0.5154978718142855,-0.730127175561905,0.6263321724333331,5.405038606714285
16.73707548,0.466657615847619,-0.6607794079476192,0.788820116385714,5.406868942190476
16.75389889,0.2672604776571428,-0.4635074250904765,0.9598664273238093,5.269443743761904
16.77070511,0.012795442647618935,-0.37082236140000024,1.0012289101999998,5.125598008666667
16.78752095,-0.2596272740761906,-0.3759154136857145,0.886590634133333,4.926440300095238
16.80432276,-0.5601549630761906,-0.3384436424666669,0.8083443670619045,4.697763976571428
16.82113151,-0.9616379425380954,-0.27546580621904787,0.7291200246571427,4.334607098380952
16.83793919,-1.3828458984238097,-0.2164137021761907,0.7865157298285713,3.914676950404762
16.85473743,-1.5743885011333334,-0.18335131225714307,0.7571596305238092,3.763788403071428
16.87155381,-1.5176449814857143,-0.06661953232380975,0.6644947132238093,3.75532294502381
16.88835309,-1.3479068250476192,0.2781590281190474,0.7741732200809521,3.4445461196904756
16.90516954,-1.1571856594761907,0.7439989135952378,0.793938880938095,3.0706066541666663
16.92197994,-0.8620236969523811,1.0437872524142855,0.400866570985714,2.763053591404762
16.93878685,-0.4473727571904763,0.9177198637476187,0.09170080374761876,2.5281013982619047
16.95558537,-0.009308840476190612,0.6123207183190474,-0.06493603039523839,2.4022894210714285
16.97239876,0.41605309933333323,0.3781491461285713,-0.2870022625380956,2.4090350749761904
16.9892148,0.7866698191428569,0.3860357602476189,-0.5132175683476193,2.556232217690476
17.00601441,1.110876012442857,0.4836497306690475,-0.6794913552523812,2.7227683222619046
17.02283033,1.4429020626619047,0.445539088445238,-0.7422887597333336,2.9836792008333335
17.03963915,1.7360935296619044,0.332750524740476,-0.8056901721333337,3.1310685297857144
17.05644926,1.9488852449952379,0.22856033410238077,-0.9327467878476193,3.193464292071429
17.07324918,2.132395100057143,0.10448580688333317,-0.9938644709857146,3.233722292595238
17.09005999,2.2405874814857145,0.013771102445237937,-1.1053736067476194,3.2309585644523815
17.10686834,2.3002714344999995,-0.13399323974047636,-1.1740102710714289,3.194107654595238
17.1236753,2.3202431230904756,-0.39845057907380965,-1.1537640704523813,3.315339552071429
17.14048534,2.3002930908619046,-0.7664935703119049,-1.0017528873857144,3.5947304022142856
17.15728971,2.2238610813380952,-1.2068545932166668,-0.746802168171429,4.017267035214285
17.17410006,2.074732666990476,-1.5839871906261909,-0.6844148209571431,4.356881126309524
17.19090636,1.8672771057333333,-1.81265581225,-0.7594142697476194,4.627199565
17.20771683,1.6145579759190476,-1.917859213745238,-0.8058998016523814,4.830448729714285
17.2245219,1.355392212080952,-1.8555801028690477,-0.8308077539380955,5.008513886428572
17.24133061,1.1039603609285713,-1.6739367985023812,-0.842730624319048,5.202724465999999
17.25814331,0.858826035690476,-1.5196518217404762,-0.7766801799857147,5.2946580261904765
17.27494588,0.6499651842142856,-1.3329744112261908,-0.7276385681761908,5.33639116947619
17.29175423,0.4995655447095237,-1.1938367117023811,-0.6877498328714289,5.255335183333333
17.3085634,0.3089279562009523,-1.1382890428642858,-0.4850373083952384,5.153828982238095
17.32536891,0.010263204710476106,-1.0806121144785716,-0.20569650763333364,5.025282697619048
17.34217003,-0.4240326312419049,-1.0148381505500002,-0.02533297172857172,4.915776278428571
17.35898637,-0.9916573137180953,-0.8442998159238096,0.08458768893809494,4.918537031666666
17.37578376,-1.6339073974799998,-0.5677294730666668,0.25536351117619016,5.020379065
17.39260252,-2.2027832779085714,-0.2661181176857144,0.38339188978095207,5.2033181803333335
17.40939961,-2.6431708220990475,-0.001985004904762024,0.3744004325904759,5.406935170761905
17.42622257,-2.930795885146667,0.19842050198095224,0.26308774801904733,5.503028529666667
17.44302452,-2.9078165348609524,0.12425452194285702,0.1842402943047616,5.580148013714286
17.45981971,-2.5608725092561904,-0.06044458201428583,0.07230507611904734,5.98169123652381
17.47664626,-2.042586417360952,-0.044204779966666795,-0.07193341856666695,6.327107194619048
17.4934523,-1.624744892075238,0.2415977433095237,-0.19640862239523843,6.337182997428571
17.51026148,-1.2020775135990478,0.6056626410999998,-0.46404867945233363,6.174758471571429
17.5270674,-0.6611584481228571,0.8924583934809521,-0.6991663646904288,6.198151553333334
17.54387728,-0.21809219174190478,1.1189481417666667,-0.6587399912190003,6.158989085142857
17.56068394,-0.0353909674085714,1.184261390195238,-0.5402871044809051,5.9472806335238095
17.57748779,0.007195415924761922,0.8361825716238094,-0.5449218821475716,6.020625773238095
17.5943025,0.020430735162857195,0.2054829597666665,-0.5144069550047146,6.213592322476191
17.6111078,-0.05947324212285709,-0.35114345094761923,-0.20799759033804793,6.530387173047619
17.62791638,-0.30930924421809514,-0.6347379230428574,0.014992309423856886,6.7364465807142855
17.64472658,-0.6347610042847618,-0.5260959352809526,-0.014307249204714554,7.053763614
17.66153069,-0.8686089175857141,-0.29797299702380975,-0.0384495201570955,7.262560658
17.67833945,-0.9865899086666667,-0.23344989050476206,-0.1181529817285241,7.303371539190476
17.69514814,-0.8804886057809523,-0.4662103653142859,-0.13723553934757174,7.274449065000001
17.71195539,-0.6007242600761904,-0.7341149421238097,-0.09454299729995266,7.095503154190476
17.72876272,-0.229895166047619,-0.9174626214428575,-0.2922334160618575,6.802800023047619
17.74557351,0.09782247308571433,-1.0564387412523812,-0.4236403051428098,6.514346064142857
17.76237573,0.35699036568571435,-1.1806789580142858,-0.31783375005233366,6.254935643952381
17.77919343,0.4679656368619048,-1.2754000255380955,-0.10908130524280982,6.121893324714286
17.79599106,0.3167026155809524,-1.1263037863476193,0.06766144714290445,6.0305104746666665
17.81280383,-0.0885788770809523,-0.7746791839666668,0.24075362083338062,5.682034758238095
17.8296003,-0.6162365278047618,-0.4933379037285716,0.38356806689052353,5.247194736857143
17.8464217,-0.9965167727095238,-0.3909708431952383,0.37055505311909487,4.971457201142857
17.86321852,-1.3148727303971428,-0.30581662770000023,0.3497112577523806,4.715693895857143
17.88003385,-1.6673386778542858,-0.23088039672857166,0.4174737972761902,4.380817687428571
17.89683439,-1.8521627415209525,-0.22335704169523832,0.36516838837619015,4.234390387238095
17.91365476,-1.694622806187619,-0.17375099093333354,0.2720181672095235,4.316047296571428
17.9304543,-1.366769501187619,0.13747217539999979,0.2919110641142854,4.149518841190477
17.94726964,-1.0024270728066667,0.6345184189714284,0.187972410733333,3.9132846034285715
17.96407696,-0.6059430270447619,1.089594454985714,-0.31261870840952416,3.6533003015238097
17.98087993,-0.17811556094952385,1.1998666354571426,-0.6803768008380955,3.4750499994285713
17.99769738,0.17991925131714281,0.9650872094095235,-0.6186174112523813,3.145431870904762
18.01450353,0.48163401226952374,0.6694192885999998,-0.6096771175857146,2.967240194904762
18.03130959,0.83226438646,0.522362095933333,-0.7133983274952383,2.9674664718571426
18.04811456,1.1174870814314286,0.6627967697990473,-0.8596671436857147,3.059562150428571
18.06492714,1.330996765964762,0.7391147386228569,-1.0179332168761908,3.165764361952381
18.08173567,1.5333649913171428,0.6139166468466664,-1.0140674072095242,3.3119525041904763
18.09854086,1.7588099042314287,0.437401544465714,-1.0690173038761908,3.4371501170476186
18.11534807,1.9379737064885714,0.3044693356323807,-1.1931614322523811,3.5027862350952383
18.13215825,2.0924351754552384,0.238850707065714,-1.3113717592952383,3.522681653380952
18.14896631,2.1932385393552383,0.18337440488476164,-1.3583178704728576,3.502232182761905
18.16577305,2.2529916337552383,-0.03754177549619078,-1.4037230185157146,3.4888519274761904
18.18257988,2.315752821312381,-0.4192431994961908,-1.415798689644286,3.6620142920952383
18.19939,2.3306979082885713,-0.8792520250676193,-1.304855814996667,3.9784990097619053
18.21619816,2.255139643261905,-1.3426373799723812,-1.0191253565728575,4.401444654714286
18.23300348,2.111548455004762,-1.6220264434676195,-0.8624648679061908,4.620158226238096
18.24981247,1.8897096344333333,-1.7319285528819048,-0.8597058710490479,4.706176484
18.26662173,1.5982095315285714,-1.7593436468014292,-0.898199771096667,4.786110928619048
18.28342997,1.2604128434809523,-1.7387925783728573,-1.0253082996204765,4.9139582738095235
18.30023885,0.9180271653857142,-1.641948858849048,-1.052592195191905,4.965205966571428
18.31705633,0.6511646253857142,-1.512208098387143,-0.8156652748252384,4.887631778047619
18.33385439,0.5126254190047619,-1.3580930800014288,-0.5398209279204765,4.816931056142858
18.3506546,0.46100538122380946,-1.2480714433823814,-0.4025321418014289,4.929617574523809
18.36745778,0.3373986539857142,-1.1243831542776193,-0.33336856961095274,4.964377035666667
18.38428097,-0.007078488633333374,-0.9984932626109526,-0.17832006870142894,4.975199606285715
18.40107933,-0.5198251178714286,-0.8743091990957146,-0.0261380346538099,5.024432254142857
18.41789748,-1.0832897367761904,-0.6861112003004765,0.048455305017618674,5.152728221380952
18.43470092,-1.646946566395238,-0.3937618390623813,0.15086464508428535,5.275102896142857
18.45151234,-2.1131282987761906,-0.10376071915761938,0.2651509996938092,5.353342701190477
18.46831961,-2.41589478082381,0.10323490429476155,0.31418020804142827,5.412185054285714
18.48513019,-2.5591152963000003,0.1714227314328568,0.27330814508428536,5.3878840774761905
18.50193261,-2.463224797014286,0.08903380813761867,0.21810324268571393,5.494828376809524
18.51874239,-2.1774070603238096,0.08349464061380918,0.23522881799999965,5.724894028
18.53555089,-1.824347439252381,0.1921082906138092,0.29709921697619013,5.877414669761905
18.55235712,-1.530805133609524,0.34015650985190443,0.23404148778571393,5.850773663238095
18.56916483,-1.1829237710857141,0.6181491217090473,-0.05097617572380986,5.66422185852381
18.58597552,-0.7094977583238096,0.9380667324233329,-0.2184169477714289,5.743670634190476
18.60278061,-0.27004048937142866,1.1094581968519042,-0.16699364222857177,5.847738615666667
18.61959362,-0.05338685850000005,0.8239319666285712,-0.15053936565714318,5.930820658
18.63639405,0.05264949797619042,0.14416074767619008,-0.2419454612285717,6.318907544666667
18.65320798,0.029155674452380896,-0.48868195222857186,-0.01877329186190509,6.535935826333334
18.67001481,-0.1571512335476191,-0.6994478817000004,0.11686749819999968,6.663093422809525
18.68680972,-0.4128298759285715,-0.5683790389380956,0.16979946543809493,6.93630287047619
18.70362968,-0.6302514416523809,-0.29893977312857184,0.08583151862857111,7.182350321238095
18.72044165,-0.7617406845095238,-0.20422027237619084,-0.05693361167142889,7.229258892571429
18.73724747,-0.6856203760333333,-0.40690537870952426,-0.13039583112380984,7.185414658809523
18.75405295,-0.41400602885442855,-0.668785617566667,-0.22552326605714312,7.024926384428572
18.77084992,-0.09126379374014286,-0.8302593459495242,-0.39876852572857174,6.819454513666666
18.78767168,0.1938980817836667,-0.9381358057114288,-0.4409955668904765,6.544441237190476
18.80449268,0.4005874736408096,-1.0211009980447623,-0.31239733097619077,6.36921435757143
18.8212849,0.4985590038312857,-1.0868136770447623,-0.1818957598000003,6.281657250666667
18.83808322,0.4670661205789048,-1.07164489666381,-0.07374448005238125,6.2806629961428575
18.85489916,0.2788096524884286,-0.8943959191876194,0.03755296842380923,6.231168117285715
18.8717173,-0.0538422294782381,-0.6711011615209527,0.14468992755714255,6.045656477190477
18.88851824,-0.45997534759728576,-0.4005978449019051,0.14949097384285684,5.744457162142857
18.90532779,-0.767173219273476,-0.10133820499714317,0.05936088597142826,5.442620584380952
18.92213104,-1.035754212287762,0.03173555633142826,-0.046533529185714594,5.267861771714286
18.93894912,-1.3585512779639524,-0.037348860944762224,-0.04120053132857173,4.976261037380953
18.95574765,-1.5855224728210953,-0.12451321755952413,-0.09114978563333363,4.775122815428571
18.97256054,-1.542088170787762,0.1629995616785711,-0.09342130163333363,4.602658862761905
18.98936772,-1.350197476930619,0.7586525506452377,0.06248512584285683,4.096455081904762
19.00617475,-1.0592111546925238,1.2059325263690472,-0.15535125842857175,3.798683727476191
19.0229825,-0.6291897892163333,1.2019487562738091,-0.41208827490476224,3.643707132761905
19.03979128,-0.1340969317401429,0.8764039902738092,-0.5330945593333337,3.387612108
19.05659963,0.3716171895455714,0.5079330944261901,-0.578908210666667,3.222118962142857
19.07340657,0.8604565547360475,0.3788883573061901,-0.6721730118428575,3.2981641340952383
19.09021945,1.238523889212238,0.5306613105014282,-0.8240195512476193,3.446993584238095
19.10702316,1.5396724854619046,0.6608333133776186,-0.8589985654095242,3.610559467095238
19.12383249,1.8343167050142855,0.605179150903333,-0.7720285199809528,3.746183893714286
19.14063826,2.0271910401095234,0.5061372121223806,-0.7986329509809528,3.7903900946666673
19.15745208,2.174132384014286,0.4064495903938091,-0.9942283516476194,3.761756433619048
19.17425533,2.3174501913,0.28729216255857104,-1.1762573718857146,3.7427676695238095
19.19106357,2.428438311552381,0.11082651498714247,-1.2254794977809527,3.7258380988095237
19.20787045,2.494302863166667,-0.21319798063190512,-1.2371484097619052,3.7985997516190473
19.22468176,2.5145934706666666,-0.6979881468223813,-1.1861590430476194,4.042716035333333
19.24149032,2.4731336605,-1.273825191489048,-0.9668134507142861,4.4790077896666665
19.25830163,2.395463727795238,-1.7839378177271432,-0.8679103708904766,4.865237751428571
19.27510337,2.237642606142857,-2.069397881103334,-0.9133815736523813,5.098597970809523
19.29190462,1.9707956257714287,-2.1652959189700005,-1.0438085992714288,5.336701772142858
19.30872163,1.6635822966285714,-2.1082393557361905,-1.1481857441285717,5.551742186380953
19.32552754,1.3203888109619046,-1.9736717089742861,-1.067704165214286,5.72687661752381
19.34233116,1.024962317390476,-1.757263774131429,-0.9719249108809527,5.829318017857143
19.35915089,0.7932472966761904,-1.4619698526171432,-0.8812270546904765,5.918095830095238
19.37595189,0.5991037970095237,-1.2744735310980957,-0.8000409928809528,5.904069947047619
19.39275968,0.34688186072380944,-1.1671554022647623,-0.652988398309524,5.889977585904762
19.40956884,-0.018500152133333385,-1.0667776155600004,-0.4926189794047621,5.865999684904763
19.42637722,-0.5019610326095238,-0.9699788777257148,-0.3355490692619051,5.786260952238095
19.44318875,-1.0621406748952382,-0.8290871213971432,-0.17635675126190506,5.783322674095238
19.45998916,-1.6765729416571429,-0.6159167519400004,-0.05326844821428597,5.853062311
19.47680172,-2.271508722133333,-0.3382824037495242,0.06693371280476165,5.937554438095238
19.49360913,-2.6768266303714285,-0.08471364092095278,0.13124281310476166,6.137460080285714
19.51039531,-2.9236840237047623,0.08913069652190436,0.18273445396190452,6.261538358380952
19.52722336,-3.0002444017857144,0.10635369137142818,0.20727721710476163,6.203853268380952
19.54403366,-2.8458984920238097,-0.019233499485714674,0.16497926910952357,6.407087977142858
19.56083679,-2.462526287357143,-0.010625453438095643,0.04218060204285688,6.675230095142857
19.57765277,-1.933817840985714,0.25164415699047576,-0.1804401860523812,6.830452192666666
19.59445402,-1.353325037747619,0.6728549457047615,-0.5894816361952383,6.7960958455238085
19.61126083,-0.7878975755095238,1.0500378607999996,-0.8718958171000002,6.851157915095238
19.62807663,-0.38067114927142864,1.404866014133333,-0.7546562623857146,6.763003006190476
19.64486875,-0.21763579055714288,1.6520176614190472,-0.47916740890952414,6.610287349476191
19.66168944,-0.18293033331904765,1.5558976445095236,-0.3249655550714289,6.517846064857143
19.67849732,-0.12278252560476195,1.028138887223809,-0.3792433142714288,6.660039275428571
19.69530636,-0.23189065574761905,0.19538795389047572,-0.21400643817619075,7.08215758547619
19.71211183,-0.546318837604762,-0.6766866047761909,0.09867264825238065,7.557397814333334
19.72891946,-0.9637823102714285,-0.8758301507285718,-0.11126160341428604,7.95037866652381
19.74573077,-1.1884721117952382,-0.785255795371429,-0.11215910174761937,8.149145365904761
19.76253673,-1.268197649747619,-0.6405600365142861,-0.15008726289047652,8.237967497238095
19.77933558,-1.2271584894142857,-0.5873312495142862,-0.1646641237000004,8.232802611857142
19.79615068,-1.0143692320333333,-0.7475321405542862,-0.13777222798571465,8.017414555190477
19.8129644,-0.6913595821238095,-0.9758718353400004,-0.10500208246190512,7.738192372285715
19.82976987,-0.35860281305238095,-1.1476703142923814,-0.06349046167142892,7.455639753714287
19.84657622,-0.07937738414285708,-1.2769293102447623,-0.05931181347619083,7.210457743095238
19.86338428,0.06973417058571434,-1.3729800041019051,-0.1023814202380956,7.090171678095238
19.88019865,0.04830207737142861,-1.3235016094495242,-0.13581771861904798,7.139169334047619
19.89699715,-0.18984048115714283,-1.10256655996381,-0.15591625152380986,6.917915603571428
19.91381383,-0.6235553137347618,-0.8929807797828578,-0.07762675405761939,6.458432658676189
19.93061742,-1.1673476691414284,-0.704661914116191,0.05576882127571394,6.008159636009523
19.94742664,-1.6921229076144,-0.5440374327352385,0.17796128354714252,5.578858142533333
19.96423406,-2.1461412620286855,-0.37944250997333384,0.3227814628328568,5.180756873628572
19.98102956,-2.3949953371810664,-0.37822350983047665,0.25121836659476154,5.058051827342857
19.99785033,-2.3328023805834475,-0.47163241230666714,0.02241562883285682,5.0524214571999995
20.01466256,-2.0965977847786856,-0.43075588751619087,-0.075247881576667,4.959886072152381
20.03145359,-1.8485170429691617,-0.08151322299238137,-0.09000523667190509,4.621101608104762
20.04827814,-1.4860956439215427,0.5260188693171424,-0.2938473089100003,4.027526849914286
20.06507974,-0.9473927926834476,1.1047748838742852,-0.6272116707195241,3.400350031057143
20.08188638,-0.31366865973106667,1.1028599058742852,-0.4271064804338098,3.001560335152381
20.09870205,0.1778985091736953,0.9173519271599996,-0.5932707594195241,2.8297110380571433
20.11550895,0.5804175535546476,0.7314673606076185,-0.8195377907052384,2.7293377405809522
20.13231343,0.9497755822689333,0.6074755987409519,-1.0170433272290478,2.7653449152
20.14912561,1.263098608887981,0.6481819153714282,-1.2245652199433337,2.9623588094380953
20.16590842,1.5374791792641713,0.6933126904619042,-1.437226906371905,3.1726151811523806
20.18273783,1.7237683534784571,0.6174863180238092,-1.6307198071338098,3.3078304066285718
20.19954722,1.8776624827117907,0.4554820288333329,-1.7373566911052383,3.40225783067619
20.21635509,2.0035642498879813,0.2803344045952377,-1.711232088819524,3.413189252819048
20.23315226,2.0571608940879806,0.09489765626190434,-1.6273692647338098,3.416315044057143
20.24997023,2.0788059859165524,-0.10397159479523851,-1.5699989767242861,3.505752682866667
20.26676805,2.0676432734560763,-0.4306319326904766,-1.5640862413761907,3.7957273488571426
20.28358413,2.031761385157981,-0.9398975825952386,-1.4861556319952383,4.143499274857143
20.30039795,1.9488018864880952,-1.4673608370714293,-1.3086216080761905,4.510710792380952
20.31720306,1.8359500624261902,-1.841177645119048,-1.346425621314286,4.70185429252381
20.33401213,1.668502694102381,-2.0267862137857144,-1.4495953236952384,4.852972633285715
20.35081519,1.433296152552381,-2.099799474033334,-1.410614896457143,4.954114204666667
20.36762948,1.068556240652381,-2.059837568328572,-1.4362401026476193,5.202674607095237
20.38443916,0.6809520607952381,-1.8208230790428577,-1.4281527570761907,5.505562744
20.40124608,0.5319954327476191,-1.62152263092381,-1.282756666409524,5.594481154142857
20.41804928,0.5071332341761904,-1.304981685766667,-0.9929479616952382,5.770140069190476
20.43486081,0.5457187494142857,-1.0933931441000004,-0.9739556427047621,5.844581237714285
20.45166963,0.38597431641428565,-1.0160417329190483,-0.9416710039928573,5.690312687104762
20.46848973,-0.015414351442857152,-0.9189354124142862,-0.7122717429452382,5.744892951009524
20.48527794,-0.5179661568714286,-0.8165467125476195,-0.5370192713261905,5.795856247247619
20.50209127,-1.0382516042999999,-0.7289529527571433,-0.5296837220404764,5.812803811485715
20.51889964,-1.5396936733952382,-0.5999175480142863,-0.4285570483404763,5.767418579009524
20.53570944,-1.9235734939190474,-0.3946157863857148,-0.29801911834523825,5.783407895914285
20.55251499,-2.2110175063952378,-0.15452344071904817,-0.14312215228333353,5.803083550819048
20.56932502,-2.3485133193000003,0.07023071113809469,-0.08096646845000018,5.805185134152381
20.58613628,-2.273433197061905,0.22490215308095185,-0.13066243425000015,5.823612016295238
20.60293943,-1.9842861379333332,0.3415782111761899,-0.2150270414500002,5.974040776819048
20.61974689,-1.5378527868,0.6115310760476186,-0.3225431825976192,6.1116300746761905
20.63654396,-1.1142516135714287,0.9945187342285712,-0.5981366677404765,6.068446757247619
20.65335175,-0.6971924758571428,1.3135922750380946,-1.0787986275976191,6.041665599009524
20.67017234,-0.22637750985714294,1.5440759205142855,-1.0876006327880954,6.123010242914286
20.68698068,0.23816963609523806,1.7584990320380949,-0.763290148407143,6.158358683104762
20.70378854,0.5108038017142856,1.7762117159428565,-0.5508805896452383,5.993629761390475
20.7206022,0.7309452352380952,1.4300905183095234,-0.4243877430547622,5.950848855342858
20.73739182,0.8409245241904764,0.6454421224047614,-0.41597744253095265,6.175336583057143
20.75421421,0.5482170922857144,-0.013943468023809979,-0.3873319611500003,6.593262568723809
20.77102004,0.005276475619047665,-0.3675074579285719,-0.6240482826738097,6.746012726819048
20.78782877,-0.5610439890952381,-0.31921629702381,-0.4899824360928574,6.954148196295238
20.80463512,-0.8398420697142858,-0.2216936295380957,-0.33771137962857173,7.240089416809523
20.82145103,-0.8421733947142857,-0.3890306156809528,-0.4154804036761907,7.18582189447619
20.8382566,-0.6721282572857143,-0.6971596992523813,-0.3811924571047622,7.100384027190477
20.85505797,-0.4801811490952381,-0.906358878014286,-0.13754494986666696,6.954922703238095
20.87186779,-0.3104056120285715,-1.0590557599857147,-0.027146115185714553,6.796252074190477
20.88867853,-0.22389159317142857,-1.1678812846523814,-0.1431332230380955,6.69171326904762
20.90549015,-0.1955336673142857,-1.2727711997952387,-0.23779586948095266,6.601336072428572
20.92229184,-0.22674478807619045,-1.3674836388428577,-0.2095495405380955,6.529382594904762
20.93910086,-0.3709355876952381,-1.347170512119048,-0.09473318992857169,6.454436477571428
20.95591003,-0.673857774097619,-1.1880857152142863,0.04971367122857117,6.241521153
20.97272027,-1.1308313778690477,-1.0211485229428576,0.2106686915619045,5.938726403571429
20.98951265,-1.543139843745238,-0.8820854825047623,0.363832820038095,5.631203156857143
21.00633267,-1.8872481812071427,-0.6741671564095243,0.6673007862809521,5.290854677428571
21.02314338,-2.245357666740476,-0.5594112988380957,0.8129935888761901,4.983417202476191
21.03995017,-2.514878942892857,-0.64328606942381,0.6599974915904759,4.71880665147619
21.05675659,-2.5130881866261907,-0.6176790965952386,0.441260042638095,4.749607413
21.07355358,-2.3276787485785713,-0.29753199099047667,0.2873661234285712,4.606015033333334
21.09037581,-1.992100057197619,0.29835819062380914,0.10746472790476166,4.245244421190476
21.10718314,-1.4575486410547616,0.7836167472538091,-0.2017541045238098,3.899916641095238
21.12398878,-0.8058665820547619,0.8205760774728568,-0.1919372365714288,3.601719480619048
21.14079756,-0.24123073762619035,0.5769385384014283,-0.24509991349523838,3.3406446478571428
21.15760611,0.22867906656428585,0.4459656761499997,-0.40079078787142886,3.231266812666667
21.17439649,0.6939879144690477,0.5514748437690473,-0.6006585529666669,3.3098534340000003
21.19122067,1.0788868608500002,0.7805604027214282,-0.8866647141095241,3.4313384082380955
21.20801773,1.4172571499928572,0.8322579520785711,-1.1294501678714288,3.5650548580952384
21.224836,1.7201231490690478,0.760409037335714,-1.287876078014286,3.7352974435238093
21.24165014,1.9842408327357144,0.6434600921738092,-1.2630026794428575,3.780704096
21.25845345,2.1962628647833333,0.5324460666404759,-1.304473820157143,3.7988844156190478
21.27526062,2.3606992675928575,0.4426718894452377,-1.427095583457143,3.869923236333333
21.29206912,2.5086445240690476,0.30248939430238053,-1.4752526878809527,3.949000221095238
21.30888084,2.595207214328571,0.10117844177857105,-1.4807940295285718,3.9711678184285715
21.32568338,2.6844470671000003,-0.25024872726904795,-1.4760981144809528,4.068245647428571
21.34250071,2.719501432895238,-0.705686410221429,-1.404934394861905,4.338889806476191
21.3593039,2.6399125030714288,-1.2334011168404766,-1.2402854192000003,4.702726040809525
21.37610977,2.464441026938095,-1.6767845153642862,-1.1613881133190478,5.044051092571428
21.39291891,2.2479737542809524,-1.9208577927785717,-1.2460058756523813,5.293112734857143
21.40972774,1.9662495226809522,-2.0004897344547623,-1.2723812942714288,5.454763207428572
21.42653542,1.6368268387285714,-1.923578057964286,-1.197248799414286,5.563922421666667
21.44334247,1.2875399418714286,-1.7809970265309527,-0.9202367123809528,5.5867149399523806
21.46015058,0.9143058061095239,-1.5636628468752385,-0.5992704572857146,5.634723256619048
21.47696032,0.5825074797285714,-1.3688889230942862,-0.5100217376142859,5.672574171
21.49376748,0.34683077106190485,-1.2821461586657146,-0.6047379970238098,5.580565125714286
21.51057438,0.1385559297619048,-1.2467162041380955,-0.5374344814095241,5.436781297428571
21.52738376,-0.10393277238571422,-1.2281111762809527,-0.317108750314286,5.261872447476191
21.54419248,-0.47377135076666665,-1.2062067304714288,-0.090654719414286,5.036592021095238
21.56100147,-0.9334617626714286,-1.0330430439714289,0.0310940700099997,4.972276685142857
21.57780697,-1.433717052195238,-0.7859167825904766,0.13425091477190448,4.998040721333333
21.59461477,-1.864825560957143,-0.5547300974761908,0.24533884158142827,5.122889145380952
21.61142371,-2.186745853671429,-0.3277565638476194,0.3728718942099998,5.2531540032380954
21.62821945,-2.4218375740047615,-0.09839666460476228,0.4250534673528569,5.338975979809524
21.64503594,-2.581942268838095,0.12167485553809489,0.34478868330999973,5.3517067890000005
21.66183797,-2.5525902226,0.20964804149047586,0.20263846856238066,5.376735033285714
21.67864776,-2.322343587885714,0.34068407329999967,-0.016641138580476462,5.482473346809524
21.69545525,-1.8737982454714284,0.636342275728571,-0.16594116319952407,5.57387370852381
21.7122685,-1.307326668757143,0.9438753582523806,-0.32406011794238115,5.593886240190476
21.72908617,-0.8472675255190476,1.1546230770619044,-0.6063042779900003,5.547822477095239
21.7458838,-0.4046107360428571,1.349883579090476,-0.5658853125138098,5.507624589142857
21.76269948,0.009701059004762062,1.5241709891380948,-0.3572398267995241,5.42650551252381
21.77951199,0.18300836429047632,1.3720392954238092,-0.29720414959952407,5.248618638380953
21.79630771,0.24140188810000018,0.8898465293285711,-0.41690338934714316,5.343884568619048
21.8131214,0.25850201790952393,0.17387510494761868,-0.45266860577571455,5.559474539190476
21.82992747,0.12456643014761919,-0.41436367929047657,-0.24093228430428598,5.901172065761905
21.84673877,-0.21429093675714275,-0.58352715612381,-0.1514710031233336,6.2266177684285715
21.86354745,-0.579993338790476,-0.4907390956380957,-0.18889854203761933,6.538432652047618
21.88035359,-0.821917556547619,-0.4567990528761909,-0.18113087608523837,6.677388164523809
21.8971599,-0.8323910916904761,-0.5498976933000005,-0.1376633827947622,6.682928917238095
21.91397068,-0.6343588601142857,-0.7447376249666671,-0.058227343171428844,6.548954149047619
21.93077543,-0.32542240044761894,-0.9125107354728575,-0.01372510188571456,6.352716611523809
21.94758532,0.04814912031428579,-1.0349224179490482,-0.11769895321904789,6.183771080857142
21.96439123,0.2850462710000001,-1.137534572758572,-0.2151059848476193,6.023228076619047
21.98120232,0.40364669060000014,-1.238562969710953,-0.1694188288047622,5.880454489761905
21.99800936,0.4097164359333334,-1.2708219798538098,-0.03930486097619076,5.831449329428572
22.01481658,0.24073117126666674,-1.14848043785381,0.09340249359999972,5.801146071952381
22.03162498,-0.12146933301904755,-0.94172904585381,0.2609883433714283,5.58857912147619
22.04843935,-0.6116193731380951,-0.7915557905204768,0.32763828836666636,5.218186697714286
22.06524392,-1.1138519814904762,-0.618626253806191,0.3475661448238092,4.806757934380952
22.08203516,-1.4433201040428572,-0.4082201320442862,0.5832374209666664,4.52136682
22.0988584,-1.7313110345571427,-0.32686535502523856,0.6835189547171426,4.305805032761905
22.11565458,-1.9278978336333334,-0.38510953797761954,0.5210560787171425,4.214571183666666
22.13246175,-1.8503025486047617,-0.2525220142633338,0.42738125437428537,4.247534770142857
22.14927392,-1.6293377365000001,0.11837173660809482,0.4393436795171426,3.9565220854761907
22.16609081,-1.335415550595238,0.6246747971414282,0.3295779455171426,3.5220977977142858
22.18289809,-0.9065249135952381,1.044492222093809,-0.002015079816190773,3.1205777128095233
22.19970445,-0.35346532430952377,1.1345294771319043,-0.18363134637809553,2.919837620190476
22.21651582,0.15645329730952384,0.9316830862747614,-0.2797905150352384,2.7213950378095237
22.23332005,0.5580961307380953,0.7628658613223804,-0.38461157259095263,2.655898215
22.25014121,0.903917931404762,0.7708744095128566,-0.5172090304004765,2.782633727809524
22.26693474,1.171112781495238,0.8573595456128567,-0.665535398924286,2.9694977858095237
22.28374954,1.3584984087333336,0.8694714364952376,-0.7689353057766669,3.1180549245714286
22.30055034,1.4574203775428571,0.7284066563523804,-0.7594415687766669,3.2039396446190476
22.31736632,1.5744285072857143,0.542357671828571,-0.8123528673957146,3.2893876536190474
22.33416975,1.710478907542857,0.426487105223809,-0.9651617862480955,3.3974316732857144
22.35098212,1.8898125659952383,0.32938173837619,-1.1241004467433338,3.472985986047619
22.36778472,2.090685884185714,0.20701263064285663,-1.147581881043143,3.4913918890476188
22.38459622,2.2535565808047617,0.04606326419523762,-1.1546303119412382,3.4640459895238096
22.40140151,2.364329562352381,-0.20696067809047664,-1.1333759200460003,3.557447781238095
22.41821166,2.434963689014286,-0.5900272641857148,-1.0844383154745718,3.820619427238095
22.43502019,2.441613435795238,-1.0874822707571434,-0.9856468240460003,4.209779058
22.4518267,2.3916121863571425,-1.568201655471429,-0.9095753459869527,4.583470158000001
22.4686338,2.276535732433333,-1.880444617566667,-0.8941922613679051,4.769860887333333
22.4854506,2.095904997452381,-1.9778848830476194,-0.9374337849393337,4.883781153285715
22.50225072,1.8575723455380952,-1.8976593472523815,-1.0521863840821908,5.098044568571429
22.51906757,1.5666648603952384,-1.7368641127380955,-1.1059417923202859,5.278297918047619
22.53584723,1.2508876380619047,-1.5796728361666672,-1.0173258071617144,5.344143286761905
22.55267748,0.9287503617285715,-1.4056948253476196,-0.8604387669140954,5.3434968748095235
22.56946953,0.6448846374428573,-1.2269437426809529,-0.6805239518188574,5.359689748952381
22.58629278,0.3954530954428573,-1.060194605871429,-0.5971915097393335,5.309606243190476
22.60308347,0.059028120300000084,-1.0254244577285718,-0.4298471382631431,5.20067012452381
22.61990924,-0.3694503023190475,-0.9706627982095244,-0.35071998126314313,5.088053693047619
22.63672645,-0.8425976946047617,-0.8435450735857147,-0.31338919629647644,5.098737464380952
22.65352353,-1.3275160165095239,-0.6248136474904766,-0.22460745346314312,5.167542882714286
22.67033377,-1.7461204017952379,-0.38990504401428616,-0.06466121332980977,5.262637057
22.68713815,-2.103302529842857,-0.20110196160000043,0.09938622941304737,5.3424681464761905
22.7039521,-2.4294695343190478,-0.030125504466667063,0.17057729334638072,5.403382302952381
22.72075441,-2.6289186193666665,0.06701392217142815,0.1079577094033331,5.37746558347619
22.7375661,-2.5874829916523807,-0.03654561723809566,-0.04421060427952402,5.522166496190476
22.75437354,-2.3402284270333333,-0.0866257803809528,-0.2273633167890478,5.754745617619048
22.77118687,-1.9933869327714284,0.20890076955238054,-0.37538558245571446,5.807778860476191
22.7879878,-1.619264262047619,0.7486798195523805,-0.5520517400509526,5.688093898619048
22.80479749,-1.1153955800000002,1.1609439622904758,-0.7161335689557146,5.68499865947619
22.82160395,-0.506361984047619,1.3387387366714283,-0.7737498935747621,5.874721785285715
22.83841308,-0.0902566682380952,1.3231587410142853,-0.5786411619890478,5.831961741809524
22.85522061,0.07644741880000004,1.0252236184904757,-0.3699261205271431,5.697127699476191
22.87202813,0.0933276471809524,0.406778789728571,-0.47947332686047645,5.9433118068095245
22.8888375,0.06257888251428573,-0.21674010865238136,-0.4175412683047621,6.230509332047618
22.90564676,-0.08413376124761901,-0.5123743556523814,-0.1987741787904764,6.430854209
22.92245406,-0.31634644096190473,-0.5042643773666671,-0.19355964660000022,6.629887429142857
22.93925938,-0.5469365460095238,-0.3936746460809529,-0.20537917950476214,6.853098683095238
22.95607216,-0.6603992325809523,-0.30848575770476233,-0.2323974937904764,6.954927081523809
22.97287661,-0.6377253986285714,-0.4826098850380956,-0.18815659760000022,6.9462022001428565
22.98968575,-0.48120563367619035,-0.7460987680857146,-0.09698353204761928,6.857714595857142
23.00649673,-0.2588269426238095,-0.9233127094047623,-0.014651363738095455,6.681926816
23.02329451,-0.05380800219523808,-1.0176305089285718,-0.04449296842380975,6.457105240333334
