Time (s),Linear Acceleration x (m/s^2),Linear Acceleration y (m/s^2),Linear Acceleration z (m/s^2),Absolute acceleration (m/s^2)
0.345175498,0.33238029484761905,0.05846728167630473,-1.2869142463538095,2.175258775561905
0.361982699,0.5195243018333334,-0.21080875822845718,-1.477169400087143,2.4358057128476194
0.378790804,0.7069348381047619,-0.49285102313321905,-1.5052150657380952,2.625891503895238
0.395600274,0.8674989882333334,-0.6322839898332191,-1.3424436363857144,2.8311893652285716
0.412412927,0.9418737321190476,-0.6284001412427429,-1.1837748855761905,2.9034702092285714
0.429216892,0.9078488123380952,-0.5583433820665524,-1.1239089609828572,2.878759105790476
0.446012578,0.817927610342857,-0.5032573824617905,-1.1100377936066668,2.9436828221714286
0.462833185,0.7139622370904762,-0.44275850340369527,-1.0510654803019048,3.065939802180952
0.479641321,0.6043745677095238,-0.39837463979607624,-0.951055471244762,3.1979135534666665
0.496451412,0.4975724901857143,-0.3388103984722667,-0.8406409208066667,3.3341186804666667
0.513259995,0.43003055032857146,-0.29868608711988576,-0.7541241090923809,3.4090101778476187
0.530052822,0.42358448399523807,-0.2964377005770286,-0.670533908144762,3.3891038248000003
0.546873746,0.43562571215238094,-0.30995094774845716,-0.5261379096209524,3.3381839591809523
0.563678606,0.4348431088433333,-0.32711318133809525,-0.33911313462095244,3.330232818942857
0.580496691,0.41118471971000004,-0.3650043209238095,-0.13977533995428576,3.379227041657143
0.597286751,0.35590489713092194,-0.46483981323333334,-0.011087787906666698,3.3793582692285713
0.614102028,0.27652104702616,-0.6341011495666667,0.09710522358238093,3.3074900723714284
0.630922922,0.18085016530711237,-0.8075743374238096,0.19542482220619045,3.2244516731333333
0.647724079,0.05919401992615999,-0.8943568553238095,0.2499514350585714,3.2098873024190473
0.664524231,-0.08890079312145904,-0.8742139084190474,0.25077166309190474,3.166772034323809
0.681335714,-0.24842339464526855,-0.7701934718,0.3367511871823809,3.0367090475142855
0.698148977,-0.4197988509786019,-0.6027807451619048,0.5312528114252381,2.793752980133333
0.714955812,-0.6350145793595543,-0.408514962347619,0.6993813501109524,2.532553197704762
0.73176943,-0.888175601026221,-0.2222109267190476,0.6978598705966667,2.3230591199428567
0.748574148,-1.1401822225976497,-0.09754354051428571,0.5440378487538096,2.1211130494190478
0.76538666,-1.3118432816928876,-0.04674846933333334,0.4218138215395238,2.0394719794190475
0.782190168,-1.3519827070405068,-0.030961526333333347,0.38112852689857146,2.0830994103333333
0.798997866,-1.298685505230983,-0.0002902363333333443,0.36140146995095235,2.0740943784285713
0.815807773,-1.1869025003071734,0.02408573595238095,0.2549604716652381,2.020074221809524
0.832616887,-1.02509993597384,0.05492846591428572,0.12253957985571429,1.9181226039047619
0.849429692,-0.823371251421459,0.025884297595238095,-0.05393689876333335,1.8033618755238097
0.866230352,-0.6198809033262209,-0.01181823162857143,-0.26472011352523817,1.8201869474285712
0.883043554,-0.44652584623098285,-0.021964443638095237,-0.4886287081871428,1.9777299416666665
0.899850815,-0.2960262752976495,-0.055922943980952385,-0.734679849377619,2.159229042571429
0.916658474,-0.16578969505526858,-0.09186965798571427,-1.0196803666633332,2.3120067366190478
0.933466071,-0.03761023568860193,-0.11405728264761902,-1.3822740629014287,2.4643864815714287
0.95025909,0.14498719712857142,-0.09339147810476188,-1.5490025140442858,2.5866154959523806
0.967085548,0.3994789577571428,0.031693870085714296,-1.3686890858190475,2.8046545246666663
0.983883094,0.6709773653809524,0.1462190236142857,-1.1507619023952382,3.0325177829047623
1.000698189,0.9320073808571427,0.1975604678809524,-0.9862283553904762,3.212066433619048
1.017497994,1.134388969047619,0.21451580098095238,-0.8712289021619049,3.324087764285714
1.034315682,1.2556180953809524,0.21459599193333337,-0.8411268762666666,3.338821901142857
1.051111531,1.3056901296047618,0.19591409109523808,-0.8720135575571429,3.3390089936190477
1.067933481,1.3082058316047618,0.1737586728095238,-0.8642591266714286,3.345985755857143
1.084740844,1.2743363153190477,0.11723236951428573,-0.768865111357143,3.4149049683809523
1.101550609,1.1984391666047618,0.0013474268333333423,-0.6894763254190477,3.5293619247142853
1.118357321,1.0980426469857143,-0.1483940553333333,-0.6507607499952381,3.646532572761905
1.135165651,0.9697613942238095,-0.23542504513333334,-0.43189358147142864,3.8064560797619045
1.15197571,0.829491728747619,-0.29395652813809525,-0.20716403213809526,3.9525821391428573
1.168781659,0.6767216636333334,-0.35222390295238093,-0.02491257304285717,4.067218982095238
1.185590518,0.5170171600619048,-0.4055494311285714,0.04968639213333331,4.145821834285714
1.202388736,0.35632149369999994,-0.3763622627142857,0.13857583773190474,4.202336696285714
1.219211805,0.19566706236666667,-0.3223871148714285,0.2681918598319048,4.153600041333333
1.23601567,0.022778079509523787,-0.28315923753809524,0.4206874994985713,4.02523229
1.252823887,-0.14486465010952382,-0.2264385947190476,0.5503947507842858,3.875084606142857
1.269636946,-0.30645908637619046,-0.18015271711904762,0.6923540604033332,3.693435210619048
1.286430191,-0.4907807623809524,-0.15084130993809525,0.9015721594271427,3.4678140343809525
1.303253209,-0.7394909405714285,-0.15605103405238094,0.9827571653795237,3.3391928667619046
1.320053584,-1.0473549934761905,-0.2651038283857143,0.7960344638928573,3.140918479904762
1.336865648,-1.3642463911904763,-0.36133560686666666,0.6004528943338094,2.927947115714286
1.353673804,-1.6420927275238095,-0.3908288209857143,0.4295671015242857,2.745537434761905
1.370484921,-1.8146597317904765,-0.40648896786190475,0.2959929080909524,2.6196620626666665
1.387290686,-1.8577648572190475,-0.4054657065428571,0.2105203811052381,2.613570668190476
1.404114083,-1.781092621109524,-0.3563485742333333,0.13851883305761903,2.6951056511428573
1.420909625,-1.6046024277761903,-0.27896671926666666,-0.03783777208523813,2.8495522967142857
1.437712848,-1.3451478368238097,-0.17204987158095233,-0.2126879861804762,2.9134682645238095
1.454512368,-1.0582257679666667,-0.017043292580952368,-0.2875313474519048,2.905602500809524
1.471333638,-0.8249258767761906,0.10867464394761905,-0.5302918751376191,2.9638205763809524
1.488143381,-0.630313169347619,0.08786066225714287,-1.1388203983280951,3.149559567952381
1.504945323,-0.3768432253476191,0.01817458435714286,-1.544038829280476,3.1471525389523807
1.521762787,-0.009821551157142863,-0.0843351782095238,-1.4936322143280953,3.1881973508571426
1.53855362,0.40066423874761903,-0.22377103717619046,-1.1689890281709523,3.4577264286666667
1.555374209,0.7356892995095239,-0.35355625136666663,-0.9249178794838095,3.6277582345238093
1.572182914,0.9374997276047617,-0.5097099416047619,-0.8899554389557144,3.6324858798571427
1.5889928,1.0031454450590478,-0.7141998198428572,-1.018937738812857,3.7636785287619046
1.60579819,0.9270823570590477,-0.8427889277238096,-1.0433319330985715,3.857204929047619
1.622606214,0.8117663974685715,-0.8693634074047619,-0.93769034667,3.9516401344761904
1.639420607,0.72147514714,-0.825015689752381,-0.7842633077890475,4.070702455380952
1.656229659,0.6688526245209525,-0.7352352058190476,-0.5383319605985715,4.2429691330952375
1.673029922,0.6264642080447619,-0.6549174133666666,-0.33533987044523805,4.379197542238095
1.689842036,0.5816920826161904,-0.6409820602714286,-0.2584916161242857,4.436210815809524
1.706648575,0.5119345983304763,-0.6188318957142857,-0.17731798898142856,4.50628457347619
1.723466467,0.42094979974,-0.6130164010857142,-0.1607024477719048,4.570092078428571
1.740267777,0.30835975926380954,-0.6309650512619048,-0.13533427387190478,4.605604748952381
1.757072608,0.18407015583523814,-0.7000298344666667,-0.04275763956714286,4.5439997589047625
1.773882128,0.03798777727333337,-0.7811604469285715,0.12907336087095236,4.373452828952381
1.790693824,-0.13110839741714284,-0.8653418947523809,0.2052043357280952,4.2265998815714285
1.807498929,-0.29454501460285715,-0.9579389989999999,0.17622004735190477,4.1218384091904765
1.824306283,-0.4030453590314285,-0.9852871810333332,0.3811433648852381,3.9158722631476186
1.841116596,-0.46870660774571427,-0.9242860107857143,0.7838821375614287,3.5393724870999996
1.857912087,-0.6044206845552381,-0.8393199075428571,0.97464025519,3.3780710382904764
1.874732991,-0.8616667020314285,-0.7054452697809525,0.7460091107138096,3.2230174538142857
1.891540496,-1.1594129062219047,-0.5083744100190476,0.3393353557614286,2.896347664909524
1.908349192,-1.3810296512314284,-0.35807265268571425,0.04338652680904762,2.6759468366714287
1.925183025,-1.4842582656828571,-0.20287838716190476,0.0027360888238095273,2.6276441954809524
1.941967062,-1.4515525499609525,-0.02375912945714285,0.13266386025238094,2.4611564366238095
1.958761811,-1.2609577632942857,0.07625203194142857,0.13072157196666664,2.4010471356238092
1.975583854,-1.001025858341905,0.07060870391285715,-0.1377860448904762,2.494563164195238
1.992378736,-0.729934533389524,0.0074930276509523885,-0.5329439157000001,2.624891417528571
2.009206433,-0.4604630015800001,-0.10185358352047617,-1.0413579344142856,2.6957646651476193
2.026001102,-0.21207094191333342,-0.23783618778238094,-1.5474460323190475,2.8110886489095237
2.0428135,0.017787342991428517,-0.30499162559190474,-1.7083518589857143,2.8255639291
2.059629907,0.3004842258961904,-0.25603898648714285,-1.7259820841285713,2.831258798147619
2.076427871,0.6171385220390476,-0.08193602729190476,-1.606373908952381,2.9729512931
2.093239364,0.9196730568485714,0.04898227685095239,-1.4007516162333336,3.1534402496714287
2.110052007,1.1131483713723809,0.11618080598904762,-1.1977357154428572,3.293550033480952
2.126858038,1.19392549422,0.1781228213604762,-1.038242910547619,3.3997292544333337
2.143665381,1.211455435962857,0.22167521152609526,-0.9140587051190477,3.4439570645285715
2.160473893,1.20720486412,0.2527006389641905,-0.8015273752333333,3.448728012909524
2.177282223,1.2057723090580952,0.23187763142609522,-0.6986080067190477,3.495511611809524
2.194092344,1.2022541591057143,0.17660357914514282,-0.529870206347619,3.5883299443809524
2.210898679,1.1810965992009523,0.13482107582133335,-0.2692856277380952,3.733316712571429
2.227706886,1.1228814806295238,0.08475241281657142,0.047313502880952395,3.9179060923809526
2.244516234,1.018979276915238,0.030376650764190476,0.13432071323809525,3.9677639326190475
2.261325743,0.8754620552104762,-0.015504404888190467,0.06213386285714288,4.076156346
2.278131245,0.7087663241857142,-0.02564248512628572,0.004689880785714317,4.1942982584761905
2.294942505,0.5253656023904762,-0.013650439316761914,0.047884640238095265,4.284488284190476
2.311753082,0.3092727207238095,0.016278256270380948,0.17064489634761906,4.314905880428571
2.32855366,0.0786887577714286,0.0729006110275238,0.4265824783047619,4.187201770190476
2.345364666,-0.1732670693238095,0.1044203703132381,0.7295471174095238,3.99431828747619
2.362175793,-0.4449723561809523,0.14091251935609522,1.0452999358904762,3.795313676047619
2.378971406,-0.7046404566095239,0.21026320759419045,1.3908830852761906,3.5909027448095237
2.395791577,-0.9521386509904762,0.2663960294037143,1.4710898706309523,3.5743503556190475
2.412593294,-1.2276527314190475,0.18294854183228568,1.3997933802690476,3.5594663251428567
2.42941202,-1.5159105573714287,-0.021378235405809538,1.23367106865,3.4207244916666673
2.446206089,-1.7359966550857144,-0.19312950754866667,0.9755243852690476,3.2572663574285716
2.463020543,-1.7860318138952382,-0.3041762390200952,0.6677443351738094,3.225012165761905
2.479833561,-1.6890413193714284,-0.40105596537723803,0.3376396208404762,3.3178699028095235
2.496640132,-1.5382190432333336,-0.39460448067619047,0.029877599697619113,3.489333245190476
2.513432602,-1.3781424931571427,-0.268549479152381,-0.1466833301119047,3.6427891968571426
2.530253219,-1.279684066809524,-0.023657531919047643,-0.21254563380238092,3.779102792047619
2.547068661,-1.257609685304762,0.21920992936666664,-0.5755603999928571,3.930832497047619
2.563871619,-1.188377811842857,0.36004153539999995,-1.2629729117071429,4.1879319493809515
2.580687364,-1.0267098745142857,0.42292952830952374,-1.8424030377071425,4.2211996317619045
2.597490068,-0.7453221139904762,0.41496128705238083,-1.8872706781547617,4.182179084333334
2.61429968,-0.34949236832380953,0.30652654179999994,-1.4620166738214284,4.357786902666667
2.631112943,0.08432617634285715,0.1472391685619047,-1.0359298279642857,4.5912448070476195
2.647915484,0.4685120809142857,-0.015347690714285756,-0.7449356265595237,4.812080245523809
2.664722981,0.7418888182,-0.21607637393809528,-0.711621296335714,4.883990109809524
2.681533487,0.8545684813714286,-0.4607512013,-0.8491705888166665,5.009831469571429
2.698340067,0.8486227307523809,-0.6301970509190477,-0.930287750492857,5.1236804369047615
2.715151469,0.8208494867523809,-0.7112452386761906,-0.8601177510214284,5.207718317476191
2.731957235,0.8185292425619046,-0.7169580628666667,-0.7632667256928569,5.260394677523809
2.748765178,0.8489781788476191,-0.7134686593714287,-0.6080768306666664,5.305197856523809
2.765574821,0.8579048429428572,-0.6690871969904763,-0.45861113068571413,5.3362561314761905
2.78238135,0.8336376689904761,-0.6121005471666667,-0.30997401192380936,5.355495068190476
2.799193798,0.737969216847619,-0.5463388958428572,-0.16084218025714273,5.353660305761904
2.81599984,0.5552338645619047,-0.4688971382095238,0.004292698133333497,5.263421628142857
2.832791893,0.3192418416095238,-0.39990166812380956,0.19836323600000016,5.095235908238095
2.849618228,0.07658009303809525,-0.40811352775666665,0.4165868674047621,4.905908699761905
2.866426935,-0.14583042686666667,-0.5350178252233334,0.5221406561904763,4.759476803857143
2.88323145,-0.27665383472380956,-0.7525502016804763,0.4868300982809525,4.602480266380953
2.900020288,-0.30071703589523807,-0.945295143632857,0.6634543055666668,4.371753961857142
2.916848424,-0.3469971247857143,-1.041877647194762,1.090318827409524,3.9693191536190477
2.933645472,-0.45126052125714283,-1.054064356099524,1.3732253681904762,3.743885412619048
2.95046549,-0.6399070648285714,-1.0035327615519047,1.3672570600238096,3.717683176714285
2.967274267,-0.9177039009238096,-0.8575583752185716,1.051417201752381,3.424814549571429
2.984079017,-1.2025898523809524,-0.6660740601709525,0.7000110418857143,3.0894106983809526
3.000894264,-1.417868387047619,-0.42542376964714296,0.359957483504762,2.845260234095238
3.0176977,-1.5041158766,-0.1579867998376191,0.1497114711714286,2.807416038904762
3.034511168,-1.4620680126857144,0.14112171106714283,-0.09074379297142855,2.9089501637142856
3.05131497,-1.2641157648761905,0.3860594488766666,-0.3982545663047619,3.0462322925238094
3.068124561,-1.0000549270190477,0.5171792308957143,-0.7256331117809525,3.086142909190476
3.084933288,-0.7548501150190476,0.502132066705238,-1.0913291786857142,3.1501055120476193
3.101739054,-0.5486340522095239,0.4412352670195238,-1.452430726542857,3.203388899714286
3.118548715,-0.28090922030476195,0.40920027952428567,-1.6650356976857141,3.208606290857143
3.135358165,0.05155529302857139,0.4922313378433333,-1.6920715300666667,3.303696217333333
3.152166586,0.3747505915523809,0.5867812265195238,-1.6424774570190475,3.4408351309047625
3.168972505,0.6018918356476191,0.6428926814814284,-1.5309483508380954,3.5391962317142855
3.18578705,0.6961248035904761,0.6611188991385715,-1.3570940622285714,3.64144309447619
3.2025913,0.7131770453047618,0.6454607050285713,-1.1919940355380954,3.7455194171904767
3.219400606,0.7069309780666666,0.6125565682809524,-1.031027153847619,3.8511457439523813
3.236209344,0.7328950792190476,0.5442948909761904,-0.7983732578190477,4.007130605857143
3.253015862,0.786594254727619,0.45947170264285714,-0.5484519359619048,4.148053082714286
3.269825484,0.8455895470371427,0.3594721102047619,-0.3389994090428572,4.2360013656666675
3.2866212,0.8830675398466665,0.26889281899999995,-0.19262122963333336,4.256582379238095
3.30342959,0.8903245926561904,0.20619063150476186,-0.1398787157619048,4.225128301190476
3.320246637,0.8682305472752381,0.16312561714761897,-0.1976786794904762,4.237469794
3.337060136,0.7826194763514286,0.12851229167142855,-0.2231735274714286,4.265769428952381
3.353851904,0.6423078492085714,0.10594395229047618,-0.1590322908561905,4.288528241571429
3.370674709,0.46364212042761904,0.10964437895714285,0.0034910710628571285,4.274728402380952
3.387471859,0.29658017848476187,0.08553434557619047,0.37188069741999996,4.063886925190476
3.404288072,0.09381044486571428,0.040812784747619034,0.7620190453485715,3.8209990548571433
3.421105618,-0.15415114442,0.01653717816190475,1.0251986881676192,3.705877760238095
3.437901416,-0.40608864732476185,0.06960125481904761,1.3024487623580951,3.593862635238095
3.45472118,-0.6391332943723809,0.15663802058571427,1.562516458024762,3.494771157238095
3.471524656,-0.9129047847533334,0.1667381951047619,1.690214036515238,3.4522058274761904
3.488331511,-1.2248784246580953,0.04215151639047617,1.6134017465009522,3.3192435456666667
3.505141418,-1.4827173550533335,-0.11141691041904764,1.4084279864057143,3.1893022257619044
3.521950835,-1.5868233952866666,-0.23360029291904766,1.123966874167619,3.1615906326190477
3.538756195,-1.5244599523723807,-0.2711593849619048,0.8294935666914286,3.1112026547619047
3.555564017,-1.3695069948485714,-0.21647731466190478,0.5755969896914286,3.058344281238095
3.572374645,-1.1816263879914286,-0.08603611163809526,0.3151533363104762,3.0539205674761907
3.589183829,-1.0467829250009526,0.12545111345714283,0.03460059711999995,3.0166529003333333
3.605991508,-1.0162382806904762,0.36778138645714287,-0.2932785024990477,3.0138793645238096
3.622797823,-1.056991509,0.5907552270761904,-0.8071254675942857,3.224965613428571
3.639608177,-1.044056006809524,0.6900264195190476,-1.2835540331180955,3.4747019742857144
3.656417779,-0.9316874230952381,0.6964576443238095,-1.5577630443038097,3.6559647412380953
3.673225386,-0.7166794594761906,0.6446352232285714,-1.4591184811704763,3.6973283423809526
3.690029932,-0.38104332052380957,0.49225463756190474,-1.0978031910371429,3.9705570808095234
3.706840174,0.020646594904761808,0.2628145842285714,-0.6993883152714285,4.31568779447619
3.723649897,0.3841519356666666,0.005106227752380946,-0.46154517785714283,4.519231643142857
3.740444982,0.6476979256190475,-0.2613599754380952,-0.5552099687380952,4.646827275238095
3.757265315,0.7589832260904761,-0.4943391567047619,-0.7512609702857143,4.80000320347619
3.774056219,0.778011639995238,-0.5970271059476191,-0.7880070663304762,4.819616434142857
3.790883236,0.7934811002333333,-0.6026698691523811,-0.6685917490923808,4.879569789571429
3.807689988,0.8274998665666666,-0.5628495074476191,-0.5519423428066668,4.929323946
3.824498319,0.8588442576142857,-0.5078495684142857,-0.45529536691619055,4.960331659238095
3.841295184,0.8376038188999999,-0.42404910494761916,-0.3247831747590476,5.018665388952381
3.858117023,0.750941458295238,-0.3443370234019048,-0.14585381180666668,5.040470258857143
3.87491458,0.5847129141476191,-0.26431841223047625,0.041385988364761886,5.013477192619048
3.891730742,0.3721117292904762,-0.23669113145238102,0.1785145486742857,5.018869454857143
3.90853952,0.15443863195714286,-0.28489642765238105,0.28667206418857144,5.016155544428572
3.925345927,-0.05173496961428573,-0.3998885296571429,0.43248489351714287,4.950185138238096
3.942160614,-0.21179816823333336,-0.5686281777285714,0.5284758124361905,4.836414472571429
3.958962861,-0.29330703176666667,-0.7414345457142858,0.6229339241457142,4.685730412238096
3.975775087,-0.29073865060952386,-0.9009020044609525,0.8902874191457144,4.391746955333334
3.992579174,-0.30716296592857145,-0.9390842573990477,1.1550234016695238,4.131890231142857
4.009392762,-0.39588900965238094,-0.8994924568038096,1.302327039669524,3.9980107552857143
4.026201663,-0.5802347545428571,-0.8050068304942858,1.2243000467266667,3.9515010968571422
4.043008558,-0.860771996542857,-0.6246911713514287,0.9108136295932381,3.651067696476191
4.059814436,-1.1867419196857143,-0.38345527935142865,0.5252864616075239,3.2687754311428576
4.07662305,-1.460367974738095,-0.12389904263714291,0.14725525322657151,3.065255801428571
4.093432519,-1.5876066570571428,0.1531395769819047,-0.12491294034485706,3.1411986262380958
4.11023737,-1.5206994101476188,0.4386141328390476,-0.2889332970115237,3.1981540031904765
4.127051051,-1.3190828277666666,0.6099528613628571,-0.4522387470715237,3.2345676646190475
4.143844925,-1.0553072747190475,0.6507418808533333,-0.7170251040239046,3.1936035437142856
4.160664404,-0.8044677234333333,0.6284465875,-1.0578778414524759,3.2155822572380948
4.177478887,-0.5925594283857143,0.5813549984142857,-1.3962970404048571,3.2832766316666664
4.194277462,-0.3344058762904762,0.5673147610333332,-1.5906889211191428,3.282476103904762
4.211092434,-0.0060765856238095325,0.6794601196304763,-1.6127299977858096,3.374468317047619
4.227894508,0.3581096786142857,0.821064792935238,-1.5799971421000951,3.5075624405238095
4.244718991,0.6449495498047619,0.890189457504762,-1.5248256438858094,3.549293147380953
4.261502958,0.7828329859047619,0.9290247758238095,-1.4262319150191427,3.549900723047619
4.278322335,0.7960843586190476,0.9635891289904761,-1.3395817023953334,3.5937361514761905
4.295132801,0.7644496872380954,0.9778001081333334,-1.2563888997905714,3.6634229901904765
4.311938424,0.7909902163904763,0.9675201049809523,-1.0862260261667618,3.743303801571429
4.328762674,0.852672917504762,0.9421936060657142,-0.8193294774524761,3.837455163952381
4.345559622,0.9252859070238095,0.8693672404371429,-0.5193586576429523,3.9329255742857145
4.362363791,0.984891959604762,0.7529946381038096,-0.24261292954771424,4.011892101380953
4.379174388,1.0162173452904764,0.5896084294371429,-0.04793420854771425,4.080690955571429
4.395981213,1.009878817052381,0.4268865514371429,-0.06517416517619042,4.071636778952381
4.412791566,0.9663665180999998,0.2879825447180952,-0.20367045057142852,4.105253643809523
4.429598523,0.880894184104762,0.18848868457142853,-0.18116027399999993,4.10240795347619
4.446403761,0.7044654573761905,0.1390135284523809,0.14166465828571434,3.9279308886190476
4.463221062,0.46191712789999995,0.10701545607619044,0.5306012914285715,3.789515227142857
4.480025322,0.19409735999523808,0.07625206270952377,0.7903911897142858,3.802393280285714
4.49682814,-0.10278717676666667,0.06905047909999995,0.9820925338095238,3.818961550285714
4.513640059,-0.3767511277190476,0.07529713244095233,1.2042463336666667,3.7348459076666662
4.530461227,-0.5971917879095239,0.09104194628857137,1.4576886154285715,3.6152533134285716
4.547257534,-0.8335285413857143,0.06080336331714282,1.604164782,3.566305050095238
4.564063198,-1.130531379147619,-0.05081757516619052,1.5849487554047619,3.426434549619047
4.580872381,-1.4250994863857143,-0.1775856845233334,1.4790173712,3.223770240904762
4.597683691,-1.5787660734809525,-0.25904993255666675,1.292114428104762,3.145945396285714
4.614496284,-1.5324780827238096,-0.318029886594762,1.0138829549142858,3.186263325809524
4.631284675,-1.346011911057143,-0.3791940102804763,0.7652817907714284,3.200836784714286
4.64810277,-1.1632332119619047,-0.3957227302280953,0.5511708827238095,3.2047227946190473
4.664919218,-1.074920699590476,-0.37376048705190484,0.3240147999142858,3.1728915989047617
4.681723844,-1.0525012242190475,-0.26485242700904765,0.056935071914285755,3.109745087428571
4.698529997,-1.0409055890333334,-0.06681198987095242,-0.37613002460952377,3.1857685335714288
4.715337818,-1.021265438509524,0.14590005960523805,-0.9402693339904761,3.4052655882380956
4.732144856,-0.9242017381619047,0.35857622141476186,-1.5128585384190476,3.6894428865714284
4.748962657,-0.6870652606380953,0.5286422999385714,-1.6585763295619045,3.8610751225238094
4.765762035,-0.3148003077333333,0.5670545586766667,-1.2897685936571426,4.077635086428571
4.78256361,0.14172390540952384,0.47697726525190476,-0.7667907533238094,4.4479563067142855
4.799382233,0.5299152420761906,0.37643639737095236,-0.4395112991333331,4.6751698930000005
4.816178092,0.7351128261238097,0.2639168890328571,-0.5459752991047617,4.57621002052381
4.832993644,0.7790034613142858,0.13234218449476184,-0.7650077229619047,4.5770072234761905
4.849809074,0.746631213695238,0.07315904957571424,-0.8676806092571427,4.588269779190476
4.866611433,0.7140820367904763,0.09811865210238091,-0.7938776725904761,4.655537621809525
4.883433099,0.704275585409524,0.09600748680714281,-0.6636037571142855,4.755049231809524
4.900224134,0.7050533067904764,0.06487447653095234,-0.5560263821142856,4.844258425428571
4.917042597,0.6833970433619049,0.03562973147142852,-0.48886977209047594,4.9035723672380955
4.93384524,0.6242585636476191,0.004568033899999953,-0.40011053145714265,4.970662250619047
4.950660618,0.49987102693333346,0.0035624325857142353,-0.2766208620666665,4.997673867666667
4.967460271,0.315754345504762,0.0432509885523809,-0.12065982537190456,4.953870800238095
4.984274319,0.1112356866952382,0.11132316000476183,0.0007102205292859196,4.889759988095238
5.001081467,-0.053768907304761804,0.1492284613714285,0.11685514304833354,4.819586913047619
5.017888515,-0.162357761795238,0.14512558487333327,0.20537285007404782,4.755922815590476
5.034696714,-0.23580639707619036,0.07124181298285708,0.25953132479785734,4.6772489693
5.05150843,-0.31726385302857135,-0.07172591636476196,0.42846075975023823,4.469219963585714
5.068312375,-0.40244854069047614,-0.20814019446952386,0.754166384512143,4.127451451442857
5.085122567,-0.5538565999285713,-0.32252310858380956,1.168937089859762,3.7402621557285713
5.101930754,-0.8334283828809522,-0.39009553766,1.378899616812143,3.587390498109524
5.118736631,-1.2162239892142854,-0.35161497482190485,1.1568520097026191,3.331715940347619
5.135550435,-1.6063385917857143,-0.24260236537428576,0.5530612723692858,2.9913964732999996
5.152342824,-1.8158772332190476,-0.1705132297219048,-0.08639186624976183,2.923625897395238
5.16917157,-1.7748451686952382,-0.10114978891238101,-0.370485337040238,3.158544268490476
5.18597338,-1.572908310647619,0.04242770162571423,-0.43928910156404755,3.1561450796809525
5.202768231,-1.2856426238857144,0.15042947306857138,-0.5087694611259523,3.0973200155380956
5.219588604,-0.9808591887904761,0.18888386946380947,-0.7144843170307142,3.067093052157143
5.236384026,-0.7283241180761904,0.2588297838923809,-1.0745295797926189,3.084982186919048
5.253208935,-0.5518707774571427,0.3758503965780952,-1.424088500887857,3.083902340490476
5.270002261,-0.31473489031428564,0.5361689471685713,-1.6208955845069049,3.1225291187285715
5.286818749,-0.048449538980952354,0.7380713140019047,-1.6348352688354761,3.214746065442857
5.303635827,0.17365732649523813,0.883020216587619,-1.563196679035476,3.2657030643
5.320430454,0.30723421917142857,0.9341027141590474,-1.4391481848730951,3.2808092495380956
5.337245539,0.37001148863809524,0.9640865979733333,-1.3016484465838094,3.3274004572523808
5.354059962,0.4167825381285715,1.0039330324542857,-1.1751398175314285,3.396628884728572
5.370863072,0.4685440745,1.0207334133428572,-1.030902226842857,3.495917153566667
5.387669398,0.5533274923285715,1.0272549505333333,-0.8229992872809524,3.6381908287619047
5.404485999,0.6774284953238096,1.047856277042857,-0.5648068559,3.7780791225238097
5.42128852,0.8291113490333334,1.0424367672904762,-0.2927412220904761,3.9487847597619044
5.438098262,0.9614733060333333,0.9828589616380952,-0.052127318771428524,4.12563702647619
5.454906817,1.0544368198890477,0.8898706181904762,-0.06406348664761903,4.087693795761905
5.471712338,1.073655219317619,0.8102734515666666,-0.15548315506190474,4.0825747315714285
5.488522163,0.9798807416509524,0.797295520804762,-0.011982690738095204,4.0491702819999995
5.50533088,0.7656919615604761,0.8407314463333334,0.33606074818571435,3.9270503594285717
5.522141244,0.49406544365571425,0.8821412709095237,0.7125383700428571,3.8112525991904764
5.538945779,0.23209537775095238,0.8464024962,0.9778416525666668,3.815844796904762
5.555756846,-0.04460162210619047,0.7700519378095239,1.131750404852381,3.8745273618095233
5.572563721,-0.3552066258204762,0.6812487883952381,1.2815146985666668,3.88117798052381
5.589373169,-0.6645326387728572,0.6100381286857142,1.5352031815666667,3.8341305360476188
5.606180492,-0.9189208802966666,0.5221753645857142,1.8069459001380952,3.826292977285714
5.622989463,-1.1822117851538096,0.35787544510952374,1.9776474777095239,3.793080303380952
5.639797823,-1.4210942359633332,0.1430466246380952,1.9444036484142857,3.6652372574761904
5.656596478,-1.5570896013061903,-0.030669931823809563,1.8104027283142856,3.5581126608571427
5.673415357,-1.5482819194490478,-0.13663430581904765,1.592640303457143,3.5231089762380954
5.690204308,-1.4324863752490475,-0.20502035531428575,1.3284672726,3.5229229839523812
5.707028609,-1.2755304291680953,-0.24811460998904766,1.0434086379809524,3.577434612047619
5.723833358,-1.126336120477619,-0.2206864030461905,0.7194224482666666,3.6750093876190473
5.740647069,-0.9564914476680951,-0.19124534440809532,0.4422476688857142,3.732159735142857
5.757442102,-0.7972801526680953,-0.1631448226176191,0.16016791545714285,3.7849331452380954
5.774264156,-0.7220847039538094,-0.0002506133795238595,-0.39835601192380954,3.968902962809524
5.791076645,-0.8441351709538095,0.1950427109585714,-1.1288184039238094,4.251563512142857
5.807879837,-0.960860593047619,0.4109076020538095,-1.5770583292857143,4.634506668714285
5.824691026,-0.7864161673809523,0.5535504974395238,-1.5347601145238092,4.668501721666667
5.841494931,-0.3644617853333333,0.5286209995157142,-1.089679629847619,4.98719316352381
5.858306536,0.16028567714285719,0.43700763019190475,-0.6600054784380952,5.341648410190476
5.875112313,0.6584842318095239,0.312170728377619,-0.5195876925809524,5.483223817238095
5.891925423,1.014427957047619,0.12178800364428564,-0.8126099845809523,5.5993623190952375
5.908729307,1.1693968318476191,-0.04917242267952386,-1.046296091152381,5.645283866714286
5.925537037,1.157743249609524,-0.015373711041428621,-1.121408876747619,5.642156506476191
5.94234736,1.1135578382761904,0.11854690457285709,-1.1625202438285716,5.701736474285714
5.959157226,1.1179805028952383,0.18320177710619043,-1.1100525456857142,5.733888139095238
5.975963623,1.1298292478,0.24551227407285708,-0.9666003327809524,5.830555418190476
5.992770356,1.0912954012761906,0.30338154664904754,-0.7585691666333332,5.985582440571428
6.009564769,1.000984805,0.3271343665728571,-0.5735011440095238,6.106394800904762
6.026394095,0.8525575910380953,0.31711812109190474,-0.3969179844380952,6.167222986523809
6.043196484,0.649235475657143,0.27819612341571426,-0.2076036020095237,6.172483180857142
6.06000399,0.40847340084761913,0.2542289651904761,-0.017465965933333282,6.094069496571429
6.076812757,0.18757236570476196,0.2616392984380952,0.2348966486380953,5.962761352095238
6.093622735,-0.09492190681904751,0.23348034706190468,0.2713122937333334,5.806673815714285
6.110420678,-0.4103541374380952,0.1621880616571428,0.1987682980190477,5.714008642714286
6.127235122,-0.6622436841523809,-0.022154701609523868,0.3702281772095239,5.472447959333333
6.144049076,-0.6580167271047618,-0.13405370003333342,0.7844431741142858,5.05348923347619
6.160856043,-0.5883331525809522,-0.23881182360476197,1.1621469287904762,4.674878867285715
6.177651596,-0.7248867352857141,-0.2900235099857143,1.1429982583,4.617076738952381
6.19447372,-1.0201438495142856,-0.18982440236666673,0.6718825896809525,4.248175614238095
6.211268275,-1.3339612824523808,-0.03628301341428575,0.10445912110952396,3.83342294247619
6.228087744,-1.5773211206809523,0.09095805026190473,-0.22398713089047606,3.6225554495714287
6.244895495,-1.701741377538095,0.32254779335714284,-0.14978883946190463,3.451744939571429
6.261706194,-1.608798640147619,0.6816930713571429,-0.35545286108095225,3.6177863737619047
6.278512143,-1.3213006655761905,0.9018233843714285,-0.5350259088190474,3.7529402827142855
6.295317798,-0.9930843626238095,0.9713620117523809,-0.606839284995238,3.7302961219047623
6.31213279,-0.7171618144333333,1.0465537990809524,-0.9492339548523807,3.753522394285715
6.328933592,-0.46548909238571423,1.0902546530666666,-1.3864577753285712,3.743684530047619
6.345749806,-0.18800967086190465,1.1547821107238097,-1.633374151714286,3.6515715012857144
6.362555033,0.09012449347142867,1.2687954420238094,-1.6532340787619044,3.665964470380952
6.379361572,0.3371100879000001,1.314432254847619,-1.5922383580952382,3.6876920285714285
6.396173992,0.5141020728523811,1.3122616126571427,-1.5277694577142857,3.684032335809524
6.412979412,0.609841210409524,1.2432244505380952,-1.4700515667428569,3.698042139428572
6.4297871,0.6535172234619049,1.101951247204762,-1.4666054702666667,3.7043562349523804
6.446595288,0.7386560893523811,0.9592636653571428,-1.3011433283619047,3.7790889731904764
6.46340792,0.8716561906857143,0.8087981528095237,-0.9723894255523808,3.8451383479523806
6.480215273,1.0234620684000002,0.6363971148380952,-0.5493203345047617,3.984540565952381
6.497015313,1.1130994160380954,0.42154175897619045,-0.31058398888571415,4.1147105818571434
6.513832828,1.1248658497333335,0.25510460707142857,-0.19696874565714267,4.185041801666666
6.530643742,1.0781601042000002,0.09401297288095237,-0.08597064588095221,4.249382050904762
6.547438256,0.9933311824761905,-0.05635578007142857,-0.10792899135714269,4.296035399190476
6.564253901,0.8503201801761907,-0.1304536270047619,0.025128864080952554,4.287436232476191
6.581058833,0.6473230179285716,-0.12373170183809525,0.2094953457142859,4.307655277428571
6.597863968,0.42485863811904767,-0.11868327926666668,0.4337779510000002,4.36279995452381
6.614680009,0.1434583663095239,-0.23253199950476192,0.8854942889047621,4.194304666142857
6.631483821,-0.1963500523095237,-0.39247507493333333,1.147658966809524,4.1335511149999995
6.648291032,-0.5301422392142856,-0.5165632487904762,1.2107066852428574,4.139396861523809
6.665096321,-0.8133954320714284,-0.6318416219714286,1.3950137183523812,4.058394169809524
6.681910144,-1.065948236547619,-0.7286336131380953,1.5813839733523811,3.937779362523809
6.698722562,-1.3062753677380952,-0.8418175457714286,1.5844004480523812,3.875603477
6.715529611,-1.5098737080714284,-0.9571202930000001,1.4387307124571431,3.7319940125238094
6.732337625,-1.626256670231,-1.006557543395238,1.2257627830761906,3.635254500285714
6.749147439,-1.602832476231,-1.0149417654904762,0.9527800948857145,3.6628825609047624
6.765954834,-1.449605532978619,-0.9816617845857143,0.5802959898857145,3.8419171658571427
6.782759094,-1.2280593598881429,-0.9355552587476191,0.17510502821904783,4.11209553452381
6.799573975,-1.0187213533500477,-0.8270022451000001,-0.1028309421619046,4.238216905142857
6.816377513,-0.9028105507786189,-0.6588251882333334,-0.0872628674476189,4.253787288714285
6.833186474,-1.0388864334929047,-0.4706630018980953,-0.3712652396333332,3.990005219761905
6.849998475,-1.1985724085119525,-0.28567717975523815,-1.2293736350142856,4.469741019714286
6.866802767,-1.0977154912548095,-0.27431116432666675,-1.836756159728571,4.865415538619048
6.883610547,-0.8219602447786191,-0.2796018201838096,-1.8750764740619044,4.925985681
6.900428428,-0.40697953806433323,-0.36754137775523815,-1.3177959279190474,5.341451874571429
6.917227258,0.022700922888047724,-0.46841264196476196,-0.9041397613095234,5.735698219714286
6.934037194,0.2963387399356668,-0.44476953999809526,-0.8732748129904758,5.717063518809524
6.950844201,0.45873072042614293,-0.44293615218857146,-1.0772459491809523,5.643599865571429
6.967655349,0.6147964796166191,-0.48099177933142867,-1.243115928847619,5.503435416142857
6.98446257,0.835594109178524,-0.48829190076000006,-1.1316682823238093,5.448090516142858
7.001271175,1.072401841521381,-0.4766696421409524,-0.9491020993571426,5.442506646571429
7.018077021,1.250127247421381,-0.426492131864762,-0.7628487021333331,5.461765998
7.034887692,1.329837708230905,-0.3711902584076191,-0.5283497656095236,5.548643205047619
7.051684374,1.3302935191356666,-0.36396129639809527,-0.34034241087619027,5.635476384047619
7.068502,1.2251180467070955,-0.3848947683695239,-0.20146817242380927,5.773860377190476
7.08529909,1.0267043113428573,-0.34468692256000005,-0.045294738852380736,5.901525429666667
7.102122404,0.7271458534380952,-0.244329035264762,0.17904981557619068,5.963529315666666
7.118915372,0.37659340805714286,-0.1997026360790477,0.48790348158571445,5.866254629476191
7.135720916,-0.02272535513333327,-0.21349033144095245,0.7109917233000002,5.7115332526666664
7.152551319,-0.4237884113714286,-0.2685299487076191,0.7385841438714289,5.655380107857143
7.169351663,-0.7105474018476191,-0.326189537812381,0.44003626287142883,5.563631052285714
7.186166718,-0.7347490674190476,-0.3799891116714286,0.3853139991523812,5.629335768714286
7.202971059,-0.6641132037047619,-0.4263397866428572,1.038164853914286,4.9953623869047625
7.219776184,-0.7509101913428571,-0.32680557595714294,1.5216482565285714,4.504043625666667
7.236584667,-0.9419885135952383,-0.1837871287428572,1.4505003747238097,4.348116916761906
7.253395936,-1.2356055804809525,0.060738258447619,0.9723703520476192,3.865165862333334
7.270202435,-1.5224354834857143,0.26716003106666664,0.5307299296047621,3.453277218904762
7.287010033,-1.6107350985380953,0.3233163030666666,0.383695301557143,3.4399339883809525
7.303819938,-1.5387348220619046,0.3673917012571428,0.2970416376047621,3.539689623571429
7.320629499,-1.4079309418238095,0.49342035539999995,0.03408745931904777,3.8181510577619044
7.33742962,-1.2708622387666666,0.6217658335428571,-0.41498274458571416,3.966589965
7.354242639,-1.1529753775857141,0.6809799600190475,-0.7904715481095237,3.996810666523809
7.371052759,-1.0399334090095236,0.640282276147619,-1.219884855395238,4.0831399491904765
7.387851201,-0.8666721298190476,0.5789872095857143,-1.6592892294904762,4.123789102619048
7.404669836,-0.593209766152381,0.6162016391904761,-1.9051792621571426,4.12470638347619
7.421480271,-0.22938887272380948,0.7601503304380951,-1.9442743687285713,4.1551500218571435
7.438286443,0.13706504737142863,0.8836227372,-1.8959644862523806,4.177691116238096
7.455092109,0.4470043409904762,0.9107950103333332,-1.8155678510619044,4.124402281190476
7.471905708,0.6496344521476191,0.9327086154142856,-1.6881786982142857,4.069742941333333
7.488709845,0.7958872886714287,0.980653821090476,-1.4539091359761902,3.975233675571429
7.505508349,0.932171753552381,1.016521665385714,-1.2132468223095236,3.847895735333333
7.522325834,1.0400447846054286,1.0226877687190477,-0.9517820448809522,3.836150396809524
7.539145282,1.123479843181619,1.0036017767666667,-0.7064705575952379,3.8833527395238097
7.555944904,1.167470387076857,0.9212944494047619,-0.5085058552619046,3.9891353740952384
7.572739786,1.126524471143524,0.8074068612428571,-0.38362669092380935,4.096661844
7.589558685,1.0197606087292381,0.7117206270761903,-0.28820692354761884,4.179139730999999
7.606370504,0.8729941504720952,0.6337261683333333,-0.19218219458571412,4.252587421047619
7.623177267,0.7118081138578096,0.5454687760904762,-0.08882774623809507,4.315248555
7.639970684,0.5171523775768572,0.4633846028190476,0.0003528311285715825,4.350617989999999
7.656789634,0.2925424576101905,0.4356483590571428,0.2084917113809525,4.304825532714285
7.673605318,0.0524144399911429,0.35655188281904754,0.5488315309622859,4.108639019809524
7.690418419,-0.22494954153266664,0.2005909823857142,0.7916003380432383,3.917819886523809
7.707219201,-0.501424516961238,0.0768497785714285,0.9290505193575239,3.8078058120476195
7.72402521,-0.7663267226755237,0.06311656613428564,1.1922267107956193,3.6769496597619047
7.740837263,-1.0344405174850475,0.06750840098190469,1.4309937159432382,3.563110995047619
7.757644871,-1.3432278633898096,-0.007466564475238175,1.5135010651303813,3.5154628300476185
7.774459375,-1.648971012770762,-0.18587734433238104,1.4171595686970477,3.4126310593809523
7.79125976,-1.8673555284374284,-0.4039960800466668,1.209599949078,3.3156823304761907
7.808067093,-1.896111760913619,-0.5961235179038097,0.8958672341732381,3.3425353817142858
7.824876888,-1.7417317345945713,-0.6844150281228573,0.5143195674589526,3.456564078761905
7.841684251,-1.471467109070762,-0.7534688894657143,0.10703336626847629,3.680120182095238
7.858492987,-1.1734330769040953,-0.7910170738561905,-0.2867256232553332,3.979541027857143
7.875301725,-0.9246739888619047,-0.7870249449133333,-0.5537074179696189,4.105547550380952
7.892097948,-0.8633685340571428,-0.672918170584762,-0.658617099064857,4.030615406142857
7.908917803,-1.0493356615238094,-0.4142576497752382,-1.1723021098267619,4.279908329619048
7.925726866,-1.0209721158047618,-0.20281400420380957,-1.7760358596362857,4.6534448757142854
7.942535002,-0.7584710577095238,-0.1769472346085715,-1.9364004647791428,4.699009596000001
7.959344033,-0.37662174604285714,-0.2947034324371429,-1.722501840112476,4.930648925761905
7.976154521,0.06359045829047619,-0.44996029419428585,-1.3975157172077142,5.272413315714286
7.992947123,0.42812324686190484,-0.5278957769657143,-1.2293946518124759,5.375871354
8.009768747,0.6644534154809524,-0.5813818899800001,-1.2144575163791427,5.248160339428571
8.026566336,0.8151834123190478,-0.6528295441381905,-1.246487088365238,5.102181074838096
8.043383963,0.9045557974619048,-0.6219704143715239,-1.15739221397,5.061173730980952
8.060180788,0.9729971657476191,-0.5356652984620001,-1.064615089522381,5.053846796933334
8.076999717,1.0507408322714287,-0.47491894372485727,-0.9486857470557142,5.068269438219048
8.093811709,1.084748358842857,-0.36560086901533345,-0.6877172378699998,5.2272041575047625
8.110614138,1.065927096652381,-0.24214706463438104,-0.40485588591428556,5.410639446838096
8.127418928,0.9709850946047619,-0.20196407112961914,-0.26401063257619034,5.5152095357904765
8.144230503,0.7866670517,-0.17066384432009535,-0.1495794330095237,5.624203415647618
8.161045485,0.500757262747619,-0.13157545884390487,-0.05388087767619034,5.667728221980953
8.177850762,0.15519907355714288,-0.11476728960580965,0.07557215694285728,5.622402859076191
8.194657923,-0.1963991211095238,-0.05074303565342868,0.26797621137142874,5.4213743229333335
8.211465886,-0.5212005661095238,-0.007873950301047724,0.4652979101333335,5.136469654790476
8.228274694,-0.7569094839809523,-0.04250353367247629,0.43973658880000005,5.021420731742857
8.245086513,-0.7761125791714285,-0.14965748862009534,0.2683899243714287,5.066878015314286
8.26189292,-0.5695982660761905,-0.32148843509628583,0.5551188287523812,4.7202631246476185
8.278702755,-0.5706627936761904,-0.4232274130772382,1.0196932568000001,4.258843482600001
8.295507739,-0.7738369305809524,-0.3702539752010477,1.1189486994142857,4.133729505028571
8.312318215,-1.0678998629142857,-0.1908439092962858,0.8252134166714288,3.828986996409524
8.329125099,-1.3985393387666665,0.06487277789419038,0.39198284630000013,3.443781536695238
8.345933979,-1.6251028832476189,0.2786791885084761,0.08871187058571446,3.374676908361905
8.36274126,-1.6803836595214283,0.41949759566561895,-0.2039241960999998,3.6326834190761907
8.379551736,-1.5989060855976192,0.5762501458238095,-0.48648414726666644,3.953055595047619
8.396360789,-1.435868558454762,0.6547059005380951,-0.759822402695238,4.106179365
8.413152404,-1.2411681811214286,0.6700111584904762,-0.9660627785047617,4.189015036238095
8.429974508,-1.0452827499309525,0.6238899613809523,-1.301433534838095,4.271524377857143
8.446783418,-0.8059491203119048,0.5180471553571427,-1.7732776857428572,4.204427424666666
8.463591778,-0.48385324931190477,0.4850054028571428,-2.125423051028571,4.060556194619047
8.48038785,-0.08092087793095237,0.6089117427809523,-2.172129034933333,4.054347344476191
8.497209251,0.3261667205928572,0.7263077625523808,-2.1160622494047616,4.004348713095238
8.514016177,0.6683005151166667,0.8144886891285713,-1.9010865915,3.9381172955714283
8.530820946,0.9234536034499999,0.8342403826285713,-1.6371021384047617,3.8940048839047616
8.547638685,1.0899896621595238,0.7881824729142857,-1.3820897170238093,3.9133580128571426
8.564432397,1.1900989441690477,0.7381300685142855,-1.127296765595238,3.9699065609047617
8.581250675,1.2224641073357143,0.7266978352285713,-0.8565086750238093,3.964244790809524
8.598054641,1.2022002083738095,0.6928371404190475,-0.616184586547619,3.9796139261904764
8.614867641,1.1668480918309525,0.6269708034666666,-0.4318281241666665,4.032638091142857
8.631674626,1.123032161140476,0.5457968641142856,-0.3059575954999999,4.101652269571429
8.648483953,1.0625550405690478,0.44133926716666655,-0.3166636739380951,4.18625577952381
8.665292568,0.9788335163785714,0.3372564386904761,-0.3335132655571427,4.234074185857143
8.682100298,0.8552056720880953,0.2870301874047618,-0.21915830313809512,4.305977687428571
8.698907437,0.706545648092857,0.22270957773809513,0.04813141481428584,4.355281876047619
8.71571654,0.5174954050809524,0.1130766428809523,0.4404175338142859,4.256353836761905
8.732524534,0.2571698597476191,0.0025822790238094434,0.7895745237714287,4.103871135238095
8.749331897,-0.04387798763333336,-0.08304393150000007,0.9633420251809526,4.045788497285715
8.766143767,-0.35463821320476197,-0.14965917239047624,1.0719598929190477,4.022818762857144
8.782950713,-0.6631894338714285,-0.1290820425238096,1.2920331784666668,3.964498911904762
8.799755828,-0.9584167117285715,-0.08264816230952388,1.5312733536523813,3.898605667095238
8.816565451,-1.2677709943,-0.1260928497190477,1.5979686918466665,3.8541945693809523
8.833374359,-1.5724725269190476,-0.24031795062857148,1.49297082988,3.733417985666667
8.850183879,-1.784345944742857,-0.3345928518285715,1.363193063484762,3.6085966266666665
8.866989544,-1.8328583581238096,-0.4292683118809525,1.085822349484762,3.589394727857143
8.883809765,-1.706110227695238,-0.5547661156666668,0.6482303539609526,3.7656482433333336
8.900594515,-1.4603360040238096,-0.6697887750000001,0.12486357348476204,4.068572146619048
8.917421429,-1.1844615028428571,-0.7301711639047619,-0.2792000373247618,4.318143368285715
8.934237481,-0.9498798279952381,-0.7437054770952382,-0.4821689753247618,4.466977158095238
8.951034478,-0.8980619794142856,-0.5387167590476191,-0.6548374209914284,4.452819651285714
8.967829471,-1.1606685547761904,-0.28051777114285725,-0.9793719734199998,4.7011966358095245
8.984650099,-1.298047883204762,0.005715205523809441,-1.6436917668009523,5.225986794190476
9.001460637,-1.1644362495190475,0.1412621906666666,-1.7085762364057144,5.181138944714285
9.018264083,-0.7951354980428571,0.05194296152380946,-1.3675280979009523,5.460411488190476
9.035075129,-0.22183876947142853,-0.24396760695238104,-1.0635531061866665,5.8630965963333335
9.051879787,0.288167136052381,-0.47144938085714294,-1.0515560308533334,5.997385723857143
9.068692043,0.6318375042428572,-0.5776435364285716,-1.2364488101390474,5.958024802619048
9.085500098,0.8484559286047619,-0.6419629157000001,-1.2978518093580953,5.791603795676191
9.102306719,1.014797778352381,-0.6185583628428573,-1.1771192550057141,5.709578037247619
9.119103339,1.1706935564666667,-0.5507748822380952,-1.0936442499342856,5.641034351628572
9.135922453,1.3081070128047618,-0.5077044609,-0.9948241369580951,5.603002203104762
9.152730416,1.370992569709524,-0.4321906041380953,-0.763811684762857,5.737030986533334
9.169543048,1.3443962506142857,-0.31464365408571443,-0.5706743796238095,5.8722014503904765
9.186332906,1.2283048629952382,-0.24316818515714292,-0.3699275595142857,6.041985996819047
9.203160827,1.0198519570571427,-0.2263448139142858,-0.22156656349999995,6.242179400104762
9.219965871,0.7117935135333333,-0.23396811172380963,-0.10334390680809519,6.339704953342856
9.236772431,0.2953598840095238,-0.19535633639047625,0.08268067390619052,6.258406497628571
9.253580516,-0.17258675889523814,-0.11967064224761913,0.3231787057633334,6.018086879723809
9.270390514,-0.6073384965619049,-0.055902777628571515,0.4626079230490477,5.770031211438095
9.287201235,-0.9294014430619049,-0.048678348390476286,0.44288059076333347,5.603404633914286
9.304002555,-1.0171322140952381,-0.2556946007238096,0.41647762909666675,5.584427803533334
9.320798209,-0.7337496620957144,-0.4909883523904763,0.5866524889061905,5.285924780628571
9.33762781,-0.5343141555242857,-0.7345624153428572,1.0909155777157142,4.728939851295238
9.354424106,-0.5870082037242857,-0.7930997907047621,1.0752268177633335,4.7347825874380955
9.371236728,-0.8338040396909524,-0.6276009663238097,0.6610659643823811,4.412435143200001
9.388061618,-1.219295955805238,-0.2945335264666668,0.21159157291571445,3.927751403295238
9.404856256,-1.5146903537433332,-0.016089304466666798,0.028466849025238238,3.69758075272381
9.421664179,-1.644395237862381,0.22618474148571416,0.05484272744904776,3.707632902009524
9.438473506,-1.6376365479814283,0.3902975548999998,-0.1532483953366665,3.9472067266190476
9.455282019,-1.537545067919524,0.40835059266190465,-0.5664456402414284,4.161543822047619
9.472091741,-1.407451402557619,0.3538795539952379,-0.8542961337176189,4.2983698228571425
9.488896307,-1.272638502562381,0.253213678142857,-1.2061850514319046,4.40810988047619
9.505701677,-1.084115073752857,0.12485454200476175,-1.7759137891938095,4.413562019952381
9.522516598,-0.7917055629433334,-0.001048322176190624,-2.1689544235271425,4.375649215809524
9.539323168,-0.40011387775285717,0.05180947985238081,-2.3079178106747618,4.294934659619048
9.556130837,0.015032223342380916,0.23568137351428559,-2.2685933681033332,4.286710295952381
9.572937753,0.3720473108185714,0.42925797622857126,-2.0571291447,4.266214063
9.589748422,0.6776490438661904,0.6049314525190475,-1.720827800938095,4.255804479999999
9.606554473,0.9329261325804762,0.6943443340047618,-1.408550449795238,4.22051352052381
9.623363922,1.1372843696757142,0.7248249033095238,-1.157299932985714,4.212189918571429
9.640171132,1.2633823212709523,0.780360373047619,-0.9532446236523807,4.212058127904761
9.65698637,1.327432314494762,0.857711567085714,-0.8326611177714285,4.162534501714286
9.673788575,1.3555983588190474,0.907343911990476,-0.7593799942428571,4.113710536580952
9.690597525,1.3549479983476191,0.8911222921809522,-0.6411899554666666,4.079387880247619
9.707405051,1.3231920060047617,0.9091547294571427,-0.5511802945238093,4.04245141167619
9.72421624,1.269015902495238,0.7961334805523809,-0.5064818120380951,4.047570397866666
9.741020358,1.1189686683714284,0.7132196219999999,-0.49461344302857124,4.0578840633904765
9.757829185,0.9185629798333332,0.6849299519999998,-0.37621535566190467,4.127329936961905
9.774638187,0.6995788528095238,0.6326510132380951,-0.15730766446666655,4.223964263057143
9.791437565,0.46577860051904757,0.5836638062857142,0.20238093543809535,4.206206536009524
9.80825569,0.18465328209047618,0.541222370047619,0.670765292152381,4.130193689580953
9.825060328,-0.1335570926714286,0.509354565090476,1.0056020703428572,4.1078207548190475
9.841863235,-0.43989671990952384,0.5400608515238093,1.3233609200095238,4.080572275009524
9.858680924,-0.7149825551476191,0.5537848294999999,1.6749105737714285,3.9658050499142856
9.875476457,-0.9830067499571429,0.5310963115333333,1.9011085260666671,3.877970371104762
9.892294633,-1.251244545147619,0.3598498169619046,1.8420785467000003,3.802795150057143
9.909108577,-1.4524047489857144,0.11774401505714276,1.5996136636999998,3.6694452338666665
9.925898353,-1.5184470586904764,-0.03719379722857155,1.2338774629857145,3.599880230961905
9.942723804,-1.4675342016428572,-0.12187257201904773,0.7966751342714288,3.5492748713428575
9.959524442,-1.3218205771666665,-0.19958707126666678,0.38838613317619064,3.651968353295238
9.976344807,-1.1384583429285715,-0.25928781290476205,-0.021635637395237984,3.8768178767714283
9.993148457,-0.947427386452381,-0.2927564226904763,-0.34885582753809513,4.095942810771429
10.00995471,-0.8535015016428572,-0.21253396220476203,-0.461715842990476,4.197180291057143
10.02676172,-1.0657245319190476,-0.1670646284761906,-0.6973021512809523,4.434826302666667
10.0435712,-1.2343540874,-0.07127595094285727,-1.317167279342857,4.986060978809523
10.06036709,-1.109752632447619,-0.10585885534761917,-1.3842696037619047,5.015802288142858
10.07718583,-0.7929547402095238,-0.16622415753809539,-0.9839123403428571,5.368273306190476
10.09399478,-0.2918416887333333,-0.37860217693809534,-0.5149799330761905,5.829816161047619
10.11080492,0.15299822026666673,-0.5447120056714287,-0.45870219250476185,5.9235724914761905
10.1276116,0.4752588271238096,-0.6594922642190477,-0.6931125352190476,5.780465082952381
10.14442136,0.7134695052333333,-0.7113336424380954,-0.8904345291714286,5.611291313190476
10.16122815,0.9411519140666668,-0.6620105150571431,-0.9228071400761904,5.502679308619047
10.17803626,1.176645937357143,-0.5817054552904763,-0.8772774907428571,5.439670214571429
10.19483438,1.3793512752666668,-0.47827433834761923,-0.8104854965047618,5.397452547285715
10.21165294,1.4760724021714287,-0.3321347762333335,-0.6428363465999999,5.473260375666667
10.22846317,1.4494046483142857,-0.2404900804190478,-0.5256362274666666,5.549600168380953
10.24527122,1.2967259316000002,-0.1642918232623811,-0.37775316704761897,5.700614729380953
10.26209285,1.034612632914286,-0.05301374345761919,-0.1758375055714285,5.882494754571429
10.27888557,0.6908297538571428,-0.04030443802904776,0.06191443247619054,6.017276405571429
10.29568918,0.28009880157142863,-0.09453874119571443,0.23609764220476195,6.102400606380952
10.3125036,-0.1742951074761904,-0.10396872962428587,0.3553014708238096,6.069476934380952
10.32929981,-0.6117659977142857,-0.06954343129095256,0.49819434239523813,5.895995595857142
10.34610395,-0.9900776544761906,-0.059716986814762084,0.5823577356809525,5.717674091095238
10.36293181,-1.1687350499714286,-0.18208814381476207,0.5241534594428572,5.685256012761904
10.3797355,-0.9371034757809524,-0.2546319905433335,0.6044356934428572,5.555939939238095
10.39654568,-0.6603460084,-0.29860347799571446,1.0321188993476191,5.120665241
10.4133489,-0.6234527541619047,-0.223478056219524,0.9729351769190476,5.195313309095238
10.43017011,-0.8084410938761903,-0.014114731933809702,0.583576951604762,4.8482111134285715
10.44697243,-1.1735745156571429,0.25385392839952364,0.2079496041761906,4.355933644047619
10.46377304,-1.5329221088952383,0.3881283146090475,0.06751783107619055,4.156596463857143
10.48058528,-1.708207902404762,0.46856233325190455,-0.118145948495238,4.2791241569047616
10.49739362,-1.6519411631333336,0.512679216280476,-0.37399384535238084,4.539658086809524
10.51420396,-1.5099741163,0.4774355404709522,-0.7591842641142856,4.7010648912380955
10.53100943,-1.376956576304762,0.37589993349952366,-1.1647356181619046,4.824780203285714
10.54781836,-1.2748151051666665,0.21283288216619028,-1.5822693337333331,4.928158873333333
10.56462878,-1.104381243309524,0.027123734975714117,-1.9756609769714286,4.8519789181904756
10.58143344,-0.7904320670238095,-0.004980427957619216,-2.159334239542857,4.776965174809524
10.59823904,-0.3482020695,0.09104820936190458,-2.180956647542857,4.73935085804762
10.61505619,0.1315703165952381,0.20820243293809507,-2.1068925857809524,4.715423630857143
10.63186077,0.5719319299285713,0.3539617429857141,-1.9640876338761906,4.6781386682857145
10.64866472,0.9444349380714285,0.4715226632380951,-1.7614768573190474,4.587962235476191
10.66547653,1.2246236120666667,0.5779895178571427,-1.5507802282238095,4.435184510476191
10.68229027,1.4045240539142856,0.6408552704285713,-1.3592305069857142,4.279348405333333
10.69909386,1.496495950847619,0.6787474800523808,-1.2146159978190474,4.124357503647619
10.71588922,1.4913421131857145,0.7088432900238094,-0.9997106166285713,4.077950874266667
10.73270949,1.3843767757095238,0.6601221298333333,-0.7505170844857142,4.089401533219048
10.74952324,1.2072206679476192,0.6315114916238094,-0.5017597448190474,4.027510707742857
10.76632838,1.0050200281380952,0.5189855630523807,-0.259463378342857,4.01793469707619
10.78312274,0.8069920313285714,0.3671846637666665,-0.26585808819999984,4.065140563314285
10.79994004,0.6461471830619048,0.3370974538619046,-0.391838851390476,4.136223696980952
10.81675392,0.5689058304428573,0.3474394387666665,-0.38524891645238085,4.201617433790476
10.83355837,0.459207216952381,0.3407202071952379,-0.08350623788095224,4.119210274647619
10.85036429,0.21398746404761906,0.33944787509999985,0.38716223697619057,3.9972848611238097
10.86717672,-0.09629149657142856,0.345512988290476,0.7906212182619049,3.8968844740761908
10.8839842,-0.3900832902380952,0.38481182922380935,1.1385202521666666,3.7683197183142854
10.90079368,-0.6244855607619048,0.4520606731999998,1.4865975437380954,3.642562385409524
10.91759901,-0.8414008957142857,0.4896483158476189,1.718047976547619,3.5975426645047626
10.93441573,-1.1066240582380953,0.4259303375095236,1.7774354305095241,3.575674594552381
10.95122027,-1.3709292638095238,0.24740846593809507,1.635127592714286,3.453754965266666
10.96802376,-1.5362656002190476,0.03374240722380936,1.2992202242857145,3.328930570790476
10.98483314,-1.594759350647619,-0.042014850785714444,0.8656424597142858,3.2780984350761906
11.00164824,-1.5195319311238094,-0.04902159959047636,0.45993950542857154,3.325198519647619
11.01843826,-1.3190917059761904,-0.06524740802380968,0.0940610483333334,3.5428739069333335
11.03525899,-1.0460933502999998,-0.09325138590000016,-0.1650127994761904,3.8234745131238093
11.05206678,-0.8409561883285713,-0.1082277440285716,-0.1882712868619047,3.9952509670476193
11.06887551,-0.8951633316476189,-0.06371771016190493,-0.4848806033857142,4.122794681142857
11.08568314,-1.0471950939333332,0.17510108293333318,-1.1848376333380952,4.594356358047619
11.10249106,-1.0866291182190477,0.39411724320476177,-1.529323722290476,4.807771460952382
11.11930011,-0.9824299130938094,0.551687690442857,-1.3635172358142857,4.933527771666667
11.13612088,-0.653652849617619,0.5502740045380952,-0.8682946843095236,5.282248148809524
11.15292121,-0.18056803656999995,0.4644365438571427,-0.43555400735714284,5.590198011666667
11.16970566,0.23963192533476194,0.370840032195238,-0.2897393444809523,5.713750894619047
11.18653665,0.5935535885252381,0.23275220321904752,-0.34583370159571414,5.733194463285715
11.20332439,0.8639159202871428,0.16487793057142844,-0.4232754734052379,5.6347226286190475
11.22015237,1.0493382953538095,0.13849772657142842,-0.4770508520719046,5.515267367190476
11.23694581,1.1403626260204764,0.14768602951428558,-0.4533130071195237,5.474037086428572
11.25376634,1.169912224687143,0.18179231249047606,-0.324450779405238,5.55153877304762
11.27056601,1.1495604514490476,0.2220644660476189,-0.21189821607190462,5.634723886047619
11.28738225,1.07406168883,0.23460081011904746,-0.14287344036714272,5.721636901619048
11.30419062,0.9223918459728571,0.25579612530952367,-0.04795502471476178,5.841053670571429
11.32099916,0.679361956382381,0.25843133178571415,0.10100592894952393,5.911159904380953
11.33780915,0.3960213433347619,0.17027626508095225,0.2849348841019049,5.901050451047619
11.35461666,0.09340406595380954,0.10012693563333318,0.4501509951209525,5.799670757666667
11.37142659,-0.2282080196652381,0.06578032674285701,0.6420354673590478,5.565932028666667
11.38823149,-0.5454401062033334,0.05739825610952368,0.7670028266923811,5.307481815428572
11.40504888,-0.742712406915238,0.05051364715714272,0.7188925005780954,5.1867249049523805
11.42183956,-0.6709875833819048,0.016389431714285578,0.8785464366733335,5.017089826190476
11.4386605,-0.5018280120390477,-0.10864883732857156,1.4283773159352382,4.435845940904762
11.45546644,-0.43148020337238097,-0.2407969640809525,1.6716482892828572,4.169488043428571
11.47227514,-0.4836458705928572,-0.2596956271285716,1.3791474981923808,3.978064405333333
11.48908178,-0.7070827257309524,-0.08138851960476207,0.8926704240019048,3.5897174239523806
11.50589221,-1.0191353162166668,0.06482955321904744,0.475717144144762,3.234204528857143
11.52270126,-1.2443682125833333,0.1455039992619046,0.20769716143047626,3.063974492238095
11.53950861,-1.4018002691785714,0.25644955328571417,0.038108090545238206,3.0454250574285715
11.55631715,-1.4715120906166668,0.3002521665999998,-0.27459373650238084,3.1740166503333334
11.57312395,-1.4123375075404763,0.3535985223619046,-0.5810287765499998,3.3398723664285717
11.58992082,-1.23811324435,0.4051659405999998,-0.9152897057404762,3.4838548585714286
11.60673951,-1.00019881835,0.442854672742857,-1.3920606290261905,3.5531804988095237
11.62353639,-0.6990633237309524,0.5059025217285712,-1.7885446066452382,3.598284451
11.64035805,-0.3148861838738095,0.6496579122619045,-1.938477450930952,3.60931469747619
11.65717696,0.13290616455476192,0.8851464348809521,-1.9132320001214287,3.669353452047619
11.67397272,0.5682947523166666,1.1247828731190475,-1.7923437328809524,3.720281184428571
11.69077024,0.8936762810785713,1.2844105264523809,-1.6240165829857143,3.7092535925714287
11.70758965,1.0602481025500001,1.3827055282095237,-1.4707697658619046,3.6693357894761904
11.72439983,1.1070374535166667,1.4730296916285712,-1.333533551052381,3.664390268333333
11.74120852,1.1061530795357144,1.553257654190476,-1.1694100385761903,3.6827697207142855
11.75801235,1.1054343724057145,1.5709274397809518,-0.9920671696238095,3.722412589714286
11.77482173,1.1089799064485715,1.574749807595238,-0.8043937598142856,3.8055752469999997
11.79163651,1.11806924012,1.6077309251619045,-0.5805225627904761,3.945403710571429
11.80842678,1.1045390084533335,1.5221078283095235,-0.42097324418571425,4.032572280999999
11.8252471,1.059295745215238,1.4060287419476187,-0.3413282235714285,4.058196761142857
11.84205991,0.9549149105438094,1.335787881033333,-0.22088162104761894,4.111149435714286
11.85886076,0.817742870077143,1.2961418061285714,0.003688551142857213,4.211191452047619
11.87567711,0.6477097557771427,1.2731773626523808,0.241934957952381,4.270363819619048
11.89248324,0.4620680809914286,1.2786387772714283,0.5609778676666667,4.299864191761905
11.90929115,0.2747288432390476,1.2880287624142854,0.8236235437095238,4.202640882333334
11.92610192,0.0641738801914286,1.215594728738095,1.0871501025857142,4.067904001761905
11.94290282,-0.1549733706180952,1.0979578253047617,1.3697135164904761,3.906198015285714
11.95971522,-0.37359473814190475,0.9513279298285712,1.7204533929190475,3.731936935333333
11.97652164,-0.6095859209038095,0.7964296212571427,1.9898798863428573,3.5757470658571426
11.99333108,-0.8875947679038095,0.6187793966380951,2.0625164651000003,3.459881682047619
12.01013692,-1.1797354107133333,0.3569554132095237,1.9676843782428572,3.27493355
12.02694981,-1.4164861042704762,0.07998895492380936,1.7406487081952382,3.1449061981428574
12.0437616,-1.5496215819942858,-0.11757458545714303,1.4324161963857143,3.1433812332380957
12.0605644,-1.5863871801133331,-0.20663182378571449,1.203553047957143,3.150536540857143
12.07737165,-1.5502618607666665,-0.2538969560342859,1.0460076914333334,3.1225505860952385
12.0941806,-1.4524302255333335,-0.27378147566761923,0.8439201641952382,3.142308730238095
12.11098945,-1.2825048537390475,-0.17652272051523826,0.5499341161952381,3.2798832280952386
12.12780564,-1.049574443267619,-0.007747258534285875,0.173843862052381,3.4986111564761906
12.14460904,-0.900415193472381,0.15183319075142843,-0.2962344927571428,3.669487657857143
12.16141737,-0.9328052657104762,0.3352052455466665,-0.8042041446619047,3.9152523599047617
12.17822521,-0.9268453916152382,0.6024276613847617,-1.1623798765190476,4.179824119047619
12.19502786,-0.7572062583390478,0.6778682838704759,-1.168900794995238,4.159228739285714
12.21183944,-0.36863208957714283,0.525075290822857,-0.9823178209952379,4.377621318809524
12.2286451,0.13244158875619044,0.369377439870476,-0.8193845281380951,4.660266433190476
12.24547006,0.5165009725180952,0.24500765401333321,-0.8220692235190474,4.730718866809523
12.26225907,0.7399635314228571,0.11476433563238081,-0.7944142010333332,4.674353013428571
12.27907412,0.816035020827619,0.09135638960380939,-0.8031921373333333,4.597354248047619
12.29588011,0.7996693792085714,0.20978378684666654,-0.8110525424761903,4.646557798
12.31268976,0.74338184078,0.36968744370380935,-0.7788841086666665,4.724564779857142
12.32949526,0.680391765684762,0.5396328540371427,-0.5707355951380951,4.914832242666667
12.34630438,0.5883937107799999,0.661433986322857,-0.324096141895238,5.12170637152381
12.36309696,0.46007744458952377,0.7103037153657141,-0.1772083385142856,5.24723854847619
12.37991226,0.29731121505142855,0.7482979866038095,-0.06700098519523802,5.293026645904762
12.3967281,0.15372317168,0.7882355736038095,0.07005299269047627,5.26132500847619
12.4135383,0.07259598223238098,0.7558327204133332,0.1481636478190477,5.263143494238095
12.43034638,0.03463011687142858,0.6523422485666666,0.1346348864380953,5.327119526904762
12.44715288,-0.027024428128095225,0.5239206964333333,0.13109776515238103,5.358355153428572
12.46396136,-0.1900320280833333,0.3569166333857141,0.18711154229523816,5.260843209761904
12.48077176,-0.43519104100714284,0.16425802734285697,0.33947759015238105,5.001051254619047
12.49757777,-0.6027279127690476,-0.04610006728095254,0.5691507203428572,4.708104936619047
12.51438577,-0.559947377197619,-0.17205429791904775,0.9212464491761907,4.365254285714285
12.53118339,-0.5370381219119048,-0.3578867983809526,1.2441579274238097,4.064803064047619
12.5480029,-0.6526468821880952,-0.40703888880952394,1.188308361095238,4.024809247333333
12.56480417,-0.9827766872357143,-0.24405402942857157,0.8376578405571429,3.6912023365714286
12.58161992,-1.392333484802381,-0.04190570542857158,0.477957461604762,3.3428370133809517
12.59841707,-1.6294856752309523,0.12719912609523795,0.1982500638904763,3.23192278647619
12.61523448,-1.673587708192857,0.24470585719047605,-0.010588557876190376,3.3064218054285717
12.63204743,-1.5748559860261904,0.25673024136190464,-0.2275619250714285,3.4501074449999996
12.6488494,-1.3687980060738094,0.1918533330142856,-0.469471979642857,3.5032479027619043
12.66566387,-1.0762253260738095,0.19407785782380943,-0.7240767506904761,3.515441126428571
12.68247455,-0.7592234383119049,0.17807413558571417,-1.1585472225952378,3.4583738190952378
12.69927717,-0.4128830998833334,0.21481613025238083,-1.6279929734523808,3.4247608736190474
12.71608453,-0.022850308930952433,0.36058709439999986,-1.8513715182142856,3.430894711857143
12.73289687,0.3988035294499999,0.5964243950190475,-1.8244344223238096,3.5052884895714285
12.74970694,0.7849799339261904,0.858893550495238,-1.7095988023999997,3.643911176952381
12.76650746,1.0424467269738094,1.0299858393523809,-1.6233623822714283,3.706522209952381
12.78331835,1.1300725029738095,1.1594889362142855,-1.4976824777714286,3.6339428252857138
12.80012784,1.0708809354019049,1.290237154238095,-1.3421349071571427,3.550426980571428
12.81693564,0.9672134036904761,1.4096490243857143,-1.1382437263476188,3.5236783812857144
12.83374214,0.9099744161857143,1.4599834722952378,-0.9327448039190475,3.568890514095238
12.85055334,0.8990083877095238,1.4584706709333333,-0.7355495634904761,3.6531502823333333
12.86735977,0.8901565189476189,1.4201014552619047,-0.4957376321333332,3.8230603596190478
12.88416923,0.8966626667571428,1.307886095247619,-0.30565547942857124,3.9702440133809525
12.9009761,0.9110891251857142,1.110103726390476,-0.2515021193380951,4.0336292194761905
12.91778487,0.8764940217095238,0.9776518628666666,-0.04521050622857129,4.161885118904761
12.93459408,0.8013979821809523,0.775955336390476,0.11374267796190492,4.200802115857143
12.9514041,0.6655393782761904,0.5996991395809521,0.24059878930476206,4.168742592904762
12.96820972,0.48595410309523807,0.5620690030666665,0.4342756441809525,4.137013825952382
12.98501873,0.29610361376190475,0.6014997292190474,0.6381813954904764,4.089584618761905
13.00182723,0.09510176528571429,0.6534455177571427,0.9114110002047621,4.037475189857143
13.01863742,-0.14430350342857143,0.6307529963285713,1.1293732652047621,3.959450745761905
13.03543078,-0.400337310047619,0.5833219076999998,1.375342782109524,3.8242906482380956
13.05226107,-0.6780983834285714,0.5283870228761903,1.6691655758714286,3.683049560809524
13.06905578,-0.9791757266190476,0.42816468934285695,1.8058135779761908,3.5544888907619048
13.08585662,-1.2992974463333333,0.2794832644438094,1.7663270633057147,3.3607191004285717
13.10267277,-1.5890327862857145,0.07928513064380938,1.6227144798295239,3.131007392285715
13.11948916,-1.7790597961523809,-0.04538370027523825,1.4940621512866668,3.031960726904762
13.13629152,-1.8222426233123807,-0.13833609361333346,1.3978661668342858,3.0519956151904757
13.15310157,-1.7269823210695239,-0.25360673378000015,1.2793941498390478,3.1054930259047615
13.16990554,-1.5492218335457142,-0.34809715259428586,1.0667880433628572,3.1444107211428576
13.1867217,-1.346087115164762,-0.35081640164047634,0.7448105415057145,3.2374652697619046
13.20352829,-1.1163493338314285,-0.26897695513095254,0.3840309154580953,3.36302407
13.22033129,-0.8726120676409524,-0.05370886263095255,-0.13044692787523798,3.517275505142857
13.23714164,-0.6902707190695239,0.3170842301785713,-0.6983116638276189,3.761590516857143
13.25395157,-0.7135460263076191,0.655506698892857,-0.9545782577799999,3.8712482971904763
13.27075921,-0.6406656674028572,0.7318586764214284,-1.1720844848057141,3.675224950490476
13.28756625,-0.2642775263552381,0.6872861584690475,-0.9676184143771428,3.9222806916333335
13.30437558,0.26022988269238095,0.5744277438023809,-0.733336113815238,4.264168837490477
13.32118451,0.6943982441685714,0.4433161886499998,-0.7950201517723808,4.426223089538095
13.33799075,0.9560596375019047,0.2760807630785713,-0.8751223442723809,4.452328841204762
13.3547996,1.0597238086114285,0.08980668869761893,-0.889755392462857,4.401662150919048
13.37160916,1.0444117499923808,-0.020588124050000118,-0.809432956510476,4.447803819109524
13.38842258,0.9652466319447619,-0.04509272884523821,-0.8343804692247618,4.506365772871429
13.40521675,0.89516028904,-0.10587639606904775,-0.8667983058771427,4.553492646204762
13.42203266,0.8100836390876189,-0.10092737842142868,-0.6821696319342857,4.7359469124428575
13.43884652,0.7042448407542856,-0.12681365719857154,-0.4096777269971427,4.980391512300001
13.45565133,0.6039556322304761,-0.19911586239857157,-0.2188908998066666,5.121030360109524
13.47245776,0.5160745666685714,-0.26475581238428586,-0.11100653816857135,5.180774540680953
13.48926662,0.4180722918285714,-0.29985447862238107,-0.06858118952571421,5.230431146680952
13.5060743,0.30543286463333325,-0.28181755114619056,-0.05314886581142849,5.225211169395238
13.52288316,0.17534787320476183,-0.2564022129414287,-0.008333847763809446,5.168384290919048
13.53968019,0.02549639209047615,-0.32183332528571434,0.08432051671238103,5.059699563061905
13.55649589,-0.16002164561904766,-0.46920770547619056,0.17886145333142864,4.920506562680953
13.57331556,-0.3738181704142857,-0.7341753513809525,0.40999722471238104,4.633967997776191
13.59011724,-0.5606293905095238,-1.0706306624619049,0.7399537903076191,4.2365968383476185
13.60692415,-0.5594106855571429,-1.2949697417476191,0.8942899617980952,4.046741702204762
13.62372996,-0.6250849450809524,-1.329684610836667,0.8868992838714286,4.098544785904762
13.64054433,-0.9749948182714286,-1.1661952861461906,0.5728726499952381,3.7714707126190476
13.65734914,-1.428462005652381,-0.9294410958128574,0.3270580143761906,3.373716700571428
13.67415475,-1.748032183742857,-0.7281792859080953,0.3142210187952382,3.1712501792857144
13.69096681,-1.8692941437419048,-0.5122675796223811,0.30243511989047633,3.1293643212857143
13.70777248,-1.826122851484762,-0.34494689676523815,0.11341574641428584,3.163429454285714
13.72458213,-1.6510663939609524,-0.264242099874762,-0.2071589686333332,3.1521062407619045
13.74138918,-1.3755571273419047,-0.20969974568904776,-0.47850019029999985,3.2340173248095234
13.75819852,-1.043677670532381,-0.14049365548904774,-0.7474228712190476,3.3133975783809526
13.7750068,-0.6921716190085715,-0.16064379044619062,-1.191657219695238,3.2878219049047623
13.79181362,-0.36294096991333336,-0.17561549657476205,-1.7445181381714285,3.2738881855238096
13.8086231,-0.07005437215142855,-0.11334935399857156,-2.096987139695238,3.312900587190476
13.82543374,0.2377061617057143,-0.0013624841366667913,-2.1595303729285713,3.355233021
13.84223585,0.5407796587533333,0.18784133448238083,-2.0077731156190475,3.483633624761905
13.85904984,0.7849468049914285,0.35156202172047607,-1.7846665383333336,3.613123592952381
13.87585738,0.9207363128961904,0.44186484101571416,-1.5387117522857143,3.6843073941428575
13.89266352,0.95122423629,0.5148418616538094,-1.3126699244285713,3.6731499903333336
13.90947417,0.9415522530280953,0.5869880616395238,-1.0916976589047618,3.6323232361904765
13.92626628,0.9650743575661904,0.6242067657347617,-0.944425634095238,3.625187965857143
13.94309298,1.0203002294376189,0.6013375704823808,-0.8347786609285714,3.648299039285714
13.9598959,1.0767067728042856,0.5068491796252379,-0.7041396669904761,3.7213425277619043
13.97670327,1.1183698290900002,0.3544732033761903,-0.5876949004666665,3.817234261190476
13.99350311,1.112374282994762,0.2471666264476189,-0.43048538487619037,3.912416296904762
14.01032312,1.0513631275185713,0.06847986006666654,-0.30816233163809514,4.020592316
14.02711843,0.9235925673709524,-0.08984009574285727,-0.26018333724542847,4.083020973095238
14.04393581,0.7299301964176189,-0.09997582583809539,-0.1556949956549523,4.164622887904762
14.06074941,0.513885679622381,-0.06481405812380968,0.00903526654504771,4.23025367152381
14.07754877,0.2698173976223809,-0.05018720317142873,0.2545437614021906,4.257067743285715
14.09436961,-0.002842108520476225,-0.08725810196190492,0.5694502165926667,4.188664594952381
14.1111718,-0.31146903275857146,-0.0906707460333335,0.8537307892117143,4.0957443742380955
14.12797834,-0.6212770599014286,-0.032271859238095384,1.1013285772926669,3.9852197095714286
14.14478576,-0.8964955693776191,0.028495856647618896,1.4232807045593334,3.813321373619048
14.16160022,-1.161027522377619,0.04565204604285699,1.675529417521238,3.6831848794285715
14.17840453,-1.4586825598538096,-0.018960138200000157,1.718682042173619,3.605189775619048
14.19521577,-1.7223210108538094,-0.19422212958095256,1.5173802404117143,3.4604539205714286
14.21201744,-1.857415971387143,-0.3975456016761906,1.1818446800783808,3.419240922761905
14.22883157,-1.8288304011966667,-0.5595170770809526,0.8145096330307621,3.5002783936666666
14.24563722,-1.6946572804285716,-0.6070934023619049,0.5499031912688572,3.5890111095238098
14.2624372,-1.5080779394571429,-0.5760692982904764,0.301842908078381,3.705723893857143
14.27927196,-1.3118775232476192,-0.4431652767666668,0.03191805174504771,3.883751320809524
14.29606107,-1.1193061556904762,-0.24459127305238107,-0.1725631696359047,4.034710472714286
14.3128693,-1.0440354575095239,0.02871205404285701,-0.4247561778263809,4.085478116380953
14.32967999,-1.1471872784619048,0.24700917228095226,-1.0409160935882855,4.428427212238096
14.34648703,-1.0790933655142858,0.3390809297285713,-1.644004449826381,4.696499961952381
14.36329545,-0.8139830090380953,0.40963575951428555,-1.6206975123978093,4.6969271754761905
14.38010371,-0.3737160365142858,0.3495424020857141,-1.0769098256047618,5.151738123142858
14.39691413,0.1602265039619047,0.12554894175238082,-0.7448442972428572,5.448508261571429
14.41371448,0.5903150012952381,-0.08693125134285727,-0.7216629411095239,5.513190856142858
14.43052791,0.8671441759142856,-0.2673851422000001,-0.8834167829190476,5.471093239904762
14.44733626,0.989845480247619,-0.35870949998095253,-1.0315544431571428,5.378911431095238
14.4641464,1.0288519178190476,-0.34613564472857156,-1.1416161539285714,5.342923028476191
14.48093609,1.0666586557714286,-0.3273514509666668,-1.1241329791285715,5.322129272000001
14.49775747,1.1030295689619047,-0.29958716180952394,-0.8363346539190476,5.521631783571429
14.51458688,1.0740012668190475,-0.23989272406666678,-0.5290111924523809,5.767885530285715
14.5313791,0.9835139228666666,-0.15152153520476203,-0.3644623611285714,5.913954344285714
14.54818886,0.8105836368666666,-0.06378671672238106,-0.19178705808095237,6.043923422619048
14.56498817,0.5550107047809523,-0.004379760674762032,0.055525408252380976,6.073468340857143
14.58179282,0.2317574818761904,0.018255801420476073,0.30564233552857145,6.0445497355714295
14.59860604,-0.09067351479047625,-0.05778027150809538,0.3890622715761905,6.063636261190476
14.61543315,-0.38530776617142865,-0.1793551956128573,0.44349403924285713,6.0331961662380955
14.63222679,-0.6405349459333334,-0.34158649332714297,0.5327412545761904,5.896323823761906
14.64902354,-0.8332618532333333,-0.5429164966128572,0.5879366315761905,5.729129712380952
14.66584466,-0.8627018247904763,-0.770145274327143,0.647312122052381,5.617691733333333
14.6826533,-0.6906981241523811,-0.9002641950414287,1.073888736242857,5.1856195452380955
14.69946308,-0.6711843127714288,-0.9609172826795239,1.431632885052381,4.836288499285714
14.71626828,-0.8402991976523809,-0.9089969935985716,1.2316500261952381,4.716273630714285
14.73307687,-1.1381675175761905,-0.7268569044080954,0.6720342039333334,4.1510883746190474
14.74988441,-1.4738742283809525,-0.5063190148366669,0.31472567992523814,3.7351772415238096
14.76669337,-1.7069440569428573,-0.29159367940809544,0.19867914340142862,3.58039405847619
14.78350392,-1.7930889584142857,-0.07676928674142876,0.12707741197285718,3.59550414452381
14.80030894,-1.7104837781380953,0.12146237063952361,-0.0989310656938095,3.818701632238095
14.81711911,-1.4832155137095238,0.2326014751157141,-0.2698494877795238,3.971333838
14.83391582,-1.2311902954714287,0.30211396159190457,-0.47605464008904763,4.085646099
14.85073515,-0.987567742709524,0.3162621004014283,-1.0376271918033335,4.0232331173333336
14.86753084,-0.6840022632333334,0.2744393376966665,-1.6071395590414288,3.9197819511428573
14.88434997,-0.3006408782333334,0.2684551931442855,-1.8259226027080953,3.851880941857143
14.90114956,0.13605437957619038,0.353117341090476,-1.8319929100414285,3.8499181039999995
14.91796969,0.5420227050523808,0.4411111672571426,-1.8178781782319047,3.8184704785238095
14.93475908,0.8628530048142855,0.5077624746523807,-1.772851523936667,3.7242605063809524
14.95158335,1.0809279169333332,0.5443746163666665,-1.6017848991747619,3.6341271058095237
14.96838068,1.2343223662809524,0.5456357371285713,-1.3795426459842859,3.6037196805238088
14.98520112,1.3369923092238094,0.5202693626999998,-1.1311314560319048,3.648266968619047
15.00201024,1.3689160574238093,0.5027288851285713,-0.9007594699366667,3.7450675422857143
15.01881059,1.3483058838809523,0.47694027703333314,-0.6645144394604763,3.8250430970476192
15.03563231,1.2920157114857143,0.43228119041428553,-0.4197858174604762,3.919438602857143
15.05242884,1.1913803418714284,0.40503285893809504,-0.16577277865095238,4.0125279329523815
15.06927034,1.0616893087523809,0.3262822372142855,-0.014123649793809524,4.123026918238095
15.08604009,0.9071840786285714,0.18867151792857123,-0.028449992308095237,4.253137648571429
15.10285874,0.7341115815761905,0.09625483126333315,-0.13215894072857143,4.349465470238095
15.1196666,0.5532385962809523,0.059123396882380774,-0.0011963418238095183,4.421710334047619
15.13647387,0.38377836775238083,0.07025559178714268,0.26284912369999996,4.4644491870000005
15.15328298,0.2054566201904761,-0.006939802831904942,0.6251146651285714,4.312709837952381
15.17009283,-0.0348023460000001,-0.1193809224985716,0.8577565096476191,4.1641356962380955
15.18690001,-0.3007464862857144,-0.21764046801285733,1.0069050816857144,4.042363780761905
15.20370531,-0.5739462942857144,-0.27245340314619065,1.2463700884433333,3.892000667285714
15.22051729,-0.8725091616190477,-0.29021197127476206,1.4885753023861905,3.769620788761905
15.23732392,-1.2038165046666667,-0.35088605677952395,1.529132819557619,3.7220744002380948
15.25413279,-1.5250806354285715,-0.4824958088604764,1.372608195414762,3.6060717836666667
15.27094017,-1.7721163886190479,-0.5649391880747621,1.1704265609861904,3.5351945984761906
15.28774862,-1.8788987568685713,-0.604497096327143,0.9484092159861904,3.5458248768095237
15.30455787,-1.8360795066542859,-0.6154379659938096,0.7227570889861904,3.577131364190476
15.32136637,-1.6797490801447619,-0.6366942538985716,0.42368270027190474,3.687700593428572
15.33815637,-1.449277105801905,-0.6944031190414288,0.06897288203380951,3.864190923952381
15.35497049,-1.2073765709400002,-0.7214123223747622,-0.20333416196619045,3.9771266555238096
15.37179068,-1.1112828027685715,-0.5755752424223812,-0.45609831887095237,3.933790238190476
15.38859128,-1.253255367297143,-0.26849651761285737,-1.2753072245852382,4.4447002938095235
15.40540955,-1.3323657626304763,-0.0096844420414288,-1.9164751829661906,4.796612052619047
15.4221989,-1.1299311320114287,0.1212007389585712,-2.0192672019138094,4.688212737523809
15.43902412,-0.7265833446304762,0.12364976324428552,-1.6008650040899999,4.957551723571429
15.45581697,-0.16816956658285726,-0.042844637471428804,-0.9611045777566668,5.450621171190476
15.47263954,0.38160653341714273,-0.23623073809047643,-0.7481830151376189,5.753514226
15.48943895,0.7524929955123808,-0.44056089861428593,-0.8286698576804762,5.758942816761905
15.50625491,0.9227728162790476,-0.6439816398523812,-1.0610097393947617,5.802034137333333
15.52306374,0.9346768288504761,-0.8071863211857144,-1.182315795437619,5.852117393857143
15.53985878,0.871381282850476,-0.8859351774571431,-1.1523889561090477,5.913410738857142
15.55668312,0.8364686966123808,-0.943814578561905,-0.8994784754857141,6.090643656047619
15.57349738,0.8451894351838095,-0.9496702225952385,-0.5895918184285713,6.291740747
15.59028396,0.8479128338028571,-0.9244549289152382,-0.3459950737428571,6.418739323904762
15.6071094,0.813705489755238,-0.9160181213485716,-0.18730857207619042,6.467592362285715
15.62391479,0.7327725547076189,-0.9028973168438096,-0.05398511836666664,6.4788593130952385
15.64072307,0.6044283140523808,-0.8581419602009526,0.0945322518761905,6.455460872761906
15.65752894,0.4073767208142856,-0.7611695627866668,0.25313403543333335,6.4161944221428575
15.67432644,0.1294190997666666,-0.6440538097476192,0.40056374578571435,6.2526297469523815
15.69114999,-0.21835186366190484,-0.5174629135190478,0.49312992940476197,6.036605144857143
15.70795416,-0.5582837604238096,-0.4200971226142859,0.4785251338809524,5.883018048857143
15.72475743,-0.6992483593285714,-0.4979383619523811,0.4568201195000001,5.871928564095238
15.7415777,-0.5502965336761905,-0.7495146209523811,1.0282531356428573,5.268942567190477
15.75837911,-0.414069607152381,-0.9944117253809525,1.4302791302619047,4.828870079952381
15.77518734,-0.5309942109619049,-1.089671249914286,1.3395184678285714,4.888317072380953
15.79199625,-0.819310983057143,-1.0077409190976192,0.8371105650666666,4.5546741124761905
15.80880491,-1.2396641459285715,-0.8027459198833333,0.23843384925714284,3.94686151147619
15.82561347,-1.6431357293619049,-0.6087312457404763,-0.028964059671428594,3.528510763
15.84241413,-1.8807420958428571,-0.4002168278357144,-0.0560346160414286,3.417447159619048
15.85925457,-1.875417323414286,-0.11787750469285727,-0.07830881499380955,3.4348908040476194
15.87602591,-1.6467393921285716,0.12080859140238082,-0.3055289302319048,3.6128892361904756
15.89284611,-1.3461417698904763,0.2722451473785713,-0.612229489122381,3.7475329374285713
15.90964195,-1.0446003733190476,0.42142723709285707,-1.0156123354080953,3.6618173425238094
15.92646073,-0.7416731517476192,0.44274748502619027,-1.4676045065509524,3.5165399564285713
15.94327177,-0.44713224689047626,0.3476078907319047,-1.8820261671223812,3.4957155739999997
15.96007588,-0.12638528008095243,0.2932594701985713,-2.076325478979524,3.5316951410476194
15.97688958,0.23628253025238086,0.3609617579176189,-1.9799356516890476,3.634199365047619
15.99369324,0.5712743259190476,0.396376598408095,-1.8308759245985715,3.769507103190476
16.01051137,0.8334950719190475,0.33713934532714274,-1.7175767364414287,3.856754344142858
16.0273054,0.9994508197761904,0.24649891395476178,-1.5617780230795237,3.9210950525238095
16.04412503,1.1096150079999998,0.15455672001190462,-1.345221451317619,3.938119536904762
16.060929,1.1916888100414285,0.019455625869047498,-1.1560579084128573,3.952136624428571
16.0777356,1.2229928061842856,-0.09649267936428585,-0.9632114115080952,3.984521445904762
16.09453696,1.2275398344985713,-0.19258611260238107,-0.7507793846509524,4.075268274952381
16.11135101,1.2101917720699997,-0.27690454612619064,-0.5237091666033334,4.174106789380953
16.12816291,1.181111994212857,-0.31079521921190495,-0.35606106688904776,4.1670126440476185
16.14496979,1.1062594368319045,-0.29122970221904776,-0.15813750879380958,4.197009473142858
16.16177669,0.9858635039414284,-0.2753344462428573,-0.008016881460476273,4.30011913147619
16.17858573,0.8454195431366665,-0.2878926964333335,0.061282322563333255,4.413186343761905
16.19539446,0.7075256166176189,-0.32655469862380965,0.07475011125714277,4.4765816886190475
16.21220387,0.5148360842795237,-0.38936589162380963,0.24310970309047614,4.424219731428572
16.22900868,0.25541989008904753,-0.47357538482857153,0.5648137075904761,4.21080588952381
16.24582024,-0.005929061339523904,-0.5818709163523812,0.8324334394714283,4.033355471285714
16.26262818,-0.30170701800619054,-0.6856432500195239,0.9724564155190475,3.970698669761905
16.27943376,-0.6442744391490477,-0.683728629619524,1.1087516702523807,3.9454108964285717
16.29622683,-0.9783342452442858,-0.5795658003671429,1.3106160802714284,3.8749621341428573
16.31305606,-1.3145566668157145,-0.4978465693290478,1.3938087842333333,3.819261175142857
16.32985122,-1.6523283777204762,-0.5472373266957145,1.2187132203761903,3.699684736619047
16.34666852,-1.8938965797633334,-0.6023005914052382,0.9602719197571427,3.5465630973333333
16.3634705,-1.9613521440014285,-0.6034787708814286,0.5993256505190475,3.559239284142857
16.3802877,-1.8455582800490475,-0.5337292339004763,0.22698842275714284,3.6885745067142857
16.39707911,-1.6401092211776191,-0.40802449698142873,-0.09147175786190481,3.837129181619047
16.41389708,-1.4584791320285713,-0.2363814356719049,-0.2949519391,3.9066184577619048
16.43071202,-1.4389298076276191,-0.07665377145761919,-0.6162088207666667,3.990073067476191
16.44751713,-1.4248698780085713,0.12725036906619036,-1.3859783756714286,4.436833567238096
16.4643258,-1.3759423438133334,0.22802515396142842,-1.9714633345285713,4.669394902952381
16.48113138,-1.252359662775238,0.2513295936804761,-2.1585881545285717,4.682148745428571
16.49794437,-0.9941181682990474,0.1555490479185713,-2.0257228164333334,4.788216229857143
16.51474798,-0.6228060268704761,-0.009261842319523936,-1.662182479242857,5.1232657934761905
16.53156249,-0.1749479657752381,-0.1623085240814287,-1.3436014203857143,5.442370029190476
16.54836732,0.21387238722476187,-0.26977241182904776,-1.0530886655952378,5.6406105879999995
16.56517489,0.5001524288914285,-0.39413272342904776,-0.9338970360476191,5.625842923333333
16.58198509,0.6939391181247618,-0.5001383069385715,-0.980728981642857,5.5594613057142865
16.59879022,0.8192566008628571,-0.5450248477385715,-0.9843744102333332,5.460493861619048
16.6155988,0.931765828815238,-0.5824823621142858,-0.7680922866142855,5.517813193809523
16.63241271,1.031001658672381,-0.6271321702952383,-0.4676458032523808,5.655827798428571
16.64921871,1.0922627221961905,-0.6838736690714287,-0.22841516765238085,5.764573699142857
16.66602293,1.106765292910476,-0.7340825015857144,-0.06660599923333323,5.822550075571429
16.68283211,1.0499301410533333,-0.7628549309190478,0.059378300528571556,5.88430059352381
16.69964905,0.891437757572381,-0.7378045803190477,0.2244562933857144,5.976975668380952
16.71643717,0.6202937761914284,-0.7470910407476191,0.4669016714380953,5.958255089190476
16.73325764,0.25434155690571425,-0.8175357949190478,0.5891265472952382,5.896833005619047
16.75006481,-0.13487650099904772,-0.8922247404095239,0.6311024088190477,5.8317527879523805
16.76687371,-0.4503326189038096,-0.9408875845666668,0.6296912773904764,5.794216702142857
16.78367794,-0.5454799334476191,-0.9830599767761906,0.7655407986761905,5.695630406523809
16.80048947,-0.5993153027476191,-1.064837847409524,1.387024306147619,5.130811626428572
16.81728884,-0.6354058357047621,-1.0433561858380953,1.7891535277000004,4.756657166809524
16.83411407,-0.7212200846476191,-0.9826996609952383,1.908871579804762,4.675699974857143
16.85090378,-0.9094189008380953,-0.8509497301380955,1.6858170175047622,4.497323895666666
16.86772203,-1.1685626847666668,-0.6312626316142859,1.1857192602238096,4.10814090347619
16.88453081,-1.4634149869633335,-0.3819112096142859,0.6701727339857144,3.7842255385238097
16.90133952,-1.6663885798109523,-0.2121916214380953,0.13511157893809522,3.6698563561904765
16.9181531,-1.7165551186204762,-0.05084237026666679,-0.2354784039666667,3.803198166142857
16.93495221,-1.6490944227109527,0.11096089801904749,-0.42178275182380953,3.995937289523809
16.95176831,-1.4935253007347622,0.25727590215238083,-0.5774393734000001,4.190301403333334
16.9685706,-1.2929190454490478,0.36353225371904746,-0.9053356959238096,4.175873481809524
16.98538036,-1.0773761613538095,0.40958589319999983,-1.3905774496380954,4.078995040285714
17.00219142,-0.8383334478300002,0.47287477487619034,-1.888639038447619,4.051292259380952
17.01899696,-0.5269603275442858,0.5742993553857142,-2.164169592447619,4.041741264142857
17.03580643,-0.1592247826871429,0.7462648806238095,-2.1368924861142857,4.095938565952381
17.0526015,0.2164374986938095,0.8761572554095236,-2.0593279854952384,4.15238471252381
17.0694239,0.5521653492652381,0.9636222776952379,-1.9681146343095242,4.133729877142858
17.08623162,0.8115401494557142,0.9879131969809523,-1.719687947166667,4.057516005952381
17.10303677,1.0020261037652378,0.9662005702666666,-1.4402037887380952,3.9580398026190475
17.11984929,1.1614436649080953,0.864031127542857,-1.2161714888809525,3.9204017718571427
17.13665515,1.2836420876747618,0.7519357772523808,-1.0007702935476193,3.94831639152381
17.15346727,1.3664775121985713,0.6196766382666665,-0.8443134370666667,4.076870692047619
17.17027307,1.3789082936271428,0.47464473479999986,-0.6831329210000001,4.214517598380953
17.18707892,1.3637458256747617,0.3614661012857142,-0.5736271030095239,4.307837906190477
17.20388882,1.3172314281033333,0.19370803947619036,-0.4281060582809524,4.430197632476191
17.22069917,1.2155000596509522,-0.008936774142857248,-0.3845370071990476,4.465583299666666
17.23750588,1.0542296909904763,-0.14279622405238104,-0.3328062949609525,4.451698604571429
17.25431,0.8516617048857142,-0.17628100086190485,-0.11285962384666674,4.395356379761905
17.27111738,0.5936609223619047,-0.2136541462904763,0.18357476159619038,4.297929599095238
17.2879286,0.2937040329809523,-0.24097036462380966,0.5516385975009522,4.250755269952381
17.30472393,-0.03754702063809529,-0.2455608872904763,0.8281500055485713,4.249621969047619
17.3215452,-0.38529196235238106,-0.1849236402904763,1.0329421928819047,4.294397313142857
17.33834476,-0.690018540304762,-0.09744354086666678,1.2582646551342858,4.274426628285714
17.35516312,-0.9485436847809525,-0.06835025546666679,1.529881494358095,4.160820175904762
17.37195601,-1.2304545129714286,-0.10986961209285726,1.6485251351019048,4.068067862761905
17.38877634,-1.5109334900190476,-0.26635150252619055,1.5054015481114285,3.9246428811428573
17.40558917,-1.727346987947619,-0.42090676082142864,1.2768922639209523,3.7630068836666664
17.42239326,-1.837390876938095,-0.5027687307738097,1.0139777539209522,3.724042550142857
17.43920782,-1.8085167975571428,-0.513031220107143,0.7297264045876188,3.760065668047619
17.45600793,-1.6652162415809524,-0.514029456011905,0.42085908630190466,3.890463838095238
17.4728227,-1.4795364425333333,-0.4535023868214287,0.09548315468285702,4.06110898252381
17.48963063,-1.3416898137285715,-0.3560090590452382,-0.06426363979333348,4.06343130147619
17.50642951,-1.4431039719666667,-0.1545457542357144,-0.47063993350761923,4.1434995652857145
17.52324317,-1.4611308688714286,0.18348829657380938,-1.424707186364762,4.788570442809524
17.54005588,-1.3607991537047621,0.3445853803357142,-1.8520618116504761,4.970624677476191
17.55686022,-1.135445208847619,0.41960418931190463,-1.902147742221905,4.916833024095238
17.57366912,-0.7366898401333335,0.35530171078809514,-1.4251966454990477,5.316616094333334
17.59048004,-0.22045703170476197,0.13129679217380938,-0.8747904276895239,5.783442285809524
17.60728662,0.18449553981904754,-0.010823154754762037,-0.6173515551371429,5.909487852095238
17.62409359,0.47068221219999995,-0.12458975970714298,-0.6172886779133335,5.817707084238096
17.64090216,0.6719761348,-0.25571200823095247,-0.8715086867704764,5.722049419
17.65771276,0.840971265442857,-0.32236741699285726,-1.0008874596942858,5.533432926523809
17.67451856,1.0487267175761903,-0.4348690666119049,-0.935277351789524,5.437636063142857
17.69132748,1.2530959673809523,-0.5457860756642858,-0.6078323556133335,5.610895658714286
17.70813432,1.361609050138095,-0.6173836603214287,-0.21790993540857156,5.887141542476191
17.72494475,1.361186004757143,-0.6448873224857145,0.06207846203809512,6.070843544095238
17.74175144,1.2555424144714284,-0.593503900952381,0.29164940145714274,6.232027127238095
17.75857212,1.0663880393047618,-0.6107795408952382,0.48460926069523796,6.387647111714285
17.77536751,0.7888223329619046,-0.6943315040857145,0.5495323541238094,6.530093346190476
17.79219147,0.4523970739619047,-0.7005787577047621,0.5592725024095236,6.619561619333333
17.80898288,0.08512442448571422,-0.6731517258476192,0.6141628966476189,6.596076616952381
17.82577879,-0.2641112464190477,-0.6911774022285715,0.6340605392666665,6.540820601238096
17.84259901,-0.4863595054190477,-0.7503812739095239,0.5193789093619047,6.566216568666667
17.85941769,-0.4236662955380953,-0.855291729909524,0.7469043451142855,6.359338564809525
17.87622052,-0.41138346987142865,-1.0693394911095238,1.5860630106238092,5.5689243634761905
17.89302293,-0.5236006464190478,-1.1287144933652382,1.984058255528571,5.339223827619048
17.90983485,-0.7684976259904762,-1.0277617261509524,1.9754253628619043,5.350437064904762
17.92664155,-1.1828984533238096,-0.7501142195319048,1.4368844319095235,4.994434863142858
17.94343365,-1.599105857704762,-0.39716353305571434,0.6704030094333333,4.6675129588571425
17.96026085,-1.7715265410380954,-0.22895446279380963,0.11594059929047602,4.665769894428571
17.97706974,-1.7562452725142859,-0.07057219179380961,-0.1282555743761906,4.82828554247619
17.99387534,-1.622380824352381,0.12101202063476182,-0.15127135732857153,4.934445759857143
18.01068465,-1.4132796923761906,0.22359534949190468,-0.23989867302380963,5.133705465809524
18.0274904,-1.2352780160809524,0.25127760278714273,-0.5039306055000001,5.205475399619048
18.04430008,-1.116884163504762,0.20516376826809518,-1.0996091166428572,5.103769312190476
18.06111353,-0.9472661473095239,0.1336813028966666,-1.7571877212142855,4.964420772857143
18.07791485,-0.6544421741666666,0.10078531212999994,-2.144511600261905,4.879289188047618
18.0947234,-0.2563598497380952,0.13953497855380945,-2.259585383309524,4.8368502190000005
18.11153026,0.10764412645238096,0.27301308645857136,-2.2554294182142858,4.779752182095239
18.12834039,0.40973733711904764,0.4484828085299999,-2.0789701738809523,4.609837536142857
18.14515047,0.6379109336333333,0.5274384049190475,-1.8128074377857142,4.444760992809524
18.16195715,0.8054270516428571,0.5585883429333333,-1.5305109278333333,4.34115984352381
18.17876406,0.9296996706047619,0.5755482371714284,-1.138580495309524,4.259133705809524
18.19557454,0.9876998718520953,0.6075650481238094,-0.7910817718809524,4.248166238095238
18.21237066,0.9994929176235239,0.622481246742857,-0.5640152748714288,4.355359999571429
18.2291917,1.0057385761378097,0.6379577545428571,-0.38084995738095256,4.487692676
18.24599888,1.0183634529949523,0.6092142632557143,-0.27973073428571443,4.562984868619047
18.26280908,1.0413834026139999,0.5011256336461903,-0.25041850400000015,4.555238646619047
18.27960425,1.079160508614,0.35158475802714273,-0.159969840657143,4.468257042047618
18.29642556,1.0272480646616189,0.1807823109842856,0.0563115904380951,4.2824466463809525
18.31321884,0.8566927455187618,0.055159353741428475,0.3253601847095237,4.071959636619048
18.33004087,0.5975795699949524,-0.009071281306190563,0.5165980288571427,3.9544037820952385
18.34684648,0.29165642599495234,-0.06932640006809533,0.6310053439952379,3.887675109047619
18.36365637,-0.038361435862190534,-0.17602342579666677,0.7241628397571427,3.789224270571428
18.38046723,-0.374571096338381,-0.22882987416809533,0.8295722150285711,3.711022558571428
18.39727149,-0.6965519132907619,-0.18824250852047628,1.0575719199619047,3.608257035095238
18.4140794,-1.013141836433619,-0.11149510810619058,1.3041738520571426,3.501062759714285
18.43088955,-1.3467912219574285,-0.09948138041095249,1.4363058174285712,3.4516505712380954
18.44769926,-1.6715665090050478,-0.2342591079823811,1.3443580092761902,3.3735791025714286
18.46450424,-1.8730169023383811,-0.39341766136333345,1.1427821453238094,3.312147704904762
18.48131259,-1.9040043240050477,-0.4852327186252382,0.8953544887999998,3.3440500316666664
18.49812134,-1.7542784554240956,-0.5692335813952382,0.6345823513714284,3.4376521480476185
18.51493036,-1.5134237833860003,-0.6532834193142858,0.38329855813333313,3.5540198358571424
18.53173703,-1.3591441199193335,-0.6537253167904763,-0.04959441153333351,3.668239813047619
18.54854553,-1.2843660626428572,-0.5896328502838096,-0.7031492597714287,3.9565647744761905
18.56535514,-1.2065263474857144,-0.475714812664762,-1.3253665516285718,4.214939081904761
18.5821669,-1.1040192103809525,-0.4034614775742858,-1.8549617109619052,4.368863285095237
18.59896971,-0.8998464401904762,-0.39059163983619055,-2.1211184184857146,4.3480076257619045
18.61577666,-0.5924714178571429,-0.4389681092266668,-1.9817663012000002,4.5265930164285715
18.63259092,-0.22219530738095236,-0.5574161310838096,-1.5481023993523813,4.951865686095239
18.64939714,0.1022769383333333,-0.636481486612381,-1.1855679614952384,5.209047217619048
18.6662066,0.29889940085714284,-0.6419856842776192,-1.0544656663380954,5.207108708619048
18.68300876,0.47005097076666663,-0.692491973782381,-1.0226293794380954,5.081413102909524
18.69981093,0.6786970184476191,-0.7511268765442859,-0.8530989451476191,5.036348363671429
18.71661611,0.8961146900190476,-0.7542772346300001,-0.6679823702904764,5.053420734433334
18.7334323,1.0782722973047618,-0.7137233497823811,-0.5513819278000002,5.026292773528572
18.75024109,1.202074459652381,-0.6496534060109526,-0.41669129749523814,5.010448555957143
18.76706009,1.2590257554142856,-0.6527672122585715,-0.308379041209524,5.0043901660523815
18.78386017,1.2444051334142858,-0.6874815789538096,-0.23955979934285723,5.049062834290477
18.80065818,1.1344259580333333,-0.7136425457157143,-0.12426754257142869,5.171964194528572
18.81747692,0.9203569095095238,-0.7066467769538096,0.06738812166666655,5.338635890338095
18.83429073,0.6284064793190476,-0.6870723334490476,0.26777303938095226,5.461012032290476
18.85109318,0.26066048946190473,-0.6747987664014287,0.4010379499857142,5.48200185514762
18.86790292,-0.1321380251571429,-0.6855073595919049,0.3475448476047618,5.492904229385714
18.88470883,-0.4063174156809525,-0.6929830819728573,0.46009411850952364,5.401124381528572
18.9015246,-0.5621290433952382,-0.739640826574762,0.8286519803666665,5.062514910957144
18.91832593,-0.6508059501809524,-0.8642402492890477,1.1796531181285712,4.724316550195239
18.93513683,-0.7081697327776191,-0.9345162826033334,1.4511450884619046,4.447944737433334
18.95194438,-0.8288636207680953,-0.8871947983985715,1.478134820938095,4.364573037576191
18.96875042,-1.0037408783538098,-0.7190222856366668,1.1458068306047617,4.147965400480952
18.98555876,-1.2043563979252383,-0.46382352311285724,0.6280414221285712,3.740438936433333
19.00236905,-1.3481397402109525,-0.2173645839700001,0.3567669633238093,3.5220258761952374
19.01917806,-1.3989421981204762,-0.009292896204762046,0.29044506808095216,3.6128530013380953
19.03598476,-1.390695730891905,0.22051577920476176,-0.023047878585714526,3.9713203711904765
19.05279224,-1.3481134460490476,0.4385503276333331,-0.546863499109524,4.300042810761904
19.06960218,-1.2981797400490476,0.609346957542857,-0.9243680408238097,4.443692117619047
19.0864106,-1.206278006287143,0.6666574251999998,-1.1972455296333335,4.549227601333333
19.10321702,-0.9847185725871431,0.6089898036523808,-1.5693258330142859,4.682953869190476
19.12002447,-0.6405994324919049,0.5612924270095236,-1.8562477315380954,4.794388767190476
19.1368334,-0.24399117068238108,0.6695144915142855,-1.8370569943476192,4.833346815095238
19.15363101,0.14155919203190465,0.7424422786952379,-1.7721933465857145,4.788353132761905
19.17045955,0.4738514762699999,0.7633634295523809,-1.770878524919048,4.620396214714286
19.18725909,0.7357999482509523,0.7254357736190474,-1.7074478920619052,4.483350444857143
19.20406623,0.9499288512509523,0.7190857899523807,-1.596201152952381,4.379075244952381
19.22085997,1.1605528194795238,0.7368867568571427,-1.314008536714286,4.265309780952381
19.23768199,1.323815618160476,0.6778138195714283,-1.0347550766190479,4.245288966571429
19.25448426,1.4160203933033333,0.6167231458571427,-0.8097506874285717,4.266575820571428
19.27129684,1.4448902492771427,0.6002876986666665,-0.5910749604761907,4.307240881714286
19.28811362,1.4040607724214287,0.5313414478142856,-0.389015475809524,4.4003573421904765
19.3049118,1.3268002555071428,0.4188010040809522,-0.155783045761905,4.511740095190476
19.32172819,1.1814418747119046,0.3293825303619046,-0.03592785756666689,4.515558569428571
19.33852758,0.9552244459023809,0.27689814859999984,0.031957798152380736,4.5589497042380955
19.35534516,0.6822714805690475,0.19092160474285697,0.07203148809999978,4.624794817809524
19.3721455,0.4305466697642857,0.03019795255238079,0.06394781818571407,4.643061590142857
19.38896082,0.17538313643571427,-0.14305262049523826,0.37339847860142833,4.482068863142858
19.40576452,-0.0995281309928572,-0.34764619947619063,0.7676071368978568,4.203779312142857
19.42257202,-0.37637369970714285,-0.5541068428428573,1.0025575572788092,4.0480725127142865
19.43937355,-0.6558767954214286,-0.6637530169952383,1.214532649278809,3.9838120434761906
19.45619327,-0.9785314514214285,-0.690426927157143,1.4674463329311902,3.8487061891904766
19.47299883,-1.324557826611905,-0.6791617457761906,1.6104373691026186,3.7027517267142853
19.48980525,-1.6266424314690477,-0.7910378759000002,1.4320479617692856,3.5877960346190476
19.50661441,-1.7880205199309522,-0.8647899328904762,1.1360906121502379,3.540704493333333
19.52342722,-1.7630432900261905,-0.8750097793666667,0.8385375951502377,3.626811778619048
19.54023138,-1.5901126633880953,-0.8153364956000001,0.5412336347216664,3.729337493190476
19.55703859,-1.3440813109119047,-0.760958610504762,0.21346794286452356,3.9204302123809525
19.57384812,-1.1294398760928572,-0.665459344757143,-0.030272638468809728,4.034600888666667
19.59065836,-1.1386864297880954,-0.5161563384904763,-0.2857463543735716,3.9706083233809526
19.60746565,-1.2381639479785715,-0.3216477519190477,-0.9864830699450002,4.402078077095238
19.62427091,-1.2078619002476192,-0.2105456732952382,-1.695376039611667,4.8317963564761905
19.64106809,-1.043319429604762,-0.10573060742857153,-1.9327578271354766,4.830922133
19.65788794,-0.7342586062714286,-0.1111625262857144,-1.7327954041354767,5.080752737571428
19.67468897,-0.3128105572238096,-0.24446420442380962,-1.310609551711667,5.528915352095238
19.69150382,0.10713177634761897,-0.3956986552333334,-1.0382234166211908,5.735226761666667
19.70829762,0.4401161330142857,-0.5222879761857144,-1.0053270965735717,5.680108687095238
19.72512221,0.6859283901238095,-0.6405216682333335,-1.068968250202143,5.530607190714285
19.74193782,0.866239388747619,-0.7692256768523811,-1.0479795587797622,5.381788837999999
19.75873658,0.9782370612238095,-0.8710650886809526,-0.9633985753619052,5.327214161190476
19.77554659,1.0233293714619047,-0.9236430866476193,-0.802277811504762,5.385317461952381
19.79235158,1.0252982775095236,-0.931991499104762,-0.5934933164571432,5.524067733428571
19.80916569,1.0054464794142857,-0.9615818617190477,-0.42388613553809557,5.633488523190476
19.82596496,0.9432594435571428,-0.9908628762428574,-0.27554055585238124,5.7363504050000005
19.84278424,0.8240093957476189,-0.9765114231476191,-0.1192452904238098,5.828394975904762
19.8595831,0.6458696410666666,-0.9089595321333335,0.078811390385714,5.84819002447619
19.87639981,0.4006761596380951,-0.9206273059428574,0.28674646817619015,5.807664980619047
19.89320484,0.08794178282857133,-0.9456692749904763,0.36321047403333295,5.746995986095238
19.91001203,-0.2534040723619049,-0.925481371972381,0.4949916434142854,5.562823020333333
19.92681489,-0.5599684488380954,-0.9040569535676191,0.5285219695571425,5.401390464285715
19.94363171,-0.6061771483809525,-0.9195532600438096,0.5585055808904759,5.37137564052381
19.96043358,-0.5244321141904763,-0.9988373688438097,1.007623581890476,4.909704438714286
19.97723969,-0.5670855158857144,-0.9929024009628572,1.463969979985714,4.458627527380953
19.99405569,-0.7167826379904763,-0.9509562084009524,1.4795269966047617,4.400466485190476
20.0108604,-0.9907487914571428,-0.7905348085914287,1.0872750168428569,4.047758844190476
20.02766842,-1.3356777145428573,-0.5478541341152382,0.636031536785714,3.5841489541428566
20.04447954,-1.6385723976380955,-0.3387761854961906,0.40589247426190445,3.335402127238095
20.06128596,-1.814716407209524,-0.15303790578190485,0.22023798164285688,3.309211478
20.07809338,-1.8101384526,0.0343546695990475,-0.011228743095238353,3.5252875942857145
20.09490345,-1.6523219289857143,0.24766738064666655,-0.3319014481714288,3.7984561387142852
20.11171522,-1.4015640757952381,0.44621706569428565,-0.6178394329333337,3.9603312600476195
20.12850573,-1.1089753423190476,0.5198117295276189,-0.9894907872190479,4.003386283190476
20.14532795,-0.7852775482714287,0.4717776859942856,-1.4749489568857146,4.001124427047619
20.16211754,-0.40306577227142865,0.46220720094666656,-1.8212844133619053,4.012745340190476
20.17893853,0.04471367882380947,0.5552978714147617,-1.8969537416952382,4.0365647124285715
20.19574163,0.45350292753809524,0.6481952014480952,-1.8287661586000001,4.072077583285714
20.2125557,0.7333974611095238,0.6581833078766666,-1.8288452397428574,3.992606737
20.22937334,0.8922135262085712,0.7008988516480952,-1.809324065766667,3.8639670662380956
20.24617912,0.9982062521228572,0.6908871559671427,-1.6722248167285716,3.7543470766666664
20.2629902,1.09056409198,0.6316774203299999,-1.498126342109524,3.7211869174285717
20.27979206,1.1584281012861903,0.5430921457490475,-1.2566042343000003,3.7760665744761903
20.29660105,1.1710032962338093,0.4396606881966666,-1.0218047016333336,3.8559438258095238
20.31341018,1.1236390613290477,0.3214329991395238,-0.7862817048238098,3.885612574380952
20.3302192,1.0437538964385713,0.1900863476347618,-0.6688153033380955,3.884522686380952
20.34702436,0.9632562001623809,0.08924156137761896,-0.5430155140190479,3.8963649445238095
20.3638333,0.8954531805814285,-0.06275874095571438,-0.5332547198333335,3.936012059714286
20.38064694,0.7787557556671428,-0.07530439471761914,-0.4345654475380955,4.037089641190477
20.39746083,0.6716509773814284,-0.05776831086047627,-0.2658955993000002,4.202586618761905
20.41426016,0.5798794429052381,-0.0813801289080953,-0.05177354234761925,4.276103823380952
20.43106537,0.4015442985195237,-0.11515954000333342,0.22845305723333315,4.153101879
20.44787315,0.12120176504333324,-0.18119680319380957,0.48012449069523794,3.98709728847619
20.46468188,-0.20340488062333345,-0.25671624576523816,0.6389538050571426,3.853402717904762
20.48149754,-0.5212954565757144,-0.26315519929857145,0.8144342531047618,3.7329309146190477
20.49829755,-0.8344233148614286,-0.2034711895271429,1.0360556756619046,3.5760781095238094
20.51510641,-1.1664537474328571,-0.16785610297476194,1.1988658820714282,3.425750985857143
20.53190589,-1.5170356885757144,-0.23778340368095247,1.1441672870709523,3.2709994153333333
20.54872282,-1.7737696737566668,-0.3499720494285715,0.9545827366566665,3.1150679602857148
20.56553216,-1.8471584091900002,-0.42962921520476194,0.779480457323333,3.160214908380952
20.58232712,-1.7533851577176192,-0.4698162277857143,0.519963060128095,3.3630202104285716
20.59915116,-1.5363178933461907,-0.4687794390476191,0.19608775208999976,3.6306699203333332
20.61595374,-1.2711902572033336,-0.48221287842857147,-0.1987714086242859,3.9309197859047615
20.6327635,-1.011818726747619,-0.5026183866190477,-0.461758295719524,4.066458289857143
20.64957184,-0.9530775205333335,-0.48347371533333344,-0.5523741813385716,3.998157875047619
20.66638326,-1.0722456204380952,-0.31046189009523817,-1.213498478671905,4.423190627809524
20.68318126,-1.0336706296761906,-0.1584260406190477,-1.8038662473004763,4.895489157619047
20.69999818,-0.828193687152381,-0.09068572513809532,-1.9737574656671433,4.946003915952381
20.71680479,-0.5194204192952382,-0.07139662328095245,-1.7297733510909525,5.126652060238095
20.73361033,-0.06881741105714295,-0.2957340194238096,-1.3755255085671432,5.483280460714285
20.75043181,0.3320276397523808,-0.5083532219000001,-1.277061155852857,5.585860648285713
20.76722458,0.5758437429904761,-0.6484513963285716,-1.273483253614762,5.540447929571428
20.78404189,0.7218827066523809,-0.7971949747095239,-1.2967847343957144,5.430886883238095
20.80084448,0.8132638931761904,-0.9180350615190476,-1.2748461833528573,5.327006432
20.81765961,0.8888248943666666,-0.9465693561238095,-1.2092026684480954,5.243968721904762
20.83445992,0.9890270915047618,-0.9464994072333335,-1.0560656232100003,5.241737420380953
20.85127265,1.0892059235857143,-0.8933445271380953,-0.7309050517195239,5.424553553047619
20.86806445,1.1292947361095238,-0.8321049383095239,-0.45237515227190495,5.597186645047619
20.88489066,1.0880693481571428,-0.7720378409809524,-0.28243083470000013,5.696448483999999
20.90169465,0.9467446918142857,-0.7114320368761906,-0.1505101110000002,5.802488852904761
20.91850586,0.714284011342857,-0.6378975936095239,0.07066310733333314,5.876933663142857
20.93531078,0.4105369931999999,-0.6189515306571429,0.29781908793999984,5.842397814857143
20.95212207,0.01637815300952368,-0.6260734257190477,0.48123738455904735,5.749820693190476
20.9689158,-0.43766462227619063,-0.6069121048619048,0.6097590767495237,5.622173677285714
20.98573805,-0.8652299925619049,-0.5583073951142858,0.5674649605114284,5.550092259476191
21.00254543,-0.9811062812142859,-0.5226047606857144,0.36833754755904735,5.611578212333333
21.0193511,-0.8113443056276192,-0.6065801623714286,0.8122832844638094,5.140536654761904
21.03616085,-0.7422352517847619,-0.678891174909524,1.324068048178095,4.625551383428571
21.05297048,-0.8387722968704763,-0.7071122371619049,1.4113403232638093,4.5027590056571425
21.0697656,-1.0597879091657145,-0.6207526028714287,1.1789188115495235,4.227779291738095
21.08658532,-1.3881134078228572,-0.42639276672857146,0.7128347626733331,3.7292586478809517
21.10338153,-1.6704004605419047,-0.27480549615714295,0.39343828957142835,3.407295912071429
21.12020443,-1.8018734568419048,-0.128120645204762,0.15848092947619025,3.3694267431190474
21.13700239,-1.7599133763800001,0.05970364950952372,-0.09394947689523833,3.601016808595238
21.15381836,-1.5820968037609522,0.23747838250952374,-0.36351626830476214,3.860024743595238
21.17062864,-1.3591303371419048,0.3560114729714285,-0.6090558313333335,4.083878810404761
21.18743012,-1.177907603137143,0.448189285495238,-0.9582598833809526,4.218745992785714
21.20424405,-1.0479437283133333,0.37959937108095226,-1.5551835979523814,4.190000881785714
21.2210549,-0.897072337932381,0.2732655136047618,-2.079478632809524,4.155530278166667
21.23785827,-0.6315277644561906,0.2540291419714285,-2.3453068335714287,4.11451254602381
21.25466354,-0.2387565204085715,0.3897864860571427,-2.384725269809524,4.140492704880953
21.27146581,0.19052882421047612,0.5806370845047618,-2.3505636794285714,4.207435991690477
21.28828354,0.5653136798295237,0.7530368154095237,-2.1960124004638097,4.241792152928572
21.30509418,0.8507759003533334,0.8398021444714284,-1.9165569430352385,4.185117978642857
21.32190298,1.0410535676152382,0.8903962600285712,-1.5975200051304763,4.043576465642857
21.3387092,1.1697618393533333,0.8953015917333333,-1.3555693399400002,3.914753616738095
21.35551682,1.214126586915238,0.878561658495238,-1.1414812462733335,3.8413560605476196
21.37232319,1.203923361642857,0.8037356294190474,-0.9333693470352383,3.8622709518809524
21.38913808,1.1567412331,0.7283848935285713,-0.6679184664161907,3.980214198452381
21.40594093,1.0890785398999998,0.6688364474142856,-0.4250839721685717,4.150723325128571
21.42274962,0.9840226854809524,0.6271821941238094,-0.19097386654952403,4.370149734761905
21.43955926,0.8538406236142857,0.5605382606476189,-0.07107118762571452,4.504681455952381
21.45636737,0.7202323050952382,0.49443872619999985,-0.11344550334285736,4.601343446047619
21.47317358,0.5723652613,0.451982820247619,-0.16562573115238116,4.69661642947619
21.48998277,0.3751655533666667,0.41509743948571415,-0.00015723134285735205,4.61042689752381
21.5067902,0.12886065536666663,0.360463186342857,0.25134140825238077,4.436100336142857
21.5235866,-0.13827766682380954,0.27609227805714276,0.4711434926623808,4.262555599190477
21.54040951,-0.3904619670142857,0.20721304839047608,0.6849857285171426,4.1032885762380955
21.55719941,-0.6121925171571428,0.25626146648095227,0.9602483319590475,3.940273701333334
21.57402226,-0.8341735884428572,0.34800397351666656,1.2155145456685712,3.8266135084761905
21.5908233,-1.1162200200619048,0.359927982045238,1.3412169779019045,3.8058685746666674
21.60763824,-1.4477237746333333,0.21314222611666656,1.2957929394399998,3.699773526952381
21.62444377,-1.7512800806333333,-0.011763105788095321,1.1024310781066664,3.5183780180476187
21.64125816,-1.9261179196904763,-0.21836986283571436,0.8119320040114284,3.426622857142857
21.65806253,-1.916950566357143,-0.32985309613571434,0.5112805559161904,3.401864877285714
21.67487143,-1.769989445047619,-0.3614250704928572,0.27881275696380936,3.43351784
21.69168417,-1.5463933717380955,-0.3758366788500001,0.03944938748761887,3.5811522790000003
21.70848981,-1.3578342483,-0.3297217984595239,-0.22126897517904776,3.740005700428571
21.72528671,-1.3111967586190476,-0.10067250184047628,-0.6308968555600002,3.946225603285714
21.74210259,-1.3370398339666667,0.17874488239761896,-1.4505675556076192,4.411302293761905
21.75891727,-1.3309471720619048,0.4140257878738095,-2.106606657369524,4.686624100904762
21.77572614,-1.1198970931095238,0.5294301879690475,-2.388033791036191,4.583154583904762
21.79252927,-0.691098213204762,0.5093533624642856,-2.1525757349409522,4.823103012952381
21.8093383,-0.14367857434761916,0.361641431245238,-1.657983408931429,5.243206743428571
21.82614929,0.3322386741285714,0.22146837072142853,-1.2139662938361906,5.434930187
21.84295691,0.636920701842857,0.06483199638809516,-1.0142693329314287,5.408236660619048
21.85976082,0.7757172583876191,-0.1391550343738096,-1.0611452383361908,5.388842973285715
21.8765711,0.840373947435238,-0.27610681013571436,-1.0680280818509527,5.356401919809524
21.89336768,0.8904719805780952,-0.32580114956904777,-0.9363394104200002,5.38603327947619
21.91018857,0.9476057460066668,-0.3569635463500001,-0.7427095984809526,5.459863129761905
21.92699488,0.9813395907685712,-0.3727440662238096,-0.5288361680952383,5.5690993909047615
21.94380485,0.9863583700066666,-0.38059351542857156,-0.38263785566190506,5.643851848904762
21.96061387,0.9497509455780954,-0.360230660004762,-0.27270999986666694,5.715389357904762
21.9774256,0.8614111853876191,-0.32223513140000015,-0.1057110004380955,5.800933073333333
21.99422724,0.6872227758733332,-0.2783828192095239,0.09051572127619022,5.841136226190476
22.01101745,0.41733112777809517,-0.25892914040000015,0.14757064960952357,5.888355488095239
22.02783058,0.10655523473047619,-0.26739601424761916,0.129682762085714,5.934567489904762
22.0446446,-0.20993071517428571,-0.30026724358095247,0.15795829732380925,5.884878188714286
22.06146048,-0.44536116017428573,-0.36674615873333344,0.2896071613714283,5.756191235238096
22.07827447,-0.5216822624980952,-0.5456270943761906,0.582168320628571,5.481200652761905
22.09507944,-0.4917263077123809,-0.7694033865857144,1.2147184638523807,4.8530580280904765
22.1118844,-0.4561496235838095,-0.928266800509524,1.6105319006142855,4.427768330804762
22.12869172,-0.5814782324885714,-0.9917309170000002,1.591868982423809,4.369764008328572
22.14550589,-0.8906762487219049,-0.8910421614952382,1.2084218632666663,4.018966959328571
22.16231304,-1.3053669930171428,-0.6462437623523811,0.7651423301285711,3.530737062138095
22.17911602,-1.6458712760076188,-0.42107211120952404,0.5052485892142854,3.262301419519048
22.19592936,-1.837684109150476,-0.15994711997142874,0.32633536488095205,3.2918511942809525
22.21273676,-1.8312105224761903,0.08845086612380937,0.13139081283333306,3.4548823254238092
22.22954447,-1.6975628308095239,0.2470772635523808,-0.22920809758571456,3.7449007773761904
22.24635284,-1.5091434433333335,0.350006361795238,-0.6690731531095241,3.943858892852381
22.26316742,-1.3146971520476192,0.4271747711285713,-1.037181051014286,3.9615433765190473
22.27996908,-1.0941175051904763,0.39045313287142835,-1.4739946325857143,3.9382644516619054
22.29677593,-0.8312631334285715,0.3797537216380951,-1.8381707469666668,3.9433134095190474
22.31358322,-0.47350695014285715,0.44922968604761887,-2.047924112728572,3.9589219803761906
22.33039385,-0.039873917857142886,0.6426179806333332,-2.0734484507761906,4.071711612090477
22.3472004,0.42119711923809516,0.9424815348238094,-2.006308144014286,4.264102132519048
22.36400955,0.8156327747619047,1.158593898728571,-1.836411178061905,4.325649369280952
22.38081633,1.0590297608571428,1.256394619042857,-1.6230119267285716,4.240294032757143
22.39762593,1.144745100157143,1.3445117033785714,-1.4260173212523812,4.1236469940904765
22.41443314,1.1262655940142856,1.4014028835928571,-1.2923461567285717,4.117344526566667
22.43123493,1.0937389420095238,1.3946739335690477,-1.2052837723190477,4.162744163566667
22.44805225,1.0791992687904763,1.4397854875785714,-1.060600553161905,4.268445112285714
22.4648458,1.0947981562776188,1.3178336520738096,-0.7611132745904763,4.462952842571429
22.4816667,1.0896611214538094,1.1509687204690475,-0.453876637209524,4.6370941560476195
22.49847402,1.0219109854014283,1.0074172743261902,-0.19573591995714304,4.8093765520476195
22.51528816,0.9112101283157142,0.9246202295166667,0.017418095133333155,4.966701385952381
22.53208736,0.7850343841157141,0.8191044996976189,0.11564512490476175,5.0311580909047615
22.54890012,0.660160428068095,0.6735174981690475,0.29622173885714276,5.022498507428571
22.56571467,0.48253951761095226,0.623974094692857,0.5681912474285713,4.900231094333334
22.58251625,0.2529185386585714,0.6706881167404761,0.9921540846190475,4.713747919952381
22.59932514,0.012455486182380873,0.7377053541214283,1.3730213785238095,4.571060623809524
22.61612928,-0.1814790452938096,0.8031168820738094,1.5855343513190472,4.4981355924285715
22.63292518,-0.31479826422238105,0.8843584954071427,1.8429906709857142,4.330346088238095
22.64974823,-0.449005671874762,0.8943206369214284,2.1010840791285714,4.172889868476191
22.66655698,-0.6758038202747619,0.8051350981833333,2.239229843795238,4.024643591285714
22.6833622,-0.9962272189890478,0.5980476438642855,2.178394130342857,3.7826460532857142
22.70017541,-1.35125646137,0.2973369146738094,2.017400906219047,3.4866142688095234
22.71698253,-1.6362050828461903,0.08235084581666652,1.8331141699333333,3.3427493055714286
22.73377196,-1.7739087967509524,-0.027253620707143,1.6100134055047617,3.3668601239047615
22.75059377,-1.7821965898604764,-0.07613852480476205,1.4269479400285714,3.415506734571429
22.76740883,-1.6913505508744284,-0.10002420630476205,1.2142918621238095,3.4455220274761906
22.78421552,-1.5409848576363334,-0.05629878950952396,0.927031153742857,3.5672736145714286
22.80102166,-1.389920302774429,0.0014075693571427123,0.5841118608380951,3.66328491747619
22.81782924,-1.2707730928663334,0.25737829721428557,0.3338383833571427,3.5868644007142856
22.83464398,-1.186201799447286,0.5624104596904761,0.12249879611904746,3.5057016649999997
22.85143778,-1.0974344071568094,0.8098074964999998,-0.4846683570238098,3.6647911999047618
22.86825577,-0.8534639222044286,0.9470464020238095,-1.1945752985000002,3.9158439993809524
22.88506003,-0.5199360847282382,0.9850616200333332,-1.457709369309524,3.909208223952381
22.90187269,-0.15972141991871433,0.9522974420857141,-1.306455646309524,4.014295812095239
22.91868002,0.2476783707003333,0.8321628670761905,-1.0047970698809527,4.203791005238095
22.93549582,0.6145370801289047,0.5800186893142856,-0.9082364157380954,4.2978249904285715
22.95229308,0.8302284876527143,0.2721903083619047,-0.9284104876428575,4.290058106571429
22.96910803,0.8676281883812855,0.07425884836190466,-0.9338810445142859,4.2254430437619055
