Time (s),Linear Acceleration x (m/s^2),Linear Acceleration y (m/s^2),Linear Acceleration z (m/s^2),Absolute acceleration (m/s^2)
0.346507036,0.36340234396380955,0.8010552042428571,-0.2331482661995239,2.6847082672809526
0.363314033,0.4912034216304762,1.0785650525285715,-0.40416062239000006,2.615817664757143
0.380124235,0.5845597131066667,1.3798666908142858,-0.5594929720090477,2.5717784974714286
0.396929024,0.6489022573019048,1.673098019147619,-0.7002101661995239,2.5362236849000004
0.413735095,0.6922118777495239,1.921074163290476,-0.8223684154376191,2.511055791280952
0.430551238,0.7416542144190476,2.0319395973238095,-0.9238801776757144,2.547836849233333
0.447354308,0.7956658999095239,2.016179130147619,-1.015674532242381,2.560043313852381
0.464164042,0.8579380625714286,1.9106340862123812,-1.0998310851852382,2.5309114247095237
0.480972616,0.9342717897380952,1.7297533807361904,-1.1592263757423809,2.508306807709524
0.497780498,1.0107108070809523,1.5603442873076192,-1.1909963269280954,2.523155270757143
0.514587769,1.0779091516952382,1.4279660269742858,-1.1930532881861904,2.5880450125190477
0.531391349,1.1635730152666666,1.325051534669524,-1.1647351753814288,2.685064630714286
0.548212537,1.2661852609190476,1.1999506722695237,-1.1185580904242858,2.7800803634761904
0.565009991,1.3798782938857141,1.0155900318885716,-1.0687105088576192,2.8567737393333332
0.581809054,1.4951232274238095,0.7828544207457144,-1.0295952303719047,2.9155485214761905
0.598617282,1.5912869317238096,0.5394478070790476,-0.999077237857619,2.9460108105238096
0.615441246,1.6435259183476187,0.3341916856028571,-0.9726870230957142,2.921101388904762
0.632229304,1.6521091007285715,0.2069409688211905,-0.927054663557619,2.8320390755238094
0.649051905,1.6446906952857143,0.15089389258309524,-0.8739548595671429,2.762266943761905
0.665862706,1.6306069464952377,0.10459606986880955,-0.8032143336242857,2.6932239393333335
0.682671077,1.6177991912523813,0.031627496073571446,-0.7280402084495238,2.6021757150476192
0.699475358,1.6134239151571428,-0.08304468789309523,-0.652728756997143,2.5076969335238095
0.716281287,1.5997099876761904,-0.22147294453119049,-0.5677224568066667,2.4171599191904765
0.733097459,1.5733699117714284,-0.36584929055976195,-0.44719761894,2.306199727342857
0.749902992,1.521718729142857,-0.48355300082738095,-0.3024493058447619,2.2148451947238095
0.766710283,1.4413278443809523,-0.5735098066416667,-0.1598730654638095,2.1713797814380955
0.783516558,1.3249647958095239,-0.6302621705035714,-0.03438722517809524,2.1688670166761903
0.800327208,1.1721733865714286,-0.6569972265178572,0.06629602681714288,2.1857958697238096
0.817140156,0.9782232103333334,-0.6597386087530953,0.14386849459809525,2.209659520342857
0.833932107,0.7608663922380953,-0.6109705198407143,0.1957901602647619,2.2205746335333334
0.850754475,0.5270641190952381,-0.5605383146264286,0.2288059166457143,2.2358355762
0.867557108,0.2842608066190476,-0.5142025947264286,0.2451698822604762,2.2518714122952384
0.884366485,0.034009785952380946,-0.4813142503550001,0.24865332387476194,2.2648341145333335
0.90117443,-0.22744609052380954,-0.4496375719264285,0.26102434595095236,2.2736182750095235
0.917985892,-0.5071751276190476,-0.39228491549785716,0.29425054220333335,2.2696282094380953
0.934793041,-0.7980084191904763,-0.3216151509264286,0.3517241477938095,2.2551281914380956
0.951604962,-1.0787657556190475,-0.26216888421214285,0.4130780412985714,2.249942798295238
0.968407076,-1.3222566900000001,-0.2613563991169048,0.4720652656842857,2.2911562307714286
0.985217135,-1.5208000569523807,-0.3814732914304762,0.5210873697461904,2.4042051746761905
1.002023634,-1.674996977795238,-0.6569788114780953,0.5859284457652381,2.569856268152381
1.018840549,-1.8162749949095238,-1.0343647683828572,0.6766506922985714,2.8151234711047617
1.035639774,-1.9826896417619049,-1.39430450254,0.7821577389809524,3.1134230890571426
1.052447138,-2.1794606730952384,-1.691386949430476,0.8935239534809524,3.417749434295238
1.069256953,-2.3427055336142857,-1.9735120364590475,0.9910084675761904,3.721665523438095
1.086052445,-2.438107728947619,-2.2448915527161906,1.0355078421380952,3.9922255040952384
1.102869369,-2.456543752114286,-2.4942526363533335,1.0203251994190476,4.188712402190476
1.119685054,-2.394344590947619,-2.7159682910152383,0.972750934747619,4.3140132147142864
1.136475348,-2.278647275185714,-2.8664256732009523,0.9402801237666667,4.366343473095237
1.153298773,-2.1437757923285714,-2.90067182272,0.9540477408619048,4.359498805190476
1.17010278,-1.9896590028238097,-2.834240595549524,1.013531209404762,4.376297321761905
1.186923785,-1.8119469483,-2.709701810604762,1.0904838938761905,4.424748785238095
1.203723407,-1.608053161919048,-2.558558713866667,1.1500842215714286,4.460301405857143
1.220533426,-1.391082468395238,-2.4093194689571424,1.1851041259238095,4.463529158333333
1.237332671,-1.164124250347619,-2.2797450111380955,1.2095567625619048,4.439196873238095
1.254148345,-0.9352987152523808,-2.1530791691857143,1.2165174554238096,4.39131727147619
1.270951294,-0.7302123363952381,-2.0234548705666664,1.1926707808928572,4.3138218458571425
1.287761729,-0.5148466881095238,-1.886582351947619,1.1404186642357144,4.243271896904762
1.304558889,-0.29345942663333335,-1.7193873497095238,1.07182060955,4.205827105428571
1.321380016,-0.0688552854904762,-1.508327030090476,1.00050960545,4.201046444857143
1.338189516,0.15191418798571427,-1.2427848180904761,0.9053977074214286,4.203849509904762
1.354994203,0.3582020828904762,-0.867286477852381,0.7519163828880953,4.177306324238096
1.371803693,0.5671864124619048,-0.40039745970952384,0.5242012255547619,4.090567362238095
1.388613742,0.8077507247,0.07641674219523813,0.24779931979285716,3.996756384285714
1.405419569,1.0788521426523812,0.5187348638142857,-0.05232493944523808,3.9100848582380947
1.422226536,1.3189040593190478,0.9400687217666667,-0.35103210673095236,3.8040726037142853
1.439042841,1.4885933058904763,1.339199384052381,-0.6374048818261904,3.7391511724761903
1.455845351,1.5891218753142857,1.7003375235285718,-0.8813701896785715,3.7233600209047615
1.472652918,1.6306393827904764,2.0127611614809524,-1.0864318808166666,3.7274902457142853
1.489459437,1.6410351594571426,2.226747830719048,-1.2734064857404763,3.750690599809524
1.506265671,1.6648271311238094,2.2917483193619046,-1.461504893645238,3.7942522801428566
1.523076045,1.7070657866666665,2.224751358962857,-1.6409206986452383,3.7767204328095234
1.539883816,1.7479610443333333,2.0769210316009525,-1.7873315101357143,3.713811071238095
1.556679562,1.7875395161904764,1.9045132682628572,-1.8813934978738096,3.658617512428571
1.573503953,1.8315053894285716,1.7469266028866666,-1.9158224576547618,3.638324036238095
1.590308642,1.8637590067619048,1.626356397367619,-1.9099401831166667,3.645067458047619
1.607118447,1.8839961460476191,1.50511262532,-1.8812308935642856,3.664944042523809
1.623926949,1.914503142904762,1.3644094921295238,-1.8321204241857143,3.6925952695714286
1.640735056,1.9270226728095237,1.2026267278438094,-1.789157489895238,3.7001111622380956
1.657544128,1.9336083275238094,0.9902703647961905,-1.7702073795238096,3.696383039666667
1.674349985,1.92968497947619,0.7284470058438095,-1.7767519070952382,3.689805000095238
1.691157797,1.9042317752857145,0.47641297746285716,-1.785116998904762,3.653890571047619
1.707964061,1.8711747100476193,0.24152267541523811,-1.7716718712857142,3.5720282912380945
1.724762309,1.854370400904762,0.04149189442476189,-1.724147385,3.464222041761905
1.741583122,1.8599149157619046,-0.13197197238952382,-1.6130951330000003,3.338990447714286
1.758391868,1.8746479691904763,-0.28336411437523806,-1.4456589760333334,3.212640200619048
1.775201763,1.8907090594761906,-0.42705111282285707,-1.2463642968095239,3.100429927428571
1.791994571,1.895051956095238,-0.5762471698990476,-1.0067658466190477,2.9600975655714286
1.8088035,1.8646842070380951,-0.7327962376323809,-0.764745648361905,2.7924283002380954
1.825623365,1.7945956388380953,-0.8837990080085713,-0.5532508222380953,2.6351569300952384
1.842431615,1.6859487691904764,-1.0067855744514287,-0.3913519424619048,2.526092720095238
1.859238215,1.535435211,-1.080080032384762,-0.27216795153809525,2.4685935416190476
1.876049494,1.3447406404761906,-1.098411946104762,-0.20415180421904763,2.455997294904762
1.892855158,1.1259028116190477,-1.0914008504190476,-0.1821309703857143,2.469197906857143
1.909664902,0.8665982654285715,-1.0881743204380954,-0.18969719250952383,2.5068859295238095
1.926460078,0.5694890930000001,-1.0931978226047618,-0.23834562369523812,2.5645122600952384
1.943280595,0.2583326384761905,-1.1201122829428571,-0.32845190095714283,2.6423056890476193
1.960088915,-0.05362333576190482,-1.1418983823238096,-0.43996984119523813,2.7412085272380957
1.976899125,-0.3601568086190477,-1.156893230657143,-0.5442867740047619,2.8717161718095237
1.993715593,-0.6543213072857144,-1.160247030704762,-0.6174604587619048,3.010877192952381
2.010513599,-0.9423059963333335,-1.149467104942857,-0.6354383833333332,3.1240830533809523
2.027308897,-1.2277894474285715,-1.1152030854190476,-0.6063029177,3.2035510222380954
2.044129942,-1.4938715980000001,-1.1292616753714286,-0.5340918408857144,3.294614595904762
2.060943552,-1.7405973842857143,-1.2190446172761906,-0.43693594209714287,3.4042947205714285
2.077750203,-1.9753965422857145,-1.4131407056666667,-0.3224632889161905,3.5415338107142857
2.094550434,-2.2132094700476195,-1.6784340540904763,-0.21801159001619053,3.710265757333333
2.111358643,-2.450558844,-1.9522396723904762,-0.1262091519352381,3.879361134714286
2.128173208,-2.6741400445238095,-2.1794459479904766,-0.044625111349523836,4.036270492095238
2.144978394,-2.861987091142857,-2.366170361009524,0.02851562903142856,4.1970933250952385
2.161789898,-2.983809175847619,-2.5306299755142856,0.08995811772666665,4.372750210952381
2.178593884,-3.0238265308857146,-2.7023438953761905,0.13906488593619046,4.553268515571428
2.195405214,-2.988635449066667,-2.8820549647428573,0.1920934183504762,4.722793949285714
2.21220974,-2.887141727142857,-3.078016144933333,0.2534839523790476,4.883560621571429
2.229019402,-2.7268859998571426,-3.27439889457619,0.3473299797266667,5.022477765142857
2.245826857,-2.5496815499047623,-3.3863481794714287,0.46854056619333334,5.078640408047619
2.262635279,-2.339228698095238,-3.3919693629571426,0.5984096100076189,5.057019837952381
2.279445093,-2.07949066152381,-3.3222279322238095,0.7394297944980952,5.009544482142857
2.296252283,-1.791049457666667,-3.1810584977,0.8773648823076191,4.952039734380953
2.313051824,-1.4886272520476194,-2.991087777319048,0.9952665027361904,4.8826875152380955
2.329868973,-1.1767866043333333,-2.787340663747619,1.0718994295790476,4.785762890523809
2.346664862,-0.8629406746666668,-2.6154442969380955,1.1350605345171427,4.662198935904762
2.363483466,-0.5496420178571428,-2.4359201249857145,1.1904636514266667,4.547028997761905
2.380292051,-0.24004827223809524,-2.224630991652381,1.2319220495314285,4.46079712852381
2.39710508,0.05751532599999997,-1.942441372652381,1.2423776408695237,4.404812136714286
2.413913765,0.3412499428095238,-1.6001795587,1.2227669847095237,4.365457852285714
2.430716683,0.5997712271904762,-1.1902640433666667,1.1672195912047618,4.308911554095238
2.447524799,0.8315017791428572,-0.7198004722714286,1.068453857495238,4.232007764619048
2.46433267,1.0305730048095239,-0.2551264081761905,0.9126327441619049,4.144747948904762
2.481139129,1.2186102413333333,0.17097264244285712,0.6990221007333333,4.078032341857143
2.497956279,1.402120544809524,0.5618179866333334,0.45041017373333325,4.040969677380953
2.514762939,1.575633366904762,0.9185846192523809,0.20741260687619048,4.015506249857142
2.531562958,1.7050077120476193,1.282098066252381,-0.004618785933333356,3.9873924710476194
2.548379233,1.7893973078285714,1.6422700427761907,-0.19350650693333332,3.9459674544285717
2.565178935,1.8367310705714286,1.9815651575857143,-0.36820489945714285,3.8705145085238093
2.581993522,1.8554712023333333,2.2658986591095234,-0.5529310752666666,3.7691524690952374
2.598795951,1.8871581440952379,2.4347951071761904,-0.7473966897904762,3.721400075619048
2.615615665,1.9422181674285715,2.468366509409524,-0.9356180706,3.727953821238095
2.63241431,2.0025831858095238,2.411736828957143,-1.1030651039809523,3.7484862494761906
2.649223718,2.0533239273809523,2.3215403784,-1.2266576566571428,3.7480199785238093
2.66603282,2.0967741920952383,2.1956590243761904,-1.3049042955571428,3.7288285405238093
2.682838993,2.137075060904762,2.028499898442857,-1.3526721802333332,3.7169599541904765
2.6996471,2.160568736857143,1.8582633790619048,-1.4269941073142856,3.7477351929523812
2.716458613,2.1798172224285715,1.6632551238714286,-1.5380693588809524,3.8091933576666666
2.733262232,2.2052283287619048,1.4179639135380955,-1.6542378763333336,3.8634569187619046
2.75007162,2.225878692857143,1.1531804175857143,-1.7718194751523808,3.8731864454761906
2.766880021,2.2226614725238094,0.9170569238238095,-1.8975738173523813,3.8495089759523813
2.783688158,2.2042276064761905,0.7305797849428571,-1.9913289660761904,3.794896502857143
2.80049779,2.184650739047619,0.5759593873047619,-2.017923309695238,3.697964651857143
2.817306516,2.190695353904762,0.42363464268095236,-1.975499468204762,3.5937340951904764
2.834112607,2.1986667314761905,0.24941591994285717,-1.8705622340952377,3.4733651796190474
2.850926065,2.1966985974761903,0.044445673671428584,-1.7364422892047617,3.3400554608571427
2.867730437,2.180717354714286,-0.17797224856666666,-1.5863328100666667,3.2240697621904766
2.884538187,2.146257831904762,-0.3842560449952381,-1.4167893820095239,3.10057087147619
2.901358806,2.078779788190476,-0.5384356861666666,-1.2374981677238095,2.9713463108571427
2.918155365,1.9805106435142856,-0.6446806135447618,-1.0584761904857143,2.880079160857143
2.934960917,1.8476742789428573,-0.703217006835238,-0.8934572630095239,2.8280330003333334
2.951769695,1.6677819206571431,-0.7335932368019048,-0.7558683476285714,2.8002931367142856
2.968582134,1.4294438362285713,-0.7348929132447618,-0.6574163358857144,2.785005854190476
2.985386497,1.1404258523714286,-0.7290356045352381,-0.6043451826,2.774627301
3.002195508,0.8400750046571429,-0.7743591353590477,-0.5950891148714286,2.7903234034285713
3.019000593,0.5410699730857144,-0.8452502659066667,-0.6012857414666667,2.832925988619048
3.035814395,0.2247710795619048,-0.8861950465447619,-0.5856089904428572,2.904006721190476
3.052616856,-0.10585138910476194,-0.8833367484019047,-0.5242661280285714,2.9826824603333333
3.069429336,-0.45492770558095247,-0.8527912185447619,-0.42396237880190474,3.0417616633333333
3.086235752,-0.8047468208190477,-0.8184183211638095,-0.30533934704476196,3.0846169230476184
3.103042953,-1.1402795314857144,-0.8277652604495238,-0.1618822380209524,3.142634393
3.119852484,-1.456548838390476,-0.9306280499733333,0.04411372474095237,3.2384471581904766
3.13665948,-1.7274159022476192,-1.181032453282857,0.2645038061695238,3.400941288285714
3.15346842,-1.9430794488666667,-1.5570910090733334,0.4244404840266666,3.6372357816190477
3.170276892,-2.122740314104762,-1.9715511458304764,0.5426146537742857,3.920258475238095
3.187085913,-2.295166288057143,-2.3250170208066665,0.6518461045219047,4.196374211380952
3.203891944,-2.4807712917714286,-2.55952489944,0.7807023746314286,4.415660534142857
3.220703438,-2.6488277116761907,-2.6946200189638096,0.9095056895409522,4.578010420857143
3.237509194,-2.7631981940095236,-2.8351538068209523,0.9885764023885715,4.734935498761905
3.254316496,-2.7841858636380956,-3.0675013633638097,0.9988844863885714,4.931178594047618
3.271124643,-2.7214547792714283,-3.3603394599857146,0.9675607015076189,5.151722482095238
3.287922179,-2.6052302859857144,-3.5954341662190474,0.9565675216980952,5.304854077904762
3.304769734,-2.4589569909380953,-3.6981624649380955,0.9865504688885713,5.337922424
3.321554363,-2.2785699708428573,-3.7004996254999996,1.0666125233361905,5.330812548
3.338357728,-2.075866097509524,-3.6228161086142854,1.1927633066695238,5.324449226666667
3.355167745,-1.8683003811761902,-3.4656793277571425,1.3227753136647618,5.310933876761904
3.371973767,-1.6424204849380954,-3.2666504043285713,1.4294754303504762,5.284137487619048
3.388783002,-1.3824218455095239,-3.051855813947619,1.4778981046885715,5.225139755952381
3.405591269,-1.1108949411761906,-2.8226399649,1.4613019591123808,5.150816622904761
3.422389224,-0.8149975935571429,-2.578946159042857,1.3998995843142856,5.089252921190476
3.439213422,-0.5122389679857142,-2.2979341689,1.3134634921761905,5.057847714333334
3.456014123,-0.20404536379523813,-1.971354598138095,1.2117778802,5.048681179428572
3.472826592,0.10275937268095234,-1.5865636099000002,1.0522323507238094,5.03101304695238
3.489633041,0.3790060906809523,-1.1030109723761907,0.8699939762952381,4.972275463238096
3.506441248,0.6156540258238095,-0.5446317082809523,0.7165709564380952,4.862353233095239
3.52324679,0.807406323347619,0.05203319724285712,0.5765261253428571,4.709570443952381
3.540057999,1.0094885713,0.5855582100047619,0.42649757300952373,4.550846825761905
3.556865006,1.2648641949666666,1.0050052687190476,0.25961438251428565,4.448173783761905
3.573672074,1.5299195221571427,1.3419849304333333,0.09133450194285707,4.394192234714286
3.590480058,1.765848909157143,1.6434870900999998,-0.04061419052380959,4.346116992952381
3.607289812,1.9572694075000001,1.955510071290476,-0.1189849830333334,4.272582272238095
3.624096636,2.1047867026190477,2.2741634277571428,-0.1825383106380953,4.164940484523809
3.64090934,2.233708779095238,2.5180299622333333,-0.2765292723571429,4.117689350095238
3.657713214,2.3654020855238094,2.6475436800523813,-0.4071518012142858,4.178303660285715
3.674520557,2.507266112809524,2.6856194677333334,-0.5887006180238096,4.278242301333333
3.691330738,2.668366931809524,2.6446262313952382,-0.8006667749761905,4.373438325619047
3.708143299,2.832382860714286,2.557007244638095,-1.0011805011666668,4.45808758947619
3.724933674,2.965598855761905,2.46070096602381,-1.1751077799285714,4.521508469285714
3.741755636,3.0748735837142855,2.3299427032038094,-1.2959739650761906,4.570233657285714
3.758561769,3.193323407904762,2.1334756214895236,-1.3641872405809525,4.610467050285714
3.775358277,3.3046831176666664,1.8660533314419048,-1.4085489227238095,4.652152570666667
3.792178784,3.4019959540952387,1.550016902727619,-1.4456216493904763,4.675935210190476
3.808997123,3.4832299209999995,1.243001165822857,-1.470405970247619,4.6487486991904765
3.825796205,3.5529595102380953,0.9948555173895238,-1.4487659135809525,4.563766534952381
3.842605605,3.6156123024761904,0.7794021651609524,-1.3924573063333332,4.4644746722380955
3.859413059,3.6554570084285714,0.5837266785657143,-1.296902188161905,4.3637824157619045
3.876198541,3.6759642759999998,0.41878641218952384,-1.1694557126857144,4.271657927523809
3.893027541,3.6597095103333337,0.286267416827619,-1.018036771352381,4.200835841
3.909823338,3.591233616761905,0.15097856524714284,-0.8576434367619049,4.128623943857143
3.926641891,3.475311313333333,0.0029973075614285723,-0.7046777037619048,4.050152995714286
3.943457301,3.3131811504809523,-0.12538292293380954,-0.5698833947238094,3.979402575428571
3.960261532,3.0953649225285718,-0.2174645832290476,-0.4497154297380953,3.916582100333333
3.977067776,2.833885839957143,-0.2895640418338095,-0.31333544982380956,3.871028442
3.993872392,2.5439607188142856,-0.3669793718814286,-0.16285549734285718,3.839777239952381
4.010690478,2.242482139909524,-0.4837828590338096,0.008245726514285678,3.8280653853333333
4.027492632,1.9145914486238094,-0.621027129005238,0.21477710927619045,3.8216942424761906
4.04430201,1.543765590242857,-0.7436097689528571,0.43132687475238096,3.8113427163333333
4.061110849,1.1505725042904762,-0.870239008005238,0.6509206948476189,3.8179692047142857
4.077924264,0.7485944202904761,-1.0231811432480953,0.8805871152285715,3.8786496678571427
4.094727467,0.3500638235285714,-1.197606427332857,1.1056567857047621,3.994867217190477
4.111533579,-0.048517999185714346,-1.3681780497614286,1.328320426704762,4.1377965871904765
4.128342844,-0.4591432071857144,-1.4835072926661905,1.567964647609524,4.258506097571429
4.145152577,-0.8791169212333333,-1.5663341341423809,1.8281519101809525,4.374812702333333
4.161959291,-1.2990394320428573,-1.6743647939519049,2.0858558842761905,4.517503219238095
4.178763011,-1.691029753042857,-1.8665826661852383,2.303041126085714,4.690161107238095
4.195580578,-2.0500820705190477,-2.1299941426709523,2.4582907813142856,4.865119315857143
4.212382896,-2.3623419035666666,-2.4572208041709525,2.5450518244761904,5.064906191571429
4.229190341,-2.6431756247571427,-2.8050961495090476,2.5913069134761906,5.260250849
4.246000694,-2.8965485210428574,-3.116207894909048,2.617683070095238,5.436510256761904
4.262807101,-3.1130487578999997,-3.37930345542381,2.6282587505714283,5.605504341714285
4.279617385,-3.2710923922333333,-3.6148620106428573,2.6288383234285715,5.77238581352381
4.296423821,-3.337802046904762,-3.8582496416714287,2.616543508714286,5.94692738847619
4.313217035,-3.3173126039904757,-4.102365652804762,2.608372960761905,6.117244550428571
4.330031174,-3.232513155338095,-4.296904859190477,2.6076887902380954,6.238750445142857
4.346849462,-3.096806594380952,-4.423741545095238,2.6193155788095237,6.303904098761905
4.363633418,-2.933595294142857,-4.473918983,2.6349372636190473,6.314924133
4.380467729,-2.737898349857143,-4.456380935,2.636368320047619,6.275834650619048
4.397262722,-2.4964410464761904,-4.40492700404762,2.6256561732857144,6.205558963142856
4.41407983,-2.218493825,-4.308941977442857,2.6024501663809523,6.106396708095239
4.430890236,-1.9053094274285716,-4.155418850180952,2.5464028857619048,5.964702557714285
4.447698046,-1.5863202186666665,-3.924590292466667,2.4545502945714284,5.773139243380951
4.464505776,-1.2430081595714286,-3.6261651175619045,2.3526660032666666,5.574941834952381
4.481311604,-0.865987687,-3.2990727198,2.2392950056809524,5.402966069285715
4.49812387,-0.48028539485714294,-2.9277972721333336,2.0435003324904764,5.262370979190477
4.514931792,-0.10488096880952384,-2.5286557788,1.7639978612047618,5.167740817619047
4.531733979,0.24997879199999998,-2.110871315038095,1.4481128510142858,5.112722930952382
4.548545746,0.5855694042857142,-1.6751963298,1.1591333320619046,5.058679059619048
4.565359376,0.901775076142857,-1.2002532823238095,0.900187299347619,4.9808628935714285
4.582164115,1.2240579354285712,-0.7276110876571429,0.6856292202047618,4.898146220238095
4.598972922,1.5532810005714286,-0.27828370960952387,0.4884011972047619,4.841363213
4.615778515,1.8702884627619045,0.17301752448571425,0.29424495353809527,4.808044049714286
4.632588453,2.1474495614285716,0.6461495217238096,0.08039173620476191,4.79662404547619
4.649396722,2.340614352809524,1.157337211390476,-0.1666620118904762,4.802710172809523
4.666204603,2.4689325604190477,1.662593001390476,-0.440373227747619,4.812359016904762
4.683011478,2.5675225711,2.0774422827238093,-0.7127362773666667,4.806410450095238
4.699821425,2.6417145273809526,2.378271534295238,-0.9627283868428571,4.779159259761904
4.716629266,2.7000588574761903,2.573542640295238,-1.1717630113666666,4.726947868190476
4.733435703,2.737614461238095,2.664856842538095,-1.3207796868809523,4.662723881380953
4.750244238,2.7604321864761903,2.665871506633333,-1.3943539460380951,4.639124946571428
4.76705451,2.774616388952381,2.582387015933333,-1.411563248847619,4.671128988285714
4.783841273,2.7816779158095235,2.4160025233380953,-1.3725548812285715,4.756044279142857
4.800668372,2.7846921851428568,2.186992418195238,-1.2694057453238095,4.886997679
4.817481584,2.7761708099523807,1.8909827868142859,-1.1248791444952382,5.0412384592380945
4.834282996,2.753545091142857,1.5326603253857143,-0.963234628957143,5.1928879104285715
4.851081744,2.7298295496666665,1.1230791410047618,-0.7642551717190477,5.285246572619047
4.867901548,2.7159524757619047,0.7357194083380951,-0.5564505372428572,5.251979460095238
4.884712848,2.7123203163333334,0.4444803964809524,-0.3596294621476191,5.1059664554761905
4.901517649,2.7156354245238092,0.2569679987128572,-0.19561638150476193,4.960407050190476
4.918314076,2.719273113047619,0.1398603348557143,-0.05149459272380955,4.852244941857143
4.935135131,2.7090064002857144,0.06469651633190479,0.06611705180952379,4.7765659807142855
4.951934907,2.6731768108095237,-0.0023814836680952026,0.1909421916428571,4.699964741190477
4.96874878,2.6100053219047616,-0.07445757723952379,0.3420404884047619,4.612813628571429
4.985562694,2.5328916935238093,-0.152004196477619,0.5387314622142857,4.520561662666667
5.002366854,2.471607866714286,-0.2391806102395238,0.7979119512619047,4.421611865190476
5.01917622,2.4107233796523806,-0.3103681745252381,1.0953954295,4.327498673095238
5.035986788,2.331849472842857,-0.33999036600142857,1.3785990540238096,4.261601637857143
5.052790346,2.236488399042857,-0.35236081614428577,1.6164913411190478,4.214028188095238
5.069601047,2.1339480536457143,-0.37016571128238096,1.7939339145,4.182009291571428
5.08641021,2.02053833008381,-0.3707058769561905,1.910467381252381,4.17000773747619
5.103215783,1.8911226363361906,-0.3459516933371429,1.9676951404095238,4.141993348571429
5.12002333,1.7493101074314286,-0.2945823896228571,2.001427656838095,4.095855919761905
5.136832727,1.585939997702857,-0.20615175790857143,2.023242548123809,4.033826551619048
5.153639857,1.402686164464762,-0.10810273033714284,2.0315811471238097,3.9747032826190476
5.170453894,1.157894236702857,-0.013980116146666652,2.0340392199809525,3.932117629
5.187255906,0.8453354040838096,0.023580687424761916,2.0130042980761904,3.9332286313809526
5.204065344,0.48938940822666666,-0.026704220527619022,2.035245129790476,4.045627571714286
5.220874743,0.11374193146476189,-0.1131728490038095,2.1879435444571427,4.265154809809523
5.237670468,-0.2501264186304762,-0.26982856928952376,2.4530617928857144,4.569244931619047
5.254488584,-0.5964459124399999,-0.490784803997619,2.7995657304333332,4.883639741619048
5.271310921,-0.9313623451542857,-0.7457390739499999,3.1887180245571423,5.172945260904761
5.288107074,-1.2463481540114285,-1.0138908567595237,3.5672259019285715,5.427938645285714
5.304903685,-1.5190463066304762,-1.2752114477595238,3.901945852190476,5.658468811619048
5.321720276,-1.71845177244,-1.5630951609023809,4.164637298904761,5.854053792
5.338541127,-1.8441421645304763,-1.9164694377595235,4.352367577190476,6.019759796857143
5.355340383,-1.9120086488728574,-2.324635278616667,4.482828815857142,6.172523677857144
5.372147329,-1.9444349834395238,-2.7352677299976187,4.578528682476191,6.2997572158095245
5.388960521,-1.9549669538728571,-3.08273217795,4.654279169666667,6.391228141761905
5.405764181,-1.952174981487143,-3.315587134616667,4.707246184428572,6.450916171428572
5.422576672,-1.94647414349,-3.43438473205,4.730001421238096,6.486020872714286
5.439377677,-1.9299477850185716,-3.4957853953333333,4.720912042142857,6.497732906761904
5.456187737,-1.8858420735804764,-3.530624503190476,4.678279167142857,6.485549222666667
5.472996248,-1.8242388226233333,-3.536025796619048,4.579981325652381,6.425531067714285
5.489804691,-1.75003803349,-3.4981581142904767,4.4052408210095235,6.311140546261906
5.506612461,-1.6463279497423808,-3.3788043203571427,4.1704043051047615,6.204548838785715
5.523420404,-1.5009951705614286,-3.1527616864047614,3.8947657474857142,6.091997033452381
5.540229853,-1.2617883114995239,-2.800663493928571,3.659699572009524,5.927449207452381
5.5570386,-0.9608992735947618,-2.3417236918333333,3.4244527093428574,5.6883910994999995
5.573844945,-0.6061243443566666,-1.9107040904999997,3.104133465485714,5.435253706928572
5.590655351,-0.2337924412614286,-1.544160888357143,2.6932122778190473,5.197357576690477
5.607463131,0.14326850569095234,-1.2120094072619048,2.1767376448190476,5.011028544309523
5.624257656,0.5091271740719047,-0.875505583642857,1.5882937524857144,4.866166370261905
5.641077553,0.8488774299290476,-0.5387756938333332,0.9572990011523809,4.768846964452381
5.657887092,1.1550928297385714,-0.22619469959523805,0.32651991643809525,4.6958082271190476
5.674697059,1.4207934652147618,0.08132743835714289,-0.2451114243238095,4.638139389214286
5.691490162,1.6416244052576192,0.4275493167857143,-0.7234738483714286,4.569917264357143
5.708310546,1.8256154400761904,0.8015505926904761,-1.1042003560857143,4.4662951301666665
5.72512091,2.0041618006571427,1.140161196357143,-1.4104042379904764,4.355427243499999
5.741929616,2.179207790471428,1.4003295898333332,-1.6641375663714286,4.279597771119048
5.758720062,2.3410146576952378,1.5713875634190475,-1.8759042123809526,4.255612345928571
5.775543182,2.5050242287619047,1.6534092993857143,-2.0206806191047617,4.283966459547619
5.792354371,2.655580214090476,1.6945375033666668,-2.114617471142857,4.337516286880953
5.80915914,2.788869642066667,1.7084605126047618,-2.177184435552381,4.414236367357143
5.8259681,2.9297411782523812,1.6702601341761905,-2.190082532990476,4.544895649928572
5.842771181,3.0990516344666665,1.5634221803238095,-2.139210383071428,4.733307464380952
5.859590833,3.2948867025761905,1.3595916883904762,-2.0428570367,4.918673249428572
5.876391014,3.5054423922523816,1.0387403851047619,-1.9114111548333332,5.085181146904762
5.893202995,3.6414217040476187,0.7234351974857143,-1.8145764243000002,5.171131027809524
5.910010604,3.728433949571429,0.48381344472380955,-1.7521266199300003,5.152077325238095
5.926818181,3.7701724142857143,0.3327369235452381,-1.677429419172857,5.081942522714286
5.943622339,3.772486834285714,0.27695562725952383,-1.552636421830476,5.011107688238095
5.960435887,3.7352382341904766,0.25625292459285715,-1.3605899115209523,4.902995979761905
5.977243759,3.6634566897142857,0.19716026668809525,-1.1194292207542857,4.733403307952381
5.994049281,3.5610307284285714,0.0738744281595238,-0.8359407314114287,4.489231800333333
6.010858791,3.425393581333333,-0.07218515306904763,-0.535875162887619,4.210925183952381
6.027666103,3.2540714172380953,-0.1976725033452381,-0.2576424011257143,3.936504049285714
6.044474454,3.0553395180000003,-0.2976731800119048,-0.012174426078095232,3.7080958860952378
6.061283333,2.837253195857143,-0.36315947486904765,0.1919113156361905,3.5483529177142863
6.078089953,2.5941094556666666,-0.3968805585357143,0.35662654330285715,3.4323886776190475
6.094899269,2.3266343956190476,-0.41903171083571433,0.4971813573980953,3.342439331714286
6.111711099,2.0495164053333332,-0.44403305506428575,0.6248895370266667,3.282107605476191
6.128514057,1.7522256033333337,-0.4543030148338096,0.7174626972266667,3.250020722619048
6.145311461,1.4603612422380954,-0.47009145644809525,0.7858476114076192,3.2400803770000004
6.162133749,1.1514071396190477,-0.46976264321,0.8525701435314285,3.2406601833333335
6.178931682,0.8057578971904763,-0.4313287734957143,0.9112193996504762,3.2282427701428573
6.195751373,0.432458729952381,-0.38620306197190474,0.9652528692314287,3.2008609636190473
6.212546998,0.040378877095238096,-0.35156404406714287,1.03109244086,3.1586872171428575
6.229352297,-0.3447273458571429,-0.29664280301952384,1.0997879775647619,3.1029438098571425
6.246161379,-0.6940406276666666,-0.30857837768619045,1.1962631104600001,3.1307586216666667
6.262983024,-1.015745583,-0.44529422125761914,1.3205797261852381,3.2724704465238093
6.279788496,-1.3166677043333332,-0.7215247381266667,1.4585791799042858,3.491561817047619
6.296601983,-1.6076998370000002,-1.1283676965076193,1.5985886498476192,3.7527689777619044
6.313405836,-1.9213918163333332,-1.588821956126667,1.7284173030142858,4.030007308904762
6.330211349,-2.2292729672380953,-2.0410404659838095,1.8413490625809523,4.3269148002857145
6.34702335,-2.4919227304285716,-2.4572141965504763,1.9497434810476193,4.659756710857143
6.363826594,-2.680283239857143,-2.858901455321905,2.0379466103333335,5.0190371174761905
6.380644567,-2.8054318313809525,-3.271665459617143,2.1162095014285716,5.393276527857143
6.397446122,-2.8750283717619047,-3.666789100331429,2.179465418857143,5.716663850095237
6.41425321,-2.8915867918523808,-4.009676910664761,2.2403761262857143,5.9451122203809526
6.431076565,-2.847880488285714,-4.280123915093334,2.2933069240952384,6.090533851428571
6.44787165,-2.7435310113476192,-4.470397358936191,2.3331451813809525,6.173366108
6.464681333,-2.5821168195380952,-4.5816215788647625,2.366553845904762,6.208590353714285
6.481477435,-2.3686028775380956,-4.6163280124809525,2.405291937714286,6.214591986428571
6.49829611,-2.132035130538095,-4.550925027861905,2.4504640954285715,6.214352396
6.515105314,-1.8770902611095237,-4.4082813944809525,2.4880580845714286,6.211400082142856
6.531913726,-1.6059914543476188,-4.195016906433334,2.515977808428571,6.230154231095239
6.548722238,-1.3689689636333333,-3.8751269522428577,2.533204056,6.283560470809523
6.565528289,-1.1796059381666666,-3.4656194959571436,2.5386644147619046,6.3488297568571435
6.582333191,-1.028513249942857,-3.0584615525761913,2.4941750707619046,6.347359538428572
6.599146567,-0.8586015247728572,-2.735930056766667,2.3622789311285715,6.2044903524285715
6.615964641,-0.6730416616299999,-2.4507808685285717,2.139663870747619,6.022557535142857
6.632749016,-0.4606483550633333,-2.1085907164333335,1.847489565509524,5.861199901476191
6.64957006,-0.20153819949190474,-1.6767180761,1.5389164103190474,5.670250217571429
6.666376823,0.13736134479380954,-1.1898263749571432,1.254737585652381,5.4724178805238095
6.683188693,0.5165632792223809,-0.6531570298142858,0.9984822428428572,5.303889154047619
6.699996321,0.9007066317461905,-0.1036525226714287,0.7697715460333334,5.149462917857143
6.716799564,1.2627558253652382,0.45049217770952366,0.5742404729857142,5.0034566934285705
6.733603051,1.5990637596985715,0.991123471947619,0.3822190236047619,4.853805563285714
6.750417821,1.9101352009842856,1.479561964709524,0.19041799784285712,4.736282713809524
6.767228887,2.200138477979524,1.8757620312333334,-0.018792216300000022,4.686190036809524
6.784032953,2.4545332589842856,2.1647160621380954,-0.23812068220476193,4.701146569857142
6.80084517,2.677092597522381,2.3506612551,-0.4497018783,4.767861926809523
6.817657721,2.8614646139033333,2.448328222598571,-0.629096180252381,4.859791392476191
6.834455084,2.996100357522381,2.497263590546191,-0.7794612944666666,4.939006923428572
6.851262082,3.098025662522381,2.4932474409366665,-0.9197982848047618,4.998271117904762
6.868065284,3.207698504093809,2.382179396527143,-1.0733875731857143,5.055318493428571
6.884885129,3.351976644379524,2.107770556527143,-1.2555950553761905,5.135486020428571
6.901701679,3.5712637219509524,1.652836935860476,-1.4421922664238094,5.241391051333333
6.918499236,3.805951368198571,1.18902783167,-1.611398811852381,5.264078832619048
6.935306599,3.9988797278319046,0.9029959269747619,-1.7248312192333333,5.20200991252381
6.952119527,4.128893738661905,0.8171823592128572,-1.7312690729190474,5.205983444428571
6.968929087,4.232747373090476,0.8174502508795237,-1.6402595021666666,5.214183475380952
6.985729207,4.314028081380952,0.7787960370271427,-1.4823929135047618,5.1529343498571425
7.002543519,4.343652293714285,0.6629920459938095,-1.3201882384809525,5.066954009142857
7.019349661,4.295587289809523,0.511299587417619,-1.1601035225571428,4.946065160571429
7.03615738,4.178944406,0.3364845911366666,-0.9895922200809524,4.768313105380953
7.052967337,4.008054460742857,0.16566698888904755,-0.8061297252238097,4.59369508647619
7.069774752,3.790290877866667,0.008178279474761843,-0.6123771526047619,4.441983131428572
7.086583255,3.540878114180953,-0.1382598196038096,-0.3961581020809523,4.314054720619048
7.103389427,3.272967224985714,-0.2788196064561905,-0.1814629095571428,4.191061040761904
7.120197829,2.9854529244238095,-0.4198828197942857,0.026985364252380982,4.063395661428571
7.137008375,2.6733569417571426,-0.5406960078895239,0.2339445153476191,3.939907313047619
7.153803074,2.3388742038047616,-0.6461972736609524,0.43634309934761906,3.8318208581428572
7.170623112,1.9851248377571429,-0.7339710054452382,0.6105487885857143,3.751776913952381
7.187420059,1.6289093608047618,-0.8490688914976191,0.7516649195142857,3.719979211428571
7.204238134,1.2714073544238096,-1.00469891235,0.8845797010904762,3.734194963333333
7.221053137,0.8878736949952382,-1.1243466423214286,1.031222017042857,3.7489839233333337
7.23785462,0.4593177295666667,-1.1612402826071428,1.209482053947619,3.7158431917619046
7.254656877,-0.021292890814285655,-1.0973260062738097,1.4007515766142855,3.6185008259047615
7.271469266,-0.4897483870999999,-1.0647042819880954,1.5831933448047617,3.582736445285714
7.288285032,-0.8919753347190474,-1.1909629050071429,1.7535241701380953,3.695095580857143
7.305089343,-1.2489720526238095,-1.4417375837214286,1.8921943676952382,3.8807649883809523
7.321897389,-1.5662581125761905,-1.7857433046738094,2.025459409561905,4.113980017190476
7.338703693,-1.8797731626238094,-2.1574994950119044,2.1870950269952383,4.410481262380952
7.355515197,-2.2121710095761906,-2.473557335978571,2.3579688385428574,4.715810426238095
7.372320608,-2.5351031847666667,-2.758990787307143,2.496732831095238,5.013925214
7.389132253,-2.7957088606238094,-3.0565949848357143,2.577271682952381,5.30429086995238
7.405931804,-2.972703729319048,-3.3926855722547615,2.593134715523809,5.573296019380952
7.422746268,-3.0693853923,-3.7665118489357137,2.545948170571429,5.823776150809524
7.439547792,-3.1060253324714284,-4.139721484333333,2.451857266047619,6.055897168047619
7.4563667,-3.108566897233333,-4.46964786157619,2.3495999717428573,6.255117771
7.473170045,-3.088550930909524,-4.678380852571429,2.262272003219048,6.358649219428571
7.489962965,-3.024759133636952,-4.763806887952381,2.2008801386952377,6.358929260428572
7.506792077,-2.912720271508381,-4.745337281809524,2.152113979838095,6.291922641904762
7.52359476,-2.751813706889333,-4.662257830195715,2.1037006804571425,6.199780073428572
7.540404036,-2.5536701792702856,-4.535252548276667,2.048900703647619,6.088733077619048
7.557210219,-2.3317725771750477,-4.374441850648095,1.9716543215142859,5.943161084714286
7.574019434,-2.100870677413143,-4.213409559952858,1.8899076042,5.7695691650952385
7.590828659,-1.8654508817940951,-4.032845224514762,1.8064905433476193,5.573889744000001
7.607633082,-1.617893991046476,-3.813052086467143,1.7129733228799997,5.385276814571429
7.624442429,-1.3200254894750476,-3.5659194218480956,1.6334029584800003,5.230849345619047
7.641253292,-1.018628006903619,-3.255028883514762,1.5486765510561906,5.093779773666666
7.658061235,-0.7142849422845715,-2.8775271233242856,1.4309984579952382,4.9601108422380955
7.674869077,-0.43501606447504754,-2.4245702197528574,1.2734026958190476,4.791662439047619
7.691683907,-0.16000788557028564,-1.9261134464671432,1.0745420675380952,4.555034091047619
7.708480111,0.14615015752495242,-1.4513399032766667,0.8632047339095239,4.294804506
7.725292641,0.46510328557257147,-0.9924271447052382,0.6593825241952381,4.055797251857143
7.74210207,0.7662133715725714,-0.5316487266576192,0.4784385015333333,3.8616964904285718
7.758912668,1.0232787585725713,-0.03442936851476202,0.3012572690095238,3.693102740190476
7.775720285,1.2469706307630477,0.4942418280090476,0.15458615548571428,3.527339318571429
7.792524445,1.443257695096381,1.0264141445804762,0.014031789866666654,3.3691938786190483
7.809332855,1.6384921186725714,1.5001514979614283,-0.11975603797142857,3.241576623857143
7.826142884,1.847893113101143,1.8313357716280951,-0.23779882487619045,3.2068497503809525
7.842940511,2.056987841828571,2.012331985270952,-0.3532320466380952,3.2792583098095243
7.859756197,2.2682087420333334,2.0768958046138093,-0.4550052292095238,3.429945306619048
7.876568738,2.479371013985715,2.0706660179666665,-0.5212890825042857,3.6128099137619047
7.893374686,2.685511032604762,2.0331005141619047,-0.5749957341519047,3.8007762603333326
7.910185093,2.899772360080952,1.951768761580952,-0.6098154222661906,4.011783537142857
7.926994358,3.121507633176191,1.8402746064095237,-0.6365675124376191,4.24675447
7.943797804,3.330881470604762,1.6768084934476188,-0.6627468204185715,4.485535566190476
7.960610987,3.5114726451428573,1.4368282272095239,-0.6974618775461904,4.692319742380953
7.977416824,3.5947833627619046,1.2245046070190473,-0.7585550489842857,4.766023218476191
7.994223109,3.6166287489047617,1.0739428883142854,-0.8220799536890475,4.704587905952382
8.011031246,3.5990137712380954,0.9648548988857141,-0.8583941615709524,4.609210944571428
8.027841101,3.569451979152381,0.8620743524095237,-0.8688349794709525,4.511482556333333
8.044651435,3.5372231913904764,0.7396924154857142,-0.875017769285238,4.407844790904763
8.061456021,3.4933285598666663,0.5953459058380951,-0.8724264062614285,4.306052337571429
8.078264849,3.408595686790476,0.4134394782047618,-0.8437886309090475,4.181119387238095
8.095074104,3.2584866681904767,0.22226233708095228,-0.7856863240471429,4.04330296447619
8.11188337,3.044462748857143,0.03103035972380939,-0.6760444541899999,3.9401401467142856
8.128677193,2.7720000516190475,-0.14052743003333348,-0.5584648578090475,3.866968759285714
8.145497119,2.4688715252857145,-0.2955467360282382,-0.4201081551423809,3.809065088952381
8.162317453,2.134860549619048,-0.4091969671853811,-0.2890119141185714,3.7653991099047617
8.17911444,1.779222159142857,-0.4750219753853811,-0.18748118057095237,3.724403017428571
8.19591221,1.412882941095238,-0.5163891656091907,-0.10251229009952381,3.6641048834285717
8.212728994,1.0263307435238096,-0.5115452493996668,-0.03463454333761905,3.5684768330476193
8.229540091,0.6230971927142858,-0.47176583608538114,0.002976265671428576,3.445707323095238
8.246344738,0.22119117923809528,-0.42538874490442874,0.04707322374285715,3.3099254323809526
8.26315796,-0.19137600485714282,-0.3520720799949049,0.10268085483809523,3.1568433484285716
8.279964266,-0.5930987085238095,-0.2568988345968097,0.1615852826952381,2.980526792904762
8.296773277,-0.9589993385714286,-0.13915740875871438,0.22722702365238096,2.796171150095238
8.313575137,-1.2757219813809524,-0.00877459841585725,0.3253884968190476,2.626650467047619
8.330390384,-1.5269643238571429,0.05613022758414274,0.43660001527619047,2.549556815619048
8.347199019,-1.710507597238095,-0.009101163758714403,0.5472500835,2.5808875490952383
8.364003757,-1.8316791398571428,-0.19913843699680964,0.6462037279190477,2.635293177047619
8.380815892,-1.9078230631142854,-0.4481898262349049,0.7565199760904763,2.724708156
8.39761827,-1.9817856834333336,-0.6700770060253811,0.8907854216142856,2.849380488714286
8.414427628,-2.077424389995238,-0.8251360938539525,1.0271768086952382,2.973511094
8.431237809,-2.1346915109,-0.9646275384110953,1.1359263260571428,3.130199519809524
8.448044073,-2.109292552604762,-1.1609551792872859,1.1895392905714286,3.323514577619048
8.464853502,-1.984249149061905,-1.4326466378349048,1.1884756258095237,3.522220361333334
8.481664456,-1.7919681185857144,-1.750762962125381,1.1807305755714286,3.710917262666667
8.498467252,-1.5950067951619045,-1.9900714783209525,1.1980704977142858,3.7947706080952384
8.51528023,-1.411460024995238,-2.1081599280685714,1.2352763045,3.7465587089047623
8.532086059,-1.2242164952761905,-2.148624783444762,1.2806262203333334,3.652890612333333
8.548895262,-1.0410005705904761,-2.1189086323447617,1.305172820861905,3.564452690619047
8.56570467,-0.8722541219,-2.0710279146590476,1.2807984678285715,3.4828234829999993
8.58250884,-0.7286253203047619,-2.0463795434638095,1.2291106326,3.3966751221428573
8.599319845,-0.6177378609571429,-2.041696798211429,1.1609024916142856,3.3084660120952387
8.616110688,-0.5235031673380952,-2.040479773544762,1.096101599057143,3.218471449909524
8.632932272,-0.4567517553380952,-1.9861827350380954,1.0461125231714286,3.1699852002904767
8.649748363,-0.41780303776666666,-1.8490836960666668,0.9919806349619048,3.1886627807190475
8.666549765,-0.3934880438619047,-1.6398750259333335,0.9174285090809524,3.248649890480953
8.683348085,-0.37444037486190473,-1.3977085748857145,0.808636431142857,3.328961492909524
8.700166994,-0.3492151442428571,-1.1361722378380952,0.6775149433333334,3.399519632242857
8.716975588,-0.33153944925714285,-0.8346229166952381,0.5543049105714286,3.442412516719048
8.73378048,-0.32727931796666665,-0.4974119890285715,0.4189058755238096,3.435458060052381
8.750601068,-0.31860928310476194,-0.16460640088571438,0.26217392942857143,3.3964262911000005
8.767395633,-0.28262410847142855,0.13425108363809513,0.09274121557142859,3.3555963612904756
8.784212854,-0.2357982454047619,0.4308226562571428,-0.06967579885714284,3.2763764228619046
8.801018224,-0.2051882516952381,0.7480347383523809,-0.1969063522857143,3.126923163766666
8.817825374,-0.21481818246666667,1.1151744183999999,-0.29664334366666667,2.9061204107666665
8.834632909,-0.24334821250000002,1.4891139779714284,-0.38383060830476184,2.635400785147619
8.851442562,-0.22406264716190474,1.7374965917571425,-0.47219596729523805,2.441927429766667
8.868251675,-0.13773790999523808,1.8129112039380952,-0.5565946030761905,2.4108938824333332
8.885058396,-0.03099934261904763,1.7804916359428569,-0.6461059493380953,2.464202306528571
8.901867459,0.08883117493333331,1.6917972451380952,-0.7233888393142858,2.5490243534333334
8.918675169,0.22787614095714287,1.6065860589571428,-0.7838047103761904,2.6540656878142856
8.935484109,0.4132636161238095,1.5355663867476188,-0.8110790394142856,2.794364721480952
8.952289976,0.6392164003476191,1.453071855390476,-0.7970599687809523,2.958507348147619
8.969098011,0.8760140737285714,1.3519084908142855,-0.7697718753295238,3.129905621142857
8.985899759,1.0964043481571428,1.2200293654809522,-0.7523977316152382,3.24096323
9.002716675,1.3077866237285714,1.0024415084809521,-0.7459646590704763,3.2875669699999994
9.019522034,1.492677325395238,0.7421512717666665,-0.7717558797942858,3.2656727945238098
9.036331635,1.6403596742999997,0.48834574795714275,-0.8186482786657142,3.1871009421904763
9.05314506,1.7544348354428572,0.268332799342857,-0.8425877065704762,3.080803542095238
9.069931306,1.8430248897285717,0.06970312486666652,-0.830131959332381,2.9556385234285716
9.086757305,1.9162796793523809,-0.13450379591428585,-0.7712672501657142,2.835748348238095
9.103550396,1.9669701032285711,-0.3325218926761906,-0.6658092744323809,2.738674700809524
9.120373162,1.9801388696142859,-0.4990394682523811,-0.5196051888609523,2.662736568142857
9.137171878,1.945781685157143,-0.6152568998047621,-0.3560530521942856,2.628353277761905
9.153987775,1.8794749124714283,-0.6736934752190477,-0.1892418698133333,2.6464911215714286
9.17078572,1.7985750835095236,-0.6892406826476192,-0.018242779956190443,2.7030351680476192
9.187611058,1.7049835069714285,-0.6627672286000001,0.1510469877771429,2.8028766605714286
9.204415816,1.5773060209238094,-0.5967713083380953,0.28865539952952385,2.903673227714285
9.221223395,1.4000909670190476,-0.4784522964714287,0.38171624212000005,2.9530242378095237
9.238027604,1.1927187784476192,-0.34259103594761914,0.4376885372676191,2.9448750776666666
9.254839361,0.962399596352381,-0.22856532961428583,0.46065545576095235,2.8917703116666664
9.271649401,0.7101421811142857,-0.17534206028571442,0.49674429278,2.813730021
9.288453386,0.4279971577333333,-0.17587543670476202,0.5354719282085715,2.7070526319523807
9.305263964,0.12578337535238096,-0.1658535685000001,0.5525171238242856,2.5940103876190475
9.322070412,-0.18276829945714282,-0.09281296960000011,0.5524680805552381,2.4822126513809524
9.338879738,-0.47595791588571423,-0.009053434680952502,0.5649552082219048,2.420893392904762
9.355686491,-0.7388566789333333,0.04785521820952369,0.6147657426533334,2.3738076291904764
9.372498381,-0.9622270947904762,0.04388171144761892,0.7217851160200001,2.3768078032857143
9.389304402,-1.1325907480761905,-0.039147717647619186,0.8811350173533334,2.43737659652381
9.406111572,-1.2642829532190476,-0.1906989869857144,1.0448232796866666,2.5531794675714288
9.422922932,-1.3811223393952379,-0.36973467331904775,1.185846064067619,2.715524188952381
9.439728618,-1.4954411189190477,-0.5330962000142858,1.298691766615238,2.8923215317142854
9.456537649,-1.5873779796714282,-0.7163312776333335,1.3786420878819048,3.089225219904762
9.473344158,-1.6482374555095238,-0.9308387212000001,1.4205031451676189,3.2885108746666667
9.490154543,-1.6676449095,-1.1968537286000003,1.4201455172628572,3.481646772
9.506964845,-1.6558927127809522,-1.5215117591380953,1.394837436215238,3.681654894904762
9.523761843,-1.644960993857143,-1.8640490033285713,1.354461261215238,3.845240339190476
9.54057651,-1.6515349206666667,-2.152022611614286,1.3072072324533335,3.922114529619048
9.557386701,-1.641563302047619,-2.350146361852381,1.2595301923580953,3.9181486818571423
9.574195997,-1.5943544933238096,-2.5016447022809527,1.235003074024762,3.8635456767619045
9.591005172,-1.5242136547190477,-2.605640479585714,1.2294698102295238,3.7824234978999995
9.607807255,-1.4390047391838094,-2.6759930566000003,1.225208096577143,3.6887547066523805
9.624625768,-1.3478891963604762,-2.7136557443571427,1.2087285433676191,3.6251807007380954
9.64142477,-1.258990015337619,-2.698584692897619,1.1958376424819046,3.552641750352381
9.658238745,-1.1763185319614287,-2.6473419553547624,1.2052635884185716,3.4734567883190475
9.675037187,-1.0747597785442857,-2.5844595092547618,1.2355517227219048,3.433748081509524
9.691858955,-0.9414446013680953,-2.4812496958404764,1.2759289678076189,3.4342304973666664
9.708664619,-0.8086549214300001,-2.2699811573023814,1.269255759502857,3.4744301932714285
9.725467394,-0.6793832097871428,-1.9574629012547622,1.2003826364423809,3.5306258670333337
9.742273222,-0.5718602225871429,-1.5758226486833333,1.0749931030566666,3.5841167323666667
9.759086638,-0.4790105365538095,-1.161793209397619,0.9076261215328572,3.6150345983666665
9.77589338,-0.37858890350619046,-0.7603482293023811,0.7270002911519048,3.6064379041285717
9.792699625,-0.27738823209666663,-0.38145667039761916,0.5422388293900001,3.5654578350333335
9.809512349,-0.1822072665061905,-0.006567750730952483,0.36500500853285717,3.459872410604762
9.826315074,-0.08976550329190476,0.35200990941190463,0.20253172162809527,3.310920967938095
9.843125356,0.004798934593809524,0.7136989320309524,0.07598916763285717,3.1306821270809526
9.859928783,0.09118700029857142,1.1036360149357143,-0.019576225243333308,2.9144497371285714
9.876739717,0.1979245231366667,1.4807926358880952,-0.1116070825290476,2.7134058589380947
9.893551332,0.3590130351842857,1.7466041700785713,-0.20334843438619044,2.5745622766523812
9.910358065,0.5342479206604762,1.8856366929309523,-0.2905231210242857,2.534333027842857
9.927167493,0.7105163166033334,1.9196769623309524,-0.3808504122814285,2.586675215080952
9.943977796,0.888162794617619,1.8881893612071425,-0.44902055389095236,2.715837013657143
9.960785159,1.058267775082381,1.8483520462214282,-0.48875652393190466,2.888564413952381
9.977590031,1.2415032841161906,1.815152122840476,-0.4906854693128571,3.050486243104762
9.994398156,1.439820516712381,1.7786411103523807,-0.49075276011761904,3.233537222395238
10.01120309,1.6566739536695239,1.7066559791285711,-0.5114057432795237,3.4254236645714284
10.02801821,1.8696347872523809,1.544581821985714,-0.5600846352795238,3.593463825142857
10.04482713,2.059564794838095,1.3014666693666666,-0.6531943394985714,3.710155337952381
10.06163312,2.199018977947619,1.0616824967476188,-0.7496051617985714,3.7198413488571425
10.07844154,2.2745780263523807,0.8758549009190475,-0.8269332178809522,3.633085408285714
10.09524787,2.3264740762,0.7204951559190476,-0.8587062373047619,3.5227046102380952
10.11204692,2.3792914889761905,0.5486301467761905,-0.8424668950666666,3.3882398511428575
10.12886466,2.433683395357143,0.3337319011047618,-0.7897860024714286,3.256069187380952
10.14567302,2.4729177383761907,0.1107563972666666,-0.7110434827438095,3.144545079285714
10.16247643,2.4947877611190474,-0.09063523154285724,-0.6076853275295238,3.077063113095238
10.1792912,2.505861532095238,-0.24894807449523818,-0.48305075510095236,3.050283596190476
10.19609828,2.487030687742857,-0.35648870464761917,-0.3418986598676191,3.05562329252381
10.21290825,2.453417550904762,-0.41745029172857157,-0.19523258718190473,3.091829623761905
10.22970919,2.4023216338095237,-0.43677983963333344,-0.03357471737238093,3.150822384714286
10.2465254,2.3050206956047616,-0.3921066693000001,0.1057044154371429,3.2120102437142855
10.26332472,2.1679031280714285,-0.29882726215238103,0.2292036258371429,3.253516218
10.28014837,1.9875370660666667,-0.16986871902857154,0.3473477860466667,3.2476501788571426
10.29693583,1.7711759748285716,-0.02726196112380961,0.4426298837085715,3.1967466054285714
10.31375426,1.5424808320190475,0.0943080356857142,0.5299889147466667,3.116988265333333
10.33056329,1.2922377132095237,0.18722886129523802,0.6030232807180953,3.0167234335238096
10.34737146,1.0276102111142857,0.25424855094761895,0.67352918358,2.904138009190476
10.36417954,0.7559537433047618,0.3141740163099999,0.754765006737143,2.788147470047619
10.38098643,0.4773643357333333,0.4049923079099999,0.8659197503419048,2.6742171408095237
10.39779608,0.20388476049523807,0.4994515918385713,1.0219354757038095,2.580202522904762
10.41460769,-0.028804869885714318,0.5061499504576189,1.2143299707038095,2.567678583904762
10.43141064,-0.2019696462666667,0.3760253815242856,1.4155819316085716,2.616177522952381
10.44821915,-0.3337383270285715,0.16438145861952375,1.5961170437514287,2.662265985714286
10.46503255,-0.4482851936666667,-0.04643930709476198,1.7681588856561905,2.740507877666667
10.48183927,-0.5499659265809523,-0.2203415462328572,1.9592570562990477,2.893576231428572
10.49864938,-0.6192780222119049,-0.3909980002519049,2.1954557554761904,3.126510962428572
10.51545948,-0.673197837107143,-0.5294127464900001,2.4509742940714285,3.387735892809524
10.53224301,-0.7080415771119049,-0.6804830914900001,2.7025937976904766,3.6680442184761906
10.54906965,-0.7026313827166667,-0.9187958581471429,2.9172254005476193,3.9667656989047617
10.5658765,-0.6647543680214285,-1.2548261370185716,3.0838778075,4.2666656269047625
10.5826806,-0.6337613151309525,-1.6384883835423811,3.1984509342619045,4.518111670809524
10.59948581,-0.629524775927143,-1.9712049166376193,3.287054022071428,4.678584828428572
10.61629993,-0.6311873254461905,-2.206718785447143,3.3553729567380954,4.741676276285714
10.63311231,-0.6332559812795238,-2.352135908042381,3.3827924784523806,4.733179877904762
10.64992632,-0.6240625608795238,-2.457124573842381,3.3707831529761902,4.679713215047618
10.66671196,-0.6029532977985714,-2.54750628699,3.3192341383857147,4.618026715409524
10.68353327,-0.5782143048366667,-2.620827811123333,3.2246185540333334,4.595341712552381
10.70034508,-0.57061579117,-2.6622299694042857,3.0929029781761903,4.6065607319333335
10.71714849,-0.5769731203604762,-2.6563840593761907,2.9383408852238095,4.619452816457143
10.73396999,-0.5808935392652381,-2.60883285887619,2.7744789974142856,4.6038067316
10.75076707,-0.5713939439795238,-2.52263791222381,2.5990473031285717,4.551141538504762
10.76757011,-0.5460289092652382,-2.393370855414286,2.416083869419048,4.474510541266667
10.78438855,-0.48454409556523814,-2.210973512557143,2.2645102511809525,4.382039574790476
10.8011934,-0.4162916683080952,-1.9833591097952383,2.1397646225,4.304485364742857
10.81799944,-0.3324522972176191,-1.724451564604762,2.001796871361905,4.232981718171429
10.83480942,-0.26221481958904763,-1.4135160446047619,1.7829131752666667,4.138170673838095
10.85161843,-0.20926007772000002,-1.0579710914619047,1.4556088460761902,3.995987918171428
10.86842578,-0.15621237530095242,-0.7107589812238096,1.0535446816,3.8355768160285715
10.88523221,-0.10647719248666669,-0.34391425903333356,0.6082900378380952,3.670621128742857
10.90204066,-0.06963150843428573,0.10162205925238081,0.15502638040952382,3.4994434207428573
10.91884981,-0.035373551529523824,0.6156140736333332,-0.28340920816190474,3.3229103888380953
10.93566575,0.012433301818095216,1.1088262058714284,-0.6713215723999999,3.1389591286476195
10.95245372,0.11037831077142857,1.455558663347619,-0.9887957616380951,2.987210207457143
10.96927454,0.24864700858571426,1.611948194995238,-1.2246697900666665,2.897138452695238
10.98608198,0.41727156861428566,1.6326577550285715,-1.3625601459952381,2.8960763082666667
11.00288944,0.6153970218333333,1.5834774063047616,-1.4111059511195239,2.9932893481714284
11.01970216,0.8218854495142855,1.5399771418333335,-1.377795060919524,3.134996926095238
11.0365038,1.0383037839333333,1.5307812009952382,-1.2928704907433333,3.2471594699523814
11.05330312,1.2826816694571428,1.5227549644142855,-1.1754913986861903,3.336156762095238
11.07012243,1.5570234570285713,1.4676563399571427,-1.0532044970909524,3.4365621673333338
11.08692106,1.8597540173619047,1.3204355240476189,-0.9556836574766666,3.5895842841428576
11.10373404,2.1554369698857143,1.112884794038095,-0.8827015420909523,3.7760496107619046
11.12055604,2.3891575676476187,0.9681942122761904,-0.8361829012326286,3.8840356667619047
11.13735083,2.5218736329952383,0.9337842805476188,-0.8273179236992954,3.930811334571428
11.15416479,2.6029583158333334,0.962985197738095,-0.8300462156183428,3.986064170714285
11.17097164,2.6484786214761904,0.9864419755952379,-0.8255831078040572,4.025247483238095
11.18778389,2.6923691658095237,0.939403874595238,-0.7892030268373903,4.0017498941904766
11.2045851,2.734740643238095,0.8108920143380951,-0.7173186742897715,3.9256994278571433
11.22140247,2.784934475285714,0.6021149726714284,-0.6010716944183429,3.8569806564285707
11.23821326,2.824162483190476,0.3501226561952379,-0.4228782217040572,3.786540143047619
11.25501446,2.8218984603809525,0.11731113710476175,-0.19299826341834286,3.675471586142857
11.27182376,2.774982043685714,-0.07485371541428587,0.07249148510546666,3.550753656523809
11.28863086,2.707897731238095,-0.1902474448428573,0.3434621021054666,3.47997379252381
11.30543931,2.613619849803333,-0.20445964446190495,0.590226177295943,3.4858317098095237
11.32224461,2.483519349803333,-0.12426199230000017,0.7889303405340381,3.536064175285714
11.33905358,2.3269739151366666,0.00491619111904744,0.9285626507007049,3.5667897936666666
11.35586401,2.1318259466652383,0.14804263345238078,1.0200358685868953,3.530733620857143
11.37267591,1.9141576176652382,0.2594401041666665,1.0761382012107048,3.456220853904762
11.3894779,1.6874678475699998,0.3143158413142856,1.1287021040821332,3.375095404333333
11.40628662,1.4533552442366666,0.3331028393361903,1.193395316596419,3.2986809619999997
11.42309486,1.1985489300461905,0.36115521476476176,1.2769821314773713,3.222994237619047
11.43990682,0.9082045781890474,0.45308167591714266,1.391762103386895,3.124641154
11.45671152,0.6054068973795237,0.5930591991599998,1.5354986957630858,3.022534655904762
11.47352849,0.34503564380809515,0.6422557376457141,1.7184626432333334,3.0227640604761907
11.4903287,0.14197419937952374,0.5402893792790474,1.9380593343190478,3.1167708883333334
11.50713466,-0.019401550287142955,0.327469666802857,2.176052641395238,3.2040631327619047
11.52393225,-0.1615864890014287,0.06104980194571413,2.4236228977666663,3.311289392619048
11.54074283,-0.30000100816809533,-0.20112083072095255,2.677667878990476,3.4819638112380953
11.55755966,-0.4210188729538097,-0.42582255317809536,2.9285349236333333,3.696227627857143
11.5743569,-0.5389692215871429,-0.5770669891780953,3.150023891904762,3.8830898852380953
11.59117921,-0.6526120958109525,-0.6808234850352382,3.311768810047619,4.026234693333333
11.60799251,-0.7190345810014287,-0.8328732308495239,3.420167429190476,4.179825117
11.62479379,-0.7333309083204763,-1.0860898834733335,3.483023830904762,4.354555473904762
11.64160834,-0.7233974139347621,-1.4312671251876192,3.515633339095238,4.532546402333334
11.65841133,-0.7191889854157144,-1.7961415562828573,3.532250909714286,4.671079893047619
11.67521726,-0.732562473887143,-2.0975431032828573,3.551966684333333,4.7423941413333335
11.69202379,-0.747236456234762,-2.2979207265209523,3.590746590238095,4.769985293571429
11.70883678,-0.7482858839919049,-2.414417993382857,3.623471720047619,4.7789241922857135
11.72564239,-0.7424554371014287,-2.4816036450542858,3.6257733108095236,4.768052403714286
11.74245054,-0.7426392237680953,-2.53129529944,3.5852608142999998,4.738393859952381
11.75925961,-0.7414707910538096,-2.5653040521714288,3.500701964052381,4.687647002333334
11.77606631,-0.7346736817061906,-2.584869157609524,3.3897444493571425,4.613502201047619
11.79287528,-0.7228318622776191,-2.5932957103333334,3.272634236695238,4.518950330571428
11.809684,-0.702715533087143,-2.5803130920904764,3.143827225576191,4.401488626
11.82649336,-0.6716063590157143,-2.5098291804857142,2.983004577185714,4.263727102428571
11.84329888,-0.6181851341252381,-2.3742650575809527,2.790915580095238,4.123015901333334
11.86010926,-0.5395898591752382,-2.193713347009524,2.5818940628666667,3.9752522894761904
11.87692426,-0.44174653006095244,-1.9694965452476194,2.366888847452381,3.8076924776666665
11.89372447,-0.35961296443238105,-1.6706874483428573,2.121878833366667,3.6335271325238097
11.91053539,-0.2725994473133334,-1.3350622539619048,1.842484138652381,3.464287622666667
11.9273381,-0.19152639025142865,-1.0002754074380953,1.5079860510809522,3.3305098571428573
11.94415187,-0.10535108474190484,-0.6760369027714286,1.1443624319857142,3.2538721895714287
11.96096508,-0.02445363998000009,-0.3398925690095239,0.7840386623190476,3.194494363190476
11.97776472,0.03839399703428562,0.05643953599047611,0.4452954865571429,3.1160063080952383
11.9945633,0.10549222857238086,0.49616284599047605,0.12073327755714286,3.0100725624761906
12.011383,0.19078711101190468,0.9153578849428572,-0.19767957134761907,2.922714594476191
12.02819255,0.3124294053880951,1.2362794195142857,-0.4972065239190477,2.8810627633333334
12.04499748,0.4665479886880952,1.4236939067047618,-0.7684740969666667,2.873837077047619
12.06178566,0.6170303934880951,1.525376387995238,-0.9840752687285717,2.887535666190476
12.07861538,0.7686976705023808,1.5779232978761903,-1.1366144538238097,2.9226013563809525
12.09541151,0.9402961957404761,1.60459884007,-1.2093787312857143,2.9761595155714287
12.11222737,1.1228239422166664,1.606809207365238,-1.213019138895238,3.052893331190476
12.12904329,1.3196018309166666,1.5830404872033335,-1.1611092380571428,3.166783191809524
12.14584882,1.5247507548690475,1.5377160708223807,-1.0834259311571428,3.305039235571428
12.16264481,1.740810167154762,1.4553353900033332,-0.9779474741333333,3.4769724673333333
12.17946296,1.9561243510833335,1.3122264771033332,-0.8439919088857144,3.6669596773333333
12.19627488,2.1466108957166665,1.12144488377,-0.7052363532238095,3.829805940666667
12.21307653,2.2886641365285714,0.9409327961033332,-0.5926543679,3.9409320356666666
12.22988974,2.3724291210333335,0.808303151817619,-0.5301140531523809,3.9898136522857137
12.24669953,2.439537525095238,0.6925092878899999,-0.49052511641428564,3.9756305087142856
12.26350408,2.4805238813809525,0.5908600262138094,-0.4541935806333333,3.9370980764761905
12.28031362,2.522351719047619,0.4806965419185713,-0.37690259722380953,3.877298813619048
12.29712126,2.568228517238095,0.3462165650761904,-0.25704583945238096,3.7898899176190475
12.31393184,2.602301847333333,0.2025964146604761,-0.09691056250000002,3.6873044815714286
12.33073507,2.612448692285714,0.07718372343666659,0.10599466664285712,3.576684195238095
12.347549,2.5967971256666664,-0.0141837256585715,0.34103811854761906,3.482014239523809
12.3643539,2.5677819706190474,-0.07255279451571436,0.6048385579285713,3.409698557809524
12.38116173,2.5142686480714285,-0.09067671642047628,0.8675650124523809,3.3713843730476185
12.39797264,2.4192479224714285,-0.06589694251571439,1.1137802991666668,3.367417206571429
12.41477807,2.3023529961238096,-0.03270680561095248,1.3290818014523809,3.375384223809524
12.431587,2.161604154704762,0.006808485322380843,1.5094172720714287,3.3822995215714293
12.44839597,1.9889617193714284,0.057137898052380856,1.6382381653761906,3.380935997619048
12.46520458,1.789746965704762,0.1188836324904761,1.7120712165666665,3.3542146192380953
12.48201065,1.5683419364190476,0.18508940651571418,1.7307459762333333,3.288176531714286
12.49882085,1.337318329609524,0.23514531907285705,1.7134203421857144,3.204338026761905
12.51563591,1.0881415094666667,0.2848973728395237,1.6705573932809525,3.1049836145714287
12.53243602,0.8234731810380951,0.355072770825238,1.6202714748999998,2.9981829271904763
12.5492274,0.5619357427047618,0.44015639170142845,1.5886560246142858,2.9063138289523813
12.56605406,0.32131467546666653,0.5090974853157142,1.605216862947619,2.8656704026190476
12.58286004,0.1135552724190475,0.5238327525919046,1.6879113366619047,2.894812913285714
12.59966538,-0.06404063815238105,0.45877454394809514,1.8330432808666666,2.980783282
12.61648077,-0.23052758262857148,0.3304444040528571,2.022128609752381,3.088927763047619
12.63328203,-0.394194126152381,0.16906697410999988,2.223257030152381,3.2038493276666666
12.65009699,-0.5551112720380954,-0.01051276071428581,2.4114657208571426,3.3234889066190476
12.66689988,-0.6939287185857144,-0.21405070167952392,2.561990352,3.4604937753809524
12.6837133,-0.8054749852476191,-0.45786521545571435,2.6751497190476194,3.612597474095238
12.70051545,-0.8951938039285714,-0.724051816074762,2.755284275428571,3.7398057400476197
12.71732996,-0.949606395952381,-1.0430642082176191,2.8100875446666667,3.8650342639523805
12.73413545,-0.9723286629238095,-1.4186513991223808,2.8473181952380955,4.002978620809524
12.75093426,-0.9890715735799525,-1.8034723599319047,2.874383074952381,4.136234147666666
12.7677532,-1.0178000359799524,-2.121671608503333,2.904616844142857,4.248205199095238
12.78455682,-1.0545501709418572,-2.3282315617414286,2.944528704619048,4.322697545809524
12.80136628,-1.0797421591799525,-2.4374608766461905,2.9771113055238096,4.362579866809524
12.8181751,-1.0851381619894762,-2.498515242622381,2.990546135666667,4.377422270666666
12.83498671,-1.090334074846619,-2.541271187009524,2.968005140571429,4.3727311722857145
12.85179045,-1.0875849950847143,-2.5754771459476196,2.909287991904762,4.352536314
12.86860057,-1.0733218192751905,-2.614786988190476,2.8167559021333335,4.323083065380952
12.88541011,-1.054155894656143,-2.6382828893666668,2.707637332664286,4.272526566619048
12.90221585,-1.0363929611799523,-2.6297344479809523,2.58615809106,4.198775238857143
12.91902506,-1.016317662656143,-2.5826079050285715,2.4561280125290477,4.114242981190476
12.93582049,-0.994465918703762,-2.4802431605904767,2.305728151644238,4.036156627047619
12.95264385,-0.9659342083894762,-2.31273312792381,2.1174761808489997,3.9546557889999994
12.96945036,-0.9110768181323333,-2.0923243022571434,1.9088172840870952,3.856166723857143
12.98625452,-0.8415064811085239,-1.8371661276857145,1.691249124958524,3.740748550238095
13.0030606,-0.7577608652894762,-1.5506126312571429,1.4857205988870954,3.621115818714286
13.01987448,-0.675545533456143,-1.219612053447619,1.2744798475061427,3.5119899666666665
13.03667294,-0.5865088871275714,-0.8605846677809526,1.0340421241728097,3.4175434173809522
13.05348597,-0.47579367954185725,-0.5120942252571429,0.7897605710775715,3.345064897571428
13.07030254,-0.36914902642280956,-0.133095741352381,0.5441800795061429,3.2659164826190477
13.08710451,-0.2609937758561429,0.27542200536190475,0.3038618038870952,3.161697212190476
13.10392488,-0.1291504360285715,0.6749075026,0.057409449649,3.054184324285715
13.1207205,0.03824052357619039,1.0208074932190476,-0.2012372428748095,2.9876692786190477
13.13753329,0.24411489852857135,1.2614719753619046,-0.46299827239861907,2.9794142904761904
13.15433513,0.46836076467142845,1.4074944086952381,-0.6968541102557619,3.0159943865714287
13.17114755,0.6996989704809524,1.5094711893714285,-0.882267130255762,3.0831983354761907
13.187958,0.9509269396714285,1.5829118546619048,-1.0025845666367144,3.167609733285714
13.20476489,1.2150021734809524,1.6479343459142857,-1.0656961273224286,3.2627989453809527
13.22157341,1.478437923242857,1.719803764647619,-1.087560311636714,3.3513328043333335
13.23838083,1.7500490688142858,1.7578230811619049,-1.0850718262324286,3.4520444559047623
13.25518748,2.0325286955761905,1.7258273532809523,-1.065651526018619,3.5782062753809525
13.27199674,2.309694948623809,1.6066288039047616,-1.0396377883876664,3.7203570726666664
13.28880484,2.576468944528571,1.3989701043333334,-1.000862892150476,3.8691620229523815
13.30561494,2.7978736105,1.1736661365238095,-0.9415466330933333,3.9774302295238093
13.32242138,2.9328766322904762,1.0285894075095239,-0.8881546826219046,3.994255684142858
13.33922595,3.0050250234571427,0.9763493537,-0.842435534472857,3.9831537443333334
13.35604313,3.033192203095238,0.9587919370333333,-0.8182538903490476,3.97680506852381
13.3728451,3.042122136952381,0.8999657629857144,-0.7826801367966667,3.9274647027619047
13.38965302,3.040396713047619,0.7597144671009524,-0.7254169569109523,3.8305213444761907
13.40646347,3.015121459952381,0.5531138691961904,-0.6585478129680953,3.7373115416666667
13.42325819,2.9576259567619045,0.3132306280057143,-0.5689614102633332,3.638490807952381
13.44007787,2.8514374324095235,0.10748163852952378,-0.4566846007252381,3.504755196904762
13.45688203,2.7202320552865715,-0.04456567770380955,-0.30391834463,3.3704636717619043
13.47369455,2.574169340572286,-0.14772124521809527,-0.11615674267761904,3.255120559809524
13.49051576,2.4083671796532378,-0.20396975112285717,0.09004766032238094,3.164055646714285
13.50731025,2.216991242853238,-0.22386707583714288,0.2907593647509524,3.0923186645714287
13.52410347,1.9954599879484758,-0.22530405869428577,0.46685641722714283,3.026687355952381
13.54093394,1.7470634778056187,-0.2236613092704762,0.5976420641319047,2.9461346233809524
13.55773127,1.4767453329960951,-0.23940622246095242,0.6984034663414285,2.856319375857143
13.57454091,1.1856515748532381,-0.2516947701609524,0.7772343528080952,2.779595441952381
13.5913585,0.8827523731389524,-0.25843667991333336,0.8407446033014286,2.7100859816190477
13.60815456,0.5619220507103809,-0.23962477284666672,0.8989235135014285,2.6451712624285713
13.62497733,0.2248021534722856,-0.1731487683657143,0.9564530225919048,2.5846515580476193
13.6417719,-0.12163364319438104,-0.0714051837657143,1.0177725526204762,2.5161768465714287
13.65859083,-0.452741986194381,0.0072596640152380746,1.0816240567395237,2.485573791857143
13.67537403,-0.7374245098134287,-0.018003849827619066,1.1629272473633332,2.5483250038571432
13.69219993,-0.9832671255753334,-0.16184836349428572,1.2629088718190475,2.646693096047619
13.70900929,-1.2017848604324763,-0.38337303349428575,1.3785721504809523,2.745822108761905
13.72581898,-1.4065247489562858,-0.6281446730180953,1.4833249819761904,2.8811882966190474
13.7426141,-1.6006866635753332,-0.8580671719904761,1.5760846493761904,3.0639693282380955
13.75943322,-1.7800017537658097,-1.0399590220380952,1.6515000520523808,3.2359627564761904
13.77624245,-1.903007121194381,-1.206987335609524,1.7069940624904762,3.4035544654761907
13.79304974,-1.944448062237238,-1.4289163635142856,1.7295425904285715,3.620966558857143
13.80985929,-1.9294887269095238,-1.714021818995238,1.6873142010761906,3.856986948904762
13.82666644,-1.8741999125476194,-2.043268090242857,1.6060340121619046,4.074357783047619
13.84346042,-1.8061800001904762,-2.3514531908142855,1.5328649652285715,4.220063211952381
13.86028681,-1.7548370133095241,-2.5939034507666667,1.4982365001809523,4.277595218857142
13.87709325,-1.7148793764428572,-2.7441572234809524,1.4991146638952382,4.274459453857143
13.89389929,-1.678322383242857,-2.7854092461809525,1.5237175822761904,4.268449996666667
13.91071113,-1.6306136221380951,-2.757862681442857,1.5320095307047619,4.247640521571428
13.92750767,-1.5595023972095239,-2.7409565335304764,1.5083157931666666,4.177107849538095
13.94431735,-1.4717152004714287,-2.7439557484304764,1.4456415120080142,4.0859410477095235
13.96113371,-1.3773216973714286,-2.754478908730476,1.3504753765889668,3.9942382606619047
13.97795577,-1.2809010913809524,-2.764305409944762,1.2508034464937285,3.883241837614286
13.99477052,-1.2023820649047618,-2.7181746165114284,1.1418904456223,3.77216415337619
14.01155334,-1.1103902543333333,-2.611754440149524,1.041122415909919,3.668809055709523
14.02836475,-1.0131741704761903,-2.447621345530476,0.9444471192780144,3.5934655224714285
14.04517416,-0.9106279100000001,-2.2293870562447617,0.8243420698399191,3.5288107669476196
14.06197789,-0.8022301991238097,-1.9580802462923808,0.6737715069351571,3.4655798021380955
14.07879222,-0.6954803466333334,-1.6206607818161907,0.4928986635542048,3.4140802644238097
14.09559452,-0.5826364471444763,-1.2321983745780951,0.3117014176494428,3.3391889817571427
14.1124108,-0.4639079456825715,-0.8358256249114285,0.15080266974468096,3.2467722109
14.12921156,-0.3721180870254286,-0.43015861510190473,0.009672852458966673,3.1426842834714286
14.14602489,-0.31374309174447623,-0.02030215943523807,-0.09889067854103331,2.9945510423285717
14.16283074,-0.27498420075876195,0.37553137823142857,-0.1406243237981762,2.794797951280952
14.17963615,-0.2470635005016191,0.7470020793742858,-0.14139043365055712,2.5796309053761903
14.19644874,-0.2096734500825715,1.0680581501361903,-0.16612093437008094,2.4203679825666664
14.21325403,-0.1276993297349524,1.307451838517143,-0.24065590972246187,2.3461624872333333
14.23006461,0.0019200870174285601,1.4302768252838096,-0.35858903259389047,2.3394315499476193
14.24687353,0.17311890919838094,1.4328049704838097,-0.4973334804986524,2.378899111280952
14.26368123,0.3660786265221905,1.38986603416,-0.6340825437367477,2.4700566445190475
14.28048559,0.5775559061650476,1.3615827787190478,-0.729967638865319,2.6190653636
14.29729732,0.7962296349031429,1.3787218729333333,-0.7904395056590475,2.7916084466190476
14.31410434,1.0306376274698095,1.4145298458,-0.824392000097143,2.956627329333333
14.33091977,1.2915701638126666,1.4361242339476188,-0.863727763287619,3.1336565436190478
14.34772096,1.5918028240031428,1.3836562519761906,-0.897176627592381,3.309090185380952
14.3645286,1.8951836312412382,1.2520109131190476,-0.9367245449800001,3.477970128285714
14.38133833,2.1822030429555235,1.1052943638285715,-0.9749813576433333,3.590964483428571
14.39814448,2.424375125241238,1.012372448304762,-0.9934942012671428,3.648487022714286
14.4149593,2.625232128746,0.9679922830190476,-0.9838659451004762,3.6893957714285714
14.43176144,2.807536851684095,0.9187184742571429,-0.9275314438576191,3.7008976123809525
14.44857701,2.9633785428142856,0.8407558259714285,-0.8580350449814286,3.689837037523809
14.4653775,3.1001516749714284,0.7087943440619048,-0.7968861176719048,3.669704808666667
14.48218617,3.2140738622190477,0.5281165895142858,-0.73200880201,3.6428276985714287
14.49898287,3.2871071042380953,0.3656804675285714,-0.6656695022242857,3.6156365959047627
14.51580094,3.299892743285714,0.26745208107619045,-0.6069445027957143,3.588210647761905
14.53261307,3.2602477072238094,0.23658150721904758,-0.5584699866004762,3.5640177243809523
14.54941727,3.177387668842857,0.24271447321904763,-0.4960223904238096,3.557901349380953
14.56623156,3.0622891243333337,0.2592570441238095,-0.4216512313571429,3.5536899201428573
14.58303366,2.9158954392000003,0.291763555452381,-0.3351258110095238,3.536632163666667
14.59984453,2.7305097805809524,0.33967036294285713,-0.24062954100952383,3.4804180463333334
14.61665538,2.503583726342857,0.37494389217619045,-0.14050163964761908,3.3821468574285714
14.63345992,2.237686157152381,0.39667065939999996,-0.05187044681904762,3.2735151233333335
14.65026914,1.9518824985333334,0.3831878843952381,0.03299585835714285,3.1587774712857146
14.66707616,1.649943692295238,0.34931589309999994,0.10788971040952382,3.043831730285714
14.6838726,1.3302410897238095,0.3144507862428571,0.17981269954761905,2.924603830904762
14.70069411,0.9981861795333332,0.29539621446666664,0.2526637358238095,2.7988596768095237
14.71750112,0.6509308360571429,0.318069548847619,0.33563677894761906,2.6677923157619046
14.73430846,0.30539664767619046,0.31250174842380957,0.42766515271904765,2.574589793047619
14.75111955,-0.0047086534190476925,0.20607026418571428,0.5151320937333332,2.5245700417619044
14.76792971,-0.2821979749904763,-0.009706519909523805,0.5982327901380953,2.497700572857143
14.78475632,-0.5507287298,-0.2771941140047619,0.6731320605571428,2.4959264695714287
14.80154533,-0.8106978734190478,-0.5537017413857144,0.7558687684428571,2.5413783505238094
14.81835133,-1.0646351178476192,-0.7999251456666668,0.8486369096571428,2.6353885907142858
14.83515818,-1.3004698980380953,-1.0123635701190477,0.9378348419,2.7675171950952384
14.85195479,-1.5044248898952381,-1.206466697561905,1.0190765631142857,2.9201110722380954
14.86877626,-1.6557816778000003,-1.432972726395238,1.0722736205809524,3.1073385906190474
14.88558484,-1.7505971817857144,-1.7497232301095238,1.0973336328190477,3.3385280756666664
14.90239127,-1.8019099462619048,-2.1364965438714285,1.0999289950095237,3.5707574434761904
14.91919362,-1.8460347766095238,-2.5140477588714285,1.0933077307238097,3.7725491007619048
14.93600084,-1.899865332095238,-2.810218107109524,1.0850729460095236,3.9176445503333333
14.9528131,-1.9394314175238097,-2.9976722626428574,1.088925915152381,4.008994441857142
14.96962418,-1.9578553608095242,-3.1011416344476195,1.0940215162333333,4.0663122540000005
14.98643222,-1.952415102952381,-3.1703090213666667,1.0852258872857143,4.090038436428571
15.00323683,-1.9351404053333334,-3.2239227522,1.052926238138095,4.102559773666666
15.02005268,-1.9126163890952381,-3.249327228204762,1.0103225254333335,4.0978649400952385
15.03685824,-1.8885446729523812,-3.233622778052381,0.9703388200380952,4.069791614809524
15.0536645,-1.8668160210952383,-3.163510663204762,0.9364980076490477,4.029263639285714
15.07047131,-1.8373998005714287,-3.061864921061905,0.9029574444347619,3.9984959007142855
15.08728564,-1.7906929197142856,-2.9246149744904764,0.8565575594347618,3.973414491047619
15.10408887,-1.7292956397142856,-2.74656086882381,0.8130630694823808,3.948052294285714
15.1209004,-1.639555317942857,-2.5168267205380954,0.7872976958871428,3.8935129869523815
15.13770619,-1.5455720310619048,-2.2383909225857144,0.7542585283633333,3.819762816380953
15.15451298,-1.4556514648666667,-1.9217678025380953,0.6729431528347619,3.7220664779047623
15.1713216,-1.3523699442071428,-1.6033313615857143,0.5843554997538095,3.565911232714286
15.18813412,-1.2397783369642856,-1.2779625030619048,0.47966915155380946,3.3789341655714287
15.20493183,-1.1367050351976191,-0.9638612157761903,0.34737048899190465,3.204443693952381
15.22174281,-1.03929063245,-0.6608500935857142,0.22701087237761897,3.012277352857143
15.23855778,-0.9503835949833334,-0.30812043249047627,0.1410348556966666,2.7850029765238093
15.25536513,-0.8541066759452381,0.07684244412857139,0.06909583222523803,2.537735848238095
15.27217085,-0.7257056689452381,0.45263581031904754,0.0008717470157142296,2.3287312314285713
15.28898271,-0.5440698123261904,0.7535300253190476,-0.07116249275571433,2.2022944509523805
15.30578724,-0.32872704089761906,0.9529985926047618,-0.15483993221285722,2.166413320333333
15.32259832,-0.09201079318333338,1.080751101047619,-0.23780630529380953,2.1938470726190475
15.33939362,0.16905755091190475,1.159866423705238,-0.30126740606523816,2.272725802
15.35621333,0.4613264629119047,1.2222243489338094,-0.32754760768428576,2.3926085705238096
15.37301747,0.7822327387214285,1.2780465624433335,-0.32782165707000005,2.5478808531428574
15.38981329,1.1167829377690477,1.3372144470909522,-0.31773363551285716,2.729859029142857
15.40662978,1.460896083292857,1.3658393904147619,-0.31301616771619056,2.9263528998571426
15.42344452,1.8127484094357142,1.33517481021,-0.31865068490190485,3.1099401823333337
15.44024172,2.153573081578571,1.2446157817833334,-0.33845201915428574,3.2636694106666666
15.45706576,2.448831376530952,1.1403074944995237,-0.38108450387333337,3.3814319842857143
15.5411024,2.6431434494738095,1.1132928984042856,-0.44931287637333334,3.4650753596190476
15.55790991,2.8164736429261903,1.0177129336185713,-0.4892326437209524,3.507575373
15.57472374,2.9602401369690474,0.8809749739042856,-0.47576832628285715,3.5119868974285717
15.59152785,3.0540431567380955,0.7544173966852382,-0.4492374459810953,3.5182643102857143
15.60833578,3.1034416244000003,0.6460335595042856,-0.4007091181525238,3.5050041326190473
15.62514121,3.1296440987190475,0.5615086782504723,-0.3146742923049048,3.472183586857143
15.64196333,3.127883025561905,0.5201408749409485,-0.2206508063096667,3.473122608523809
15.65876364,3.10178259439,0.4887508664933294,-0.13875074824776196,3.4838650068571426
15.67556875,3.0427344185757144,0.45699775787428176,-0.060649109728714325,3.4870346333809525
15.69237366,2.948228858723333,0.3975051244219009,0.011980042576047583,3.461541786666667
15.70918913,2.8125750677376193,0.3152804602028533,0.08141809134747616,3.408616953428571
15.72599531,2.6339931714519045,0.23759181160761517,0.15133446455223806,3.3381643047142857
15.7427997,2.4152745291661906,0.17668896631713896,0.22890676487128564,3.2580611665714283
15.75960894,2.1483792123090475,0.126711663754758,0.32346215419033325,3.1772653825238097
15.77641883,1.8247210184519047,0.07656708219285327,0.43117607492366666,3.093096317619048
15.79322554,1.4508662223566668,0.0004978407309485114,0.5414843417236667,3.013378125619048
15.81003277,1.0478194781661905,-0.14188035324524198,0.6459792972808095,2.9549364254285715
15.82683257,0.6212061927376191,-0.32234505241667055,0.748462500297,2.916952937952381
15.84365275,0.17550368535666672,-0.5102198918309563,0.8511280055303333,2.900350616190476
15.86044775,-0.273428962357619,-0.7067835671185753,0.9587097834493808,2.916704425095238
15.87726587,-0.7008881341671428,-0.9367419196919087,1.0753132374065237,2.983726926952381
15.89408093,-1.0637823286433334,-1.2708534512633374,1.1967368849303333,3.1082502396190472
15.91088397,-1.405026935357619,-1.5682650520014325,1.3041860134255714,3.2799878064761905
15.92769312,-1.710154079214762,-1.8275046348109563,1.410244528658905,3.4840586937619045
15.94449517,-1.9689833549766664,-2.054546242639528,1.5091189826285714,3.7018173296190477
15.96131194,-2.159226281262381,-2.3025829905061945,1.5812544538095237,3.9447178936666667
15.97811407,-2.2776745387290473,-2.627295857347619,1.6180630865238095,4.2319613561428575
15.99493167,-2.346307663652857,-2.9951324008476194,1.6298879725238091,4.511054173190476
16.01173188,-2.3935602505666664,-3.3040100733047617,1.6421275308571428,4.715100613285714
16.09577495,-2.362313520304762,-3.3834442637809525,1.559263660742857,4.676817847742858
16.11258032,-2.3233292215966665,-3.4507012593904767,1.4601958194904763,4.661723743266667
16.12939226,-2.280396030022857,-3.474877289323809,1.3711530310285713,4.642442066266666
16.14619746,-2.231398264523333,-3.4362227575714286,1.3032373643571429,4.605338965738095
16.1630068,-2.145905381104286,-3.350319453628571,1.2680830103533334,4.5855658648809525
16.17981369,-2.0374149367614285,-3.197457381628571,1.2280611111485713,4.584551300404762
16.19662314,-1.894219693637619,-2.9903970218666664,1.1579288527523808,4.587836439309523
16.21343049,-1.7232709611614285,-2.7366008304380953,1.0541476975952382,4.591622468214286
16.23023935,-1.5200706663042858,-2.451938947057143,0.9361745700714286,4.570554994547619
16.24704762,-1.2856271152566667,-2.1438658351047617,0.7967542253523809,4.525137038309524
16.2638566,-1.0288430394471428,-1.8148278054857143,0.6423794385714285,4.456028384595238
16.28065108,-0.7437047957328571,-1.460850125295238,0.5129286405571428,4.361389366023809
16.29747326,-0.42724277849476194,-1.0910915193428574,0.42018404319047625,4.245230493119047
16.31427847,-0.10071831649476191,-0.6854213987714287,0.34953755280952375,4.128602816738096
16.33108787,0.2166160743147619,-0.24540930710476194,0.26448452615238094,4.008030161833334
16.34788959,0.52969597641,0.17718941818095232,0.13851061465714284,3.878800769071429
16.3647072,0.8529806024100001,0.5305097443238095,-0.006823631938095283,3.750575401976191
16.38150131,1.1600491887433333,0.8580690564666666,-0.164124359652381,3.6323437817380952
16.39832285,1.4471206211719045,1.2041423660619048,-0.31422258698571437,3.4980418535952373
16.41513021,1.7213757606480953,1.5529769261,-0.45606425970000003,3.3687132384047622
16.43192445,2.000189440648095,1.8206921077109521,-0.5930153315571429,3.3132586683095235
16.4487522,2.2313299860671427,1.8559695651728572,-0.6217178943190477,3.5147391641380947
16.4655559,2.4712317330685716,1.9082271711299998,-0.6172279473857143,3.7007455334714283
16.48235782,2.7107154074328568,1.946092287610952,-0.6119056840285715,3.8921449424714285
16.49916661,2.957686832980952,1.885484649934762,-0.6343669337238096,4.109801837857143
16.51598065,3.181714966180952,1.7277181261252381,-0.7105876504961905,4.321645261047619
16.53278746,3.389168512266667,1.5094892637442858,-0.8114819114819047,4.488672511238096
16.54959575,3.5531461806666664,1.3138026282204762,-0.898463863657143,4.573131516619047
16.56640548,3.6851267587619043,1.1800902002633333,-0.9469789336904761,4.591381640904761
16.58320899,3.795731476380953,1.0841631207395237,-0.9689632398095239,4.600952162714286
16.60002047,3.890621594,0.9804061253109524,-0.9703822390714287,4.599449784761904
16.61682863,3.9666044370952385,0.843249911277619,-0.9586976056380953,4.577095118190476
16.63363811,4.009209950714285,0.682340417525238,-0.9533123089523812,4.5364378501904765
16.65044353,4.007781210333333,0.5224536940442857,-0.9353029954390476,4.471464278428572
16.66725361,3.9622722125714285,0.3670687674929523,-0.8927411635104763,4.3636690783333325
16.68405622,3.879204897619047,0.23499155039295228,-0.8119478707580954,4.240899493
16.70087221,3.7595918859285717,0.14505331853580947,-0.6861614584057144,4.140711687380953
16.71767686,3.5888227166952382,0.12312802810723802,-0.5461489699057144,4.065638644238095
16.73448429,3.373912561457143,0.13709504263104755,-0.3994661852390477,3.9817158744761905
16.75129376,3.1187086786,0.15511544544533326,-0.26384672657238106,3.86728644752381
16.76808884,2.8300237655047615,0.14202285947295232,-0.1472153890009525,3.7334781485714292
16.78491214,2.5127232642190473,0.09093956719533328,-0.053088148377142944,3.613821833714286
16.80172089,2.1610205059809524,0.004785265257238034,0.02377275915619039,3.5148928718095243
16.81852507,1.7938274656,-0.11578759692371435,0.0998001865609523,3.4438915154285716
16.83533235,1.4285446802666666,-0.2602469580618096,0.21042605533238087,3.4058516502857143
16.85214222,1.0459811119809526,-0.3537267503522858,0.3623813703799999,3.3751167462380955
16.8689351,0.6474090985047619,-0.3902676900189524,0.5456934401895237,3.3358886477142855
16.88575634,0.2361975397428572,-0.4055354254475239,0.7355204169038094,3.3027088265238094
16.90256939,-0.15375452949523807,-0.4804584412094286,0.898174385332381,3.312152725142857
16.91937546,-0.5255853789238095,-0.6550880840618095,1.01267669038,3.359116775380952
16.93618608,-0.8920982678761904,-0.8955847649189524,1.0813439489133334,3.4217579368095237
16.9529887,-1.2514106886380953,-1.1736065546332382,1.1229292907180952,3.5177166125714288
16.96980168,-1.5985842658761904,-1.4507406325046668,1.15098749818,3.659994789809524
16.98660787,-1.9326775641142855,-1.7034710020856192,1.165593404218095,3.8286485080000006
17.00341909,-2.240601970971429,-1.923230420938,1.1516434061380951,4.002781480333334
17.02020991,-2.4891507511619047,-2.1436724208152382,1.105317237190476,4.176608000476191
17.03703322,-2.6609098343523807,-2.4297642707152383,1.0305244497523809,4.361995208714286
17.05384199,-2.765156427995238,-2.794449783429524,0.9368607515809522,4.572599831095238
17.07065143,-2.8298728125238095,-3.1903576396199997,0.8635029991666666,4.787850929619047
17.08745603,-2.877998056857143,-3.5304720741914286,0.8302400595,4.962814451952381
17.10426502,-2.9086186545238095,-3.7781216756961906,0.8319679527380953,5.101261498238095
17.1210745,-2.9028407505714284,-3.933729421476191,0.8737987535476192,5.208852367238095
17.1378823,-2.846770445538095,-4.027806236571429,0.9236800642571429,5.273847496047619
17.15469084,-2.7482803435761904,-4.078485761333333,0.9590677619333334,5.287399181142857
17.17149932,-2.6205027671214287,-4.091079235047619,0.9511229566476189,5.245295764
17.18830555,-2.48507917495,-4.04245224447619,0.8788731020238094,5.130948738952381
17.20511731,-2.3439672788014287,-3.926838397914286,0.7745120880061904,4.930536047738095
17.2219298,-2.1916007995680955,-3.7494928949809525,0.6682436977185714,4.7378418359619054
17.23873125,-2.013445967730952,-3.535417692980952,0.5790329916042857,4.581296578390476
17.25554089,-1.8212569554738094,-3.290778795838095,0.5145027736757142,4.456301654771429
17.27234714,-1.6131144705357143,-3.024336610457143,0.47335581694714274,4.343063833533334
17.28915437,-1.3957870347404762,-2.7215951736952384,0.4491391508387619,4.226970810914286
17.30596271,-1.1764613560690476,-2.3719245137904763,0.44561986412638094,4.084065677819048
17.32277851,-0.9493036951880951,-1.9932742799333332,0.46584909941685704,3.9086652222
17.33957774,-0.7032086281880952,-1.6303098995523808,0.5157645543454286,3.716842649438095
17.35639052,-0.45289393837857145,-1.2902566817904761,0.5834994791359046,3.5528811462
17.37319574,-0.21493866333095235,-0.9593330564095238,0.6502189685835238,3.4297244088666665
17.39000894,-0.00937271118809523,-0.5771853582666667,0.7022039535454285,3.315064115247619
17.40681084,0.17106821419285714,-0.12372795736190485,0.7255236832835238,3.1741697542476195
17.42362308,0.3489188012404762,0.34549222678095226,0.6883662044978094,3.020408464914286
17.4404251,0.5584311712404763,0.7212236949714285,0.5991772114978096,2.899034362771429
17.45724519,0.8025337060023809,0.9804425466857142,0.48664187391209524,2.834763851247619
17.47404366,1.04886347905,1.1697552318095237,0.343119094774,2.8239053449619047
17.49085502,1.29712658835,1.308344704795238,0.19506748658352374,2.8670325527714287
17.50766433,1.5601755096738097,1.421771140357143,0.06208422777399997,2.967787834057143
17.52446959,1.8476326806000003,1.526509716447619,-0.03409765026409528,3.133800808295238
17.54127798,2.1534729003809523,1.617829618042857,-0.09446786916409529,3.3645558637238095
17.55808734,2.4710083007561905,1.6659456208095236,-0.12819561225123813,3.666549475747619
17.57489732,2.785660607427619,1.6527090754285712,-0.15453343878742862,3.9395407267142857
17.59170611,3.0892490204952376,1.555010750238095,-0.2036455486969524,4.161551414285714
17.60850978,3.3719207445238095,1.4013359887619046,-0.2742477570540953,4.346750554333333
17.62532053,3.6171376591095243,1.2653024310285712,-0.36022081832552383,4.491394066285714
17.64212814,3.833187648171428,1.1916107677428571,-0.44644959486952385,4.613705954
17.65893077,4.030992099166667,1.1600793430285714,-0.5200300955047619,4.735982425238095
17.67574669,4.222437495238095,1.1215447471714286,-0.5740020076809524,4.854499537047619
17.69255114,4.393565881761905,1.0627693222047618,-0.6240828974285715,4.963295200095238
17.70935057,4.532123247714286,0.9855147997809524,-0.6715395081761906,5.034689342333333
17.72616965,4.615057218571429,0.9131278310857143,-0.7079858382761904,5.053899702285714
17.7429773,4.652888229857143,0.8322428976095236,-0.712360067052381,5.029938091666667
17.75978589,4.6530059859523805,0.7349410965619046,-0.6634087733333334,4.979216366619048
17.77658634,4.624008178666666,0.6221266474571427,-0.5492817334190477,4.927182598476191
17.79340113,4.539346195342857,0.5483757882523809,-0.3981751288952382,4.885234648714286
17.81019767,4.3792691571003335,0.5389947437619046,-0.24380901316666675,4.835773087
17.82701675,4.164117881195572,0.5432787623238094,-0.0981788748857143,4.758716259238095
17.84382827,3.8862635294336663,0.5586910475380952,0.0325002897333333,4.636869278761905
17.86063158,3.5533323741479528,0.5499773480142857,0.14770758720952376,4.479358791857142
17.87744231,3.159512633338429,0.5085622697333333,0.2428792715380952,4.306731919285714
17.89424338,2.7227011634812857,0.4303376788999999,0.32757227480952383,4.1353814812380945
17.91106464,2.263318129909857,0.3265410832857142,0.400009921652381,3.977653862142857
17.92786946,1.796683992624143,0.22370111382857136,0.47367052242857133,3.8425066519523807
17.94467337,1.3248376618622382,0.16158474068571418,0.5858917889761904,3.7334311082380958
17.96148093,0.862364019624143,0.11458133525714273,0.7420012923095237,3.6506960060952385
17.97829269,0.4309735524812857,0.006915319609523708,0.9402183493571428,3.6160395112380956
17.99510236,0.026222410624142878,-0.21179383134285729,1.163620690547619,3.6186663489047612
18.0119118,-0.36170214704252374,-0.5454684892952382,1.3723031992619046,3.6652949694761903
18.02871841,-0.7391765686139523,-0.9271023159619047,1.5413980087476191,3.760756111285714
18.04552331,-1.0980528650425239,-1.2826078051380951,1.666324538904762,3.8785070154285717
18.06233268,-1.407938026280619,-1.618124734761905,1.770651110652381,4.017754615857142
18.07914596,-1.6608455748996664,-1.942449887590476,1.8797607933238094,4.178411076714286
18.0959373,-1.8581225986139522,-2.257659730447619,1.9800527805761905,4.347949909333333
18.11275348,-2.0027797108996666,-2.5610366321619047,2.0344580724809527,4.506262383476191
18.12956938,-2.1043959345568095,-2.8592812674380954,2.0306812156238094,4.662293097904762
18.14637542,-2.17588038675681,-3.149220761804762,2.0073355294809523,4.813766581857142
18.16318433,-2.2171912874904764,-3.414011047028571,1.9678325227666666,4.93048588347619
18.17998936,-2.233231181252381,-3.6084520703333336,1.9368669561,5.001842055952381
18.19678665,-2.2176906722666665,-3.711020106390476,1.9199134196714287,5.025125164333334
18.21360914,-2.176790600780952,-3.724415711,1.907681456647619,4.998581700666667
18.23040322,-2.115402585052381,-3.6723366465142857,1.8880388637523806,4.918206080276191
18.24722206,-2.047315779242857,-3.5871068409904763,1.840912420138095,4.83063624332381
18.26402402,-1.9745113509571426,-3.5013377099285714,1.7624305586142859,4.747142400466667
18.28084205,-1.8957680293857144,-3.417349815414286,1.6651311445714287,4.656419976990476
18.29763517,-1.8148449261952382,-3.3296953156476197,1.559284713990476,4.549585672228572
18.31445454,-1.7336032731,-3.2097967693428573,1.449693425042857,4.42879061227619
18.33126552,-1.6518397785285717,-3.0194151061523806,1.3316865016780952,4.304812123895238
18.34807303,-1.5688815570999999,-2.7571222442476193,1.2048635943923809,4.176330114990476
18.36488132,-1.4738909176238095,-2.411489214295238,1.0952598289209523,4.0027667493238095
18.38170298,-1.375998247204762,-1.9996852194380952,1.0088910495542855,3.7877039858
18.39850009,-1.2819363048904762,-1.5707304137714284,0.9260307103209523,3.5627333544666664
18.41530354,-1.196904227838095,-1.1492327054857143,0.8242743462019048,3.3303758021333336
18.4321156,-1.1029736654985713,-0.7643743923904763,0.6796591487590475,3.1011765311809527
18.44892385,-0.9956395739271429,-0.4291862760095239,0.5164739865638095,2.8734343324666662
18.46572714,-0.8829036666890476,-0.13104470570952392,0.38937393610666654,2.667223690942857
18.482544,-0.7734803471747618,0.1844372068142856,0.28819298816857136,2.4811117602761903
18.4993449,-0.6345433734128572,0.4986954416714285,0.19136613394952376,2.3264763715142855
18.5161563,-0.44760844815095235,0.7726251965761903,0.12241610247333327,2.2411352178952377
18.53296593,-0.2193830580080952,0.9743260201999998,0.06656645666380948,2.2409389996095235
18.54977253,0.02905037295857142,1.0899339630761904,0.02682365193047614,2.320783257847619
18.56657741,0.28736509599666665,1.1550070217714286,-0.004814760317142906,2.462916753990476
18.58338712,0.5628937086014286,1.1798949695809522,-0.02705331146952386,2.6523954821904763
18.6001972,0.8565816425538095,1.1901161103047617,-0.03919333006952386,2.8342324031904758
18.61700481,1.16487244203,1.2184649195047619,-0.037626795117142904,3.0003105662380953
18.63381098,1.4883904457442856,1.2478259858666665,-0.023864840469523856,3.1647423045238092
18.65060852,1.8262268248395237,1.2408338274333333,-0.022011136017142906,3.326741342761904
18.66742918,2.1834130060300003,1.129546846652381,-0.04722361905523814,3.511711857095238
18.68423585,2.5495055062680954,0.8951864015571426,-0.0791153297571429,3.7197852358571426
18.70104439,2.8769662494109522,0.6601983933666666,-0.1097797751476191,3.860029731142857
18.71785108,3.155256907172857,0.5192899704476189,-0.1521121490619048,3.9410876183809527
18.73466024,3.3907893953252377,0.49543085559047606,-0.24319436155238097,4.02518513852381
18.75145488,3.580778133344286,0.5312412807333332,-0.35751018922380956,4.132683178380953
18.76827876,3.763737962387143,0.5423394839238094,-0.46695791115238094,4.244467455904761
18.78508505,3.917787585952381,0.499635605590476,-0.5469911212333334,4.334959655952381
18.80189415,4.027554455285714,0.4316836765695237,-0.5818380373238096,4.407609286761904
18.81869758,4.085149594714286,0.37996571403619034,-0.5871383519761905,4.450858026095237
18.83550711,4.0875736758571435,0.34533273605999987,-0.5558029612285714,4.444017770857142
18.85232132,4.03579840204762,0.3388088317076189,-0.5049832662333333,4.409053003285714
18.86912416,3.926826238619048,0.35688495637428563,-0.45521933980476187,4.351277542095238
18.88593348,3.7718977587380955,0.3812497002742856,-0.4092899164238096,4.259710088333334
18.902747,3.5610546725190475,0.42887462887428557,-0.3731198879285714,4.145011725761905
18.91955067,3.3094704378476187,0.47121667860761884,-0.33397855651428576,4.0062769578571436
18.93636086,3.029060261604762,0.4812627292695237,-0.27896038412857144,3.8415767739047624
18.9531686,2.7251731441285716,0.4534082866742855,-0.1972755109,3.6842167787142857
18.96997574,2.406980276128572,0.3931122280171427,-0.10320887968571431,3.534968290428572
18.98678937,2.0705108302238093,0.3227325393933332,-0.010595148576190488,3.3941948724285718
19.00359042,1.7229877086047616,0.2799701009361903,0.08424586902857142,3.263413252571429
19.0204012,1.3529858702714284,0.30630191169809506,0.19668239063333331,3.121638954857143
19.03721377,0.9669063091285712,0.3940666970790475,0.3060960399857143,2.951807156095238
19.05401641,0.6065445287,0.43234200703142844,0.40883271175714286,2.8427537008571426
19.07082436,0.2735303583666666,0.35005587623619033,0.5168791355714285,2.809325131619048
19.08763406,-0.0341516563,0.11721551985523794,0.6679350562857144,2.797805209
19.10444282,-0.29882337934761904,-0.22310563495428584,0.8588321406666666,2.801524009095238
19.12124791,-0.5667887869190475,-0.5724936440019048,1.054633989142857,2.8441750989047616
19.13805717,-0.8251101175857143,-0.8801690737638097,1.2446937759047618,2.943069275904762
19.1548677,-1.0665566807761904,-1.1386595680761906,1.3999135408571428,3.0804760664285715
19.17168882,-1.2777860505380951,-1.394253594557143,1.5193050389666667,3.256414458619047
19.18848316,-1.4516139484904762,-1.6751409712476193,1.6055334153,3.467103936095238
19.20528718,-1.5984446435380952,-2.0146986870857146,1.6675992011428573,3.702828953190476
19.22209597,-1.7304338955380951,-2.4062886238476193,1.7112121411428571,3.957832126238095
19.23889567,-1.8653395517047617,-2.7852100418,1.7428116628095238,4.212741362809523
19.25571816,-1.9865437916761906,-3.1129170372761905,1.7786121709047618,4.430682176285714
19.27252374,-2.079833462147619,-3.3679510525619043,1.8117192983333334,4.599679427238096
19.28933297,-2.1439950352857142,-3.5482538768523813,1.8264202049523808,4.731532756857143
19.30614588,-2.1860046387142855,-3.695975939457143,1.8026527932333334,4.837722752904762
19.32293584,-2.2271258945238097,-3.8206180163952377,1.7383630048380954,4.929210710666667
19.3397571,-2.269353344380952,-3.920956611647619,1.6377987265333336,5.007214578190475
19.35656266,-2.326566332904762,-3.983405521952381,1.5208724424857143,5.073629627285714
19.37337503,-2.3794914881904763,-3.979568345238095,1.4000853073095239,5.103187149380952
19.39018019,-2.409882204904762,-3.9066356023243807,1.2962216706619047,5.09020548295238
19.40698915,-2.406146276619048,-3.7720149812339048,1.2062252462,5.043841869761905
19.42377677,-2.3651683444285716,-3.596914813662476,1.1089844867014287,4.963801914904762
19.44061653,-2.2974312873333336,-3.3722000349481904,0.9910206844538096,4.858611080904762
19.45741324,-2.1928866023385716,-3.0944747925196188,0.8669863606109525,4.713936175047619
19.47421825,-2.067890575995714,-2.769273780662476,0.7458183247585715,4.548337454714286
19.4910346,-1.921144371962381,-2.414344855710095,0.6199934135157142,4.375493007857143
19.50783877,-1.7513571921052382,-2.057962281376762,0.5003875444538095,4.209449871666666
19.52464628,-1.569737457105238,-1.7046124367577142,0.37754667162047617,4.0423123589523815
19.5414576,-1.3658105078195237,-1.3494352840434285,0.2608177087442857,3.8875102753333333
19.55826293,-1.134017104200476,-0.9711301667577145,0.15477598780714286,3.731199488571429
19.57507165,-0.8721354575338096,-0.562069461472,0.06100934957857143,3.567300980142857
19.59187858,-0.5680920282957143,-0.1728898457100953,-0.020482445754761904,3.427596087571428
19.60868856,-0.21228529158142853,0.14213001162323802,-0.0973629007642857,3.353139473238095
19.62549758,0.1738242421804762,0.37000637964228567,-0.16311445332619046,3.365548513047619
19.6423031,0.5811468306090477,0.5456991876994285,-0.2041711828357143,3.462015577047619
19.65910044,1.025763330037619,0.6810282298565713,-0.19182670895,3.6119771880952385
19.67592617,1.5081931523233334,0.7889308248232381,-0.11315700479285716,3.7948272052857144
19.69271873,1.980658531228095,0.9572930335946666,-0.004332521821428578,3.955258049142857
19.70952636,2.4645304452757144,1.1363473165470477,0.0930437055595238,4.109856951666667
19.72634195,2.9467144920852384,1.2344319025470474,0.1490045225547619,4.271667124666667
19.74315552,3.408248469942381,1.2263703118999998,0.13994660053095237,4.457036233142857
19.75996904,3.8135652769423807,1.1433253969285713,0.06963176885000001,4.641792185809523
19.77676638,4.124473185751905,1.0794324420571428,-0.034519951937142856,4.796333344761904
19.79358038,4.363890261847143,1.0632326489142856,-0.14172596730857143,4.931693427190477
19.81038958,4.531312919757143,1.0816862696285714,-0.2450044580847619,5.068349501047619
19.82719523,4.668386175461905,1.085576602342857,-0.3405879636609524,5.186822461666667
19.84399853,4.784764936952381,1.0341368856285715,-0.4311102018466667,5.277344588619048
19.86081526,4.863852739285714,0.9471525237190475,-0.5103133774990476,5.333446566285714
19.87762088,4.895042044714286,0.8565761928985713,-0.5579440764276191,5.3410516645238095
19.89442671,4.868327606238095,0.7735863639795236,-0.5791545354466666,5.2886629682380955
19.91123422,4.776549146238096,0.706997144765238,-0.5851114264838095,5.176815043142857
19.92804452,4.636212223990476,0.6565226599890476,-0.5809112035409524,5.034885448823809
19.94485301,4.465588717161904,0.6139818826795237,-0.569539351155238,4.872941852314286
19.96166293,4.248336099361905,0.582852454365238,-0.5687253532314286,4.670513777176191
19.97846742,3.989292224151905,0.578222024960476,-0.55095324066,4.450179477414285
19.99526467,3.6889457588066668,0.5547816866461903,-0.5209664617695238,4.203459955652381
20.01208413,3.3296625158876187,0.5588737214842856,-0.5082442562219047,3.922866865652381
20.02889189,2.928018240601905,0.5679730914414285,-0.5344121456695238,3.615286033176191
20.04570352,2.5378260270780952,0.4804472241461904,-0.5720660573361905,3.3421753655571433
20.06250794,2.1431242737447618,0.3435392606223808,-0.5925841445552381,3.088574068366667
20.07930529,1.7406487350304762,0.22153795328904752,-0.5711881376980953,2.868676090890476
20.09612562,1.328462248649524,0.139730090165238,-0.49597552566,2.676593375985714
20.11293063,0.9341466652685714,0.06799134752238083,-0.3603232787076191,2.5300833505571427
20.12973951,0.5824556690304762,-0.06356078103476202,-0.17982875451714286,2.4589137091285713
20.14654292,0.2684266566495238,-0.29293718793952395,0.03655349357809524,2.44297335722381
20.16335348,-0.022418078969523796,-0.6002247447014287,0.2650715936257143,2.4690111090809523
20.18015128,-0.31467655730285715,-0.9437045142728573,0.49627353753047615,2.5461616851761906
20.19696327,-0.6268885022552381,-1.2795542081300002,0.7343830693876191,2.683036532414286
20.21378538,-0.960589704112381,-1.5836203438871428,0.9502353526733333,2.864115654652381
20.23058657,-1.275262333112381,-1.878792626495238,1.1227241159114285,3.0948481816047617
20.24740465,-1.5526678221599999,-2.1856735092904764,1.2495806955685713,3.3691991096047618
20.26420866,-1.7772124835409524,-2.5191439900761905,1.3291391446857144,3.6798106563666666
20.28101637,-1.9550745373885714,-2.8866559891095243,1.3700585819714288,4.002844570304762
20.29782103,-2.1058552151790475,-3.271179607895238,1.3716930009380952,4.334613971433334
20.3146367,-2.229537101045714,-3.650767485247619,1.3324577751952382,4.681019776761905
20.33144193,-2.34874732155,-3.9812501271,1.259834698304762,4.969698994761905
20.34824898,-2.447221415395238,-4.16825655522381,1.2288921163619047,5.136274335285714
20.36505667,-2.488689150142857,-4.239404837219048,1.2705125071238097,5.219677333
20.38186608,-2.4676129931619046,-4.243511336119048,1.367071007047619,5.2993970638571435
20.39867401,-2.4039040066,-4.197756358466667,1.4836988478095239,5.371115431380953
20.41548101,-2.3268339520333337,-4.140504746114286,1.572719826647619,5.3980171897142855
20.4322899,-2.24742517016,-4.087253116347619,1.647196358209524,5.397950266333333
20.44909822,-2.1453419639838094,-4.045841943585715,1.69185450822381,5.365717337666667
20.46591103,-1.985762437174286,-3.9881553876333338,1.7019139784142856,5.309646969285715
20.48271424,-1.7884124801266665,-3.860008580288572,1.680846608842857,5.217291312666667
20.49952325,-1.5565589723171427,-3.6288824307647625,1.5789247928619048,5.126380903952381
20.51633204,-1.333987372269524,-3.2950948986695243,1.3965216825285713,5.0521540611904765
20.53314452,-1.117334002555238,-2.8621604554790476,1.159084105052381,4.995968780238095
20.54995817,-0.8879662922695237,-2.3673230124314286,0.8922950433857143,4.921029303380952
20.56676711,-0.6195304053171429,-1.8766213370504763,0.6279323789571429,4.8223654283809525
20.58356113,-0.31755605198380954,-1.4149362018123812,0.390666565052381,4.691821210904761
20.6003512,0.005358275920952378,-0.9751578511933335,0.21167894848095242,4.532934874428572
20.61717944,0.33293172292095236,-0.5285837536219049,0.10251266693333341,4.373374535333333
20.63396864,0.6513235569209523,-0.06193249562190495,0.050217436260000047,4.2191186086190475
20.65079685,0.9601025241114285,0.42663090571142837,0.051463275517142915,4.069772344190476
20.66759352,1.2609700703019047,0.9392721766638095,0.1126943721028572,3.938966778142858
20.68441199,1.5663549559685712,1.4130928857114284,0.18545147429809528,3.8615337602857145
20.70122268,1.867406118492381,1.7484458287590474,0.18879614068857148,3.889822832142857
20.71802907,2.1455023629685717,1.9348720822828571,0.08957882232952386,3.983952491142857
20.73483799,2.3879355930352384,2.019219330354286,-0.08619198268952376,4.073988800428571
20.7516447,2.6053565343304763,2.0331147284495237,-0.2894419991657142,4.164042441619047
20.76845862,2.831923053382857,2.0164797419352376,-0.4629393013561905,4.29435228252381
20.78526213,3.075360320890476,2.032529058887143,-0.6138041636038094,4.434341768285715
20.80206942,3.3160236676666663,2.1131730306395236,-0.7229688287704761,4.590483297428571
20.81887964,3.5202609016666666,2.200119086639524,-0.7932248434242857,4.752509270571428
20.83568845,3.7163767360476188,2.178486142804285,-0.8389221805290477,4.934532928571429
20.8525032,3.8983489672380953,2.0009701365185713,-0.8430044125338095,5.112131399428572
20.86930248,4.0788451603333336,1.7130345389471426,-0.7987371384576191,5.243736441333334
20.88611281,4.226010345285714,1.4253904024233333,-0.7253033078385714,5.254564326285715
20.90292532,4.341383525333334,1.218665191054762,-0.6301240736480952,5.186951668666667
20.91972809,4.432858194666666,1.0818554787214285,-0.5165537837052382,5.1142078614285715
20.93653519,4.499179124857143,0.9705068951499998,-0.40533006760523815,5.0615835780000005
20.95334411,4.532114312761904,0.8439562207261903,-0.3392434333242857,5.0211234945714285
20.97015465,4.518719287142857,0.6881967045309522,-0.3301949572195238,4.960131019
20.98694888,4.458412408857143,0.5076014655357141,-0.35839134030809516,4.864943278857143
21.00376818,4.348564954047619,0.325183255392857,-0.39920880541285714,4.722999328714286
21.02057033,4.203913620552381,0.14141443802619036,-0.42475821435095235,4.5283511492380955
21.03738674,4.028820264938095,-0.02885421112428584,-0.41531340425571434,4.321427965485714
21.05419491,3.8210573651000006,-0.16421165915285726,-0.38261500570333334,4.132461374057143
21.0710011,3.577187174866667,-0.2604411215361906,-0.3238683669633333,3.9574438779142858
21.08780718,3.3033071245809524,-0.32503107608857157,-0.24201812491571428,3.7912332485333335
21.10461994,3.0007705915809524,-0.376030059017143,-0.15672337586333335,3.639354849438095
21.12142034,2.6690029417238095,-0.4387455439980954,-0.06706050041571425,3.5178829139142858
21.13823265,2.3054390862,-0.5447274843357144,0.013457722574761924,3.4318482781523807
21.15504696,1.9129474276761906,-0.7147068522785716,0.08064976189380954,3.3751462948190474
21.17185384,1.4855030605333333,-0.8925212678023811,0.13817539950000002,3.334149526533333
21.18863986,1.0258622170095237,-1.0116269928833335,0.19769369131904763,3.2968026662000005
21.20546414,0.5408009574857143,-1.0457564989785717,0.2831178108285715,3.2389195445333336
21.22227979,0.05987353558095242,-1.0274970190738097,0.3872665677047619,3.1792044918190476
21.23908455,-0.37604363756190473,-1.0545722189309525,0.5150736626571429,3.178621053342857
21.2558911,-0.7800622440380952,-1.2087660062766667,0.6501267353238096,3.249194202914286
21.27270093,-1.1600034350380952,-1.4826239631338098,0.7756946341904761,3.3644808240571433
21.28950793,-1.5394026211333334,-1.798118432371905,0.8905423552809524,3.523516609342857
21.30631791,-1.9150809333238097,-2.095624946424286,1.0037081751904762,3.721056179580952
21.32312431,-2.252036094657143,-2.3773467427528576,1.1308284514904763,3.9517588071047616
21.33993249,-2.52288650332381,-2.6634561448052385,1.2690682070142858,4.218938805866666
21.35673916,-2.7230172384666664,-2.954579807471905,1.3979597233190477,4.5127321302
21.37355118,-2.8486825398285713,-3.2818227949623813,1.4858423527857143,4.841173929104762
21.3903568,-2.906429154557143,-3.6649472145738096,1.5376942214238094,5.195620521761906
21.4071666,-2.911973748914286,-4.064562684021429,1.5768599226142856,5.5414767485238094
21.42397733,-2.872733184295238,-4.39982782092381,1.6215465977095238,5.825043502
21.44078154,-2.8047650882380952,-4.596762316561906,1.6839746094904764,5.99439979152381
21.45759261,-2.7084717069333335,-4.654889356523809,1.767193834009524,6.0613109597142865
21.47439983,-2.5848581904619046,-4.610451766423809,1.833172854942857,6.044799437761905
21.49121315,-2.4139386586047618,-4.532621224700001,1.8528845140095238,5.965899117380952
21.5080028,-2.207329636557143,-4.451185226414286,1.8238972141809526,5.855438840952381
21.52482425,-1.9936656271285718,-4.358505703128571,1.7693082718780002,5.700892278380953
21.54163267,-1.7724999927952383,-4.247340542885714,1.7025452511960952,5.5081745516380956
21.55844112,-1.5465555872619046,-4.123218422795238,1.639730811158,5.293029922866667
21.57522916,-1.3199208805142857,-3.9680295898523816,1.5899281615818093,5.077537892223809
21.59205568,-1.0999478840095238,-3.785809153566667,1.5422064406913334,4.892856071747619
21.60885196,-0.8778860001761906,-3.548690546090476,1.4889979135960953,4.714598170890476
21.62565905,-0.6584179061333333,-3.228264536138095,1.4326324974341904,4.524731912604762
21.64248178,-0.42641110651428576,-2.8487179392809527,1.379146363105619,4.3117987266523805
21.6592882,-0.17606058580476194,-2.4450443131380952,1.3190885073389524,4.076836389747619
21.67609966,0.06190547485238093,-2.012230032947619,1.2270282237960952,3.8354891201761907
21.69290527,0.28647497718571424,-1.553741909185714,1.1006043482960952,3.5903876802238095
21.70971818,0.4914014679952381,-1.0830790655666667,0.9512962089246667,3.369819401795238
21.7265208,0.6637921560428571,-0.5934031122809523,0.7944090466389524,3.161124831985714
21.74332972,0.8132071041000001,-0.06370022180476191,0.6409787550675239,2.9459977382714286
21.7601381,0.9506688799142857,0.4773515520047619,0.4888526017341905,2.744294159604762
21.7769359,1.0738720439571428,0.9708075069571429,0.34343916891990484,2.614029826604762
21.79376575,1.2107950391857143,1.3579433986238096,0.1943968322056191,2.6165709580809526
21.81056349,1.3733571370238096,1.6168360256238097,0.044624375472285746,2.711214632414286
21.82736813,1.5585123697904764,1.7877225194761905,-0.09002460039914281,2.8601858735571426
21.8441812,1.7507044020285714,1.907598995038095,-0.18845320170866664,3.0394773018904764
21.86099482,1.9542453402666666,1.9835204851190478,-0.2536308069848571,3.2263368625571425
21.87779594,2.1945686567428573,2.019224757252381,-0.303654867967619,3.4505580621761904
21.8946044,2.458423137647619,2.046827679603295,-0.3489440324666666,3.7089607300142853
21.91141388,2.732242652352381,2.0846934091652,-0.3941928531333333,3.9811918780238096
21.92820752,3.025847866414286,2.085333892293771,-0.4344911830619047,4.257424094476191
21.94502923,3.3359548931952383,2.023100648600914,-0.46677532932380944,4.512758972285714
21.96182504,3.6243693260761907,1.938297317132343,-0.5133844727428571,4.720679711333334
21.97864794,3.8657778330809522,1.884373006370438,-0.6144734166761905,4.876301720809524
21.99545419,4.063158807271428,1.8738709177513908,-0.7730282516333333,5.02077182052381
22.01226022,4.228586787228572,1.891505695513295,-0.9490480451047619,5.172954738761905
22.02904933,4.398251261,1.8724872498466283,-1.102328562990476,5.316095649333333
22.04587938,4.543904213666667,1.8080830574180569,-1.2252952669190478,5.4312468250476185
22.0626736,4.656488305,1.6890535127561521,-1.313749192690476,5.499231830857143
22.07949312,4.744315715000001,1.5051504316609141,-1.348869231452381,5.532340969952381
22.09630245,4.813361417619047,1.260818322470438,-1.3188186614190476,5.548890018761905
22.11310697,4.8317618369523805,0.9988644690418667,-1.2465432896285715,5.528985671142856
22.12992923,4.7968441417619045,0.7553907348990095,-1.1300211648142857,5.458872630904762
22.14672866,4.704438345714285,0.5251666478037714,-0.9739958203857142,5.3607628844285715
22.16353268,4.547113100609524,0.3421362922513905,-0.7947722545571428,5.260468503761905
22.1803412,4.3347000166528575,0.1917855853418666,-0.6015324691619047,5.159904613952381
22.19715631,4.059834798090952,0.09828926270853332,-0.4150086172809524,5.044040617
22.21395882,3.7289254550909527,0.057820297451390446,-0.2560093274714286,4.894282190857143
22.23076944,3.36253465918619,0.0221622785085333,-0.1244190859952381,4.723125018952381
22.24757673,2.965030170567143,-0.05016102108523812,-0.023091547480952396,4.550177347761904
22.26438419,2.5475327173290476,-0.16759089059476193,0.04997144007619047,4.394600635333333
22.28119142,2.111530780757619,-0.3250259217614286,0.11001771979047618,4.264262678380952
22.29800169,1.6474215870433333,-0.46612417130666667,0.17245531656190477,4.15098853652381
22.31481057,1.1962600662338094,-0.6139076323619048,0.27756934798095234,4.077635803238095
22.33161816,0.777274903805238,-0.8255165417904762,0.4666562052666666,4.060850930809524
22.34842486,0.3742983000433333,-1.1001447723142856,0.7265052654095239,4.0678649237619044
22.36523491,-0.025128659766190525,-1.4318068367904762,1.0221620600285715,4.100414344714285
22.38203217,-0.435422443242381,-1.788284392552381,1.320125236504762,4.175149580190476
22.39884916,-0.8416914940519048,-2.1525590306,1.6060165309809524,4.309740190285714
22.41565819,-1.2359290804804761,-2.5033927871761907,1.8722534379333335,4.503288755619048
22.43246588,-1.6245573362423809,-2.799909137509524,2.0982235358857144,4.728453180142857
22.44926412,-2.0139134044328575,-3.0296954427,2.2626135577095234,4.9445503648095235
22.46608202,-2.351794583528095,-3.235754308176191,2.3948995556809525,5.165024377761905
22.48289105,-2.612043176432857,-3.494833650985714,2.4636949699190476,5.421387641238096
22.49969996,-2.7969066075280953,-3.8223709832714285,2.4446344490142855,5.690974030857143
22.51648925,-2.9063705036138097,-4.197852089242857,2.3507557597285715,5.9534015932380955
22.53331453,-2.9625668072285714,-4.526966390095238,2.2513924894428574,6.14826150047619
22.55011188,-2.968479974004762,-4.773229258319047,2.2039025965857144,6.271611649285714
22.56692837,-2.9222156434380953,-4.916084834428571,2.2359900929190477,6.361939510761904
22.58374006,-2.823113804842857,-4.975579216285714,2.322836331014286,6.441277782714286
22.6005514,-2.6842187700428575,-4.970754577904762,2.4315312136333334,6.490465760238097
22.61735711,-2.5344609306761905,-4.919474033995238,2.5233076868285713,6.4797240225238095
22.63417251,-2.387116273333333,-4.840370632280953,2.564644563809524,6.398359442571428
22.65097671,-2.227022125695238,-4.763975756423809,2.554989570714286,6.2748256022857145
22.66778058,-2.0571665764761904,-4.692587579947619,2.484655692504762,6.126114481714286
22.68459014,-1.8722186543714283,-4.586224578614286,2.348822826476191,5.9270638553333335
22.70140002,-1.6623276302666667,-4.435341221866667,2.174075424704762,5.690300895509524
22.71820402,-1.4017383031238093,-4.230028470285714,1.9979098297428572,5.446042484319048
22.73501056,-1.1222194490761903,-3.9302048001428576,1.8136603207714286,5.194237448366667
22.75182654,-0.834651061552381,-3.5361293383333328,1.5940310217238096,4.949777570795239
22.76863172,-0.5287227858380952,-3.08015839252381,1.3358698515809524,4.7256728236047625
22.78543852,-0.20798991983809526,-2.5859628631428575,1.0589971826285716,4.529258294652381
22.80224551,0.1317215873047619,-2.087000528904762,0.7851024866285715,4.359805296890476
22.81905681,0.4764114560666667,-1.5947378476190477,0.5252604087238095,4.211815750366667
22.83586465,0.8046739895428572,-1.0654250553333335,0.2880952528190477,4.080824453557143
22.85267128,1.1110293524000001,-0.48633223485714305,0.09681536467619056,3.9575377047000004
22.8694804,1.3933701968761905,0.10022833233333317,-0.041654671942857054,3.8369894128428577
22.8862746,1.6650097710190477,0.6107416607142856,-0.16845239341904752,3.7687850662714286
22.90308416,1.9323793365476187,1.010569890333333,-0.31609522727619044,3.7769651256047623
22.91990414,2.2003138405523806,1.300770646047619,-0.4941903551285713,3.8466080337000004
22.93670937,2.452313014385714,1.5109585353333332,-0.6830937578380951,3.9373583763666664
22.95351851,2.6978012947285714,1.6563026564285714,-0.8491643908509523,4.0546321281285715
22.9703069,2.9647723605999996,1.762408370042857,-0.9743688000290474,4.223816642985715
22.98713767,3.256432419685714,1.8652354876142856,-1.053251946962381,4.440948062509524
23.00393137,3.552329335857143,1.976846013752381,-1.087831927905238,4.673109153842857
23.02075643,3.8208804130190477,2.123101189038095,-1.0667158131099999,4.893571575747619
23.03755925,4.062337739104762,2.2506112144190475,-0.9860999463671427,5.12167684274762
23.05436683,4.2844118844761905,2.3088359605809523,-0.8756970756433333,5.346494721238095
23.07118266,4.459054061333333,2.2862333116142857,-0.7913184670147618,5.527663228571429
23.08799056,4.599695069428571,2.1693380446619046,-0.7291938513909523,5.6602753761904765
23.10479791,4.695544538047619,1.9968117078047618,-0.6571390565419046,5.713427661809524
23.12160584,4.726585706095238,1.8537712324095237,-0.5645041970180952,5.6518673451904755
23.13842,4.723195144142857,1.7522831644285715,-0.46002386233714276,5.539719931571429
23.15522294,4.709086213809523,1.6623150507619049,-0.36056421986571424,5.429996000999999
23.17202663,4.696233386095238,1.5247118359761902,-0.2905964078276189,5.32223126195238
23.18883677,4.683371316809524,1.3154095013999998,-0.24337497425619037,5.214537302190476
23.20564645,4.659812291428572,1.0571720032571426,-0.18723215307047614,5.103906346380953
23.22245436,4.609802904571429,0.7963505699714284,-0.11467577377999995,4.985981212809524
23.23925921,4.527848561619048,0.5854403177904759,-0.013060696822857095,4.8502318766190475
23.25607015,4.409612769190476,0.4469517071952379,0.11409939822476196,4.708982768380952
23.27287613,4.246554760714286,0.36386921290952357,0.25506929055333344,4.568586257809524
23.28968557,4.04554453352381,0.32177786600476166,0.39337678531047626,4.426736436761905
23.30649263,3.8142295792380954,0.29170288357619023,0.5182048642280953,4.270546629142857
23.32330145,3.5489772161333337,0.24166985919999973,0.6330060262633334,4.086047294047619
23.34010978,3.2468307359142856,0.15951420011904738,0.747002218387143,3.8905243523809525
23.35692815,2.926397755052381,0.043032260171428346,0.8606118786157143,3.7204227974285713
23.37371418,2.616104466590476,-0.1320445196857145,0.9689900391728572,3.603071839047619
23.39052296,2.3120284988809523,-0.3348607108761907,1.0666330683157144,3.5286701143809527
23.40734267,2.001823516119048,-0.5161558105952383,1.1715098023157142,3.495679424761905
