Time (s),Linear Acceleration x (m/s^2),Linear Acceleration y (m/s^2),Linear Acceleration z (m/s^2),Absolute acceleration (m/s^2)
0.354104129,-0.1778592279352381,1.1464767100761906,0.20668206895904764,1.5417932780999999
0.370906719,-0.12596895686714285,1.0923510860333334,0.23063582465428575,1.4672860159619046
0.387720998,-0.057444198848095235,0.9717746390904762,0.2928419113114286,1.4501630156285714
0.404529022,0.02121030471380953,0.797704314852381,0.3529876527066667,1.4890635626761906
0.421334104,0.09248436102809525,0.6049743819476191,0.38117994578285713,1.5629281484857143
0.438129809,0.14342888801857145,0.42800178837619046,0.39096269150571433,1.6225734492
0.454949101,0.19462545892333333,0.26568215656666666,0.35235936300095244,1.6214127243904761
0.471755609,0.25259593734238095,0.11678237430952382,0.2810105823419048,1.591356870057143
0.488557763,0.31612089881380956,0.005236462457142861,0.21370270141809528,1.5807457081047618
0.505356925,0.3837371898233333,-0.06304545773142857,0.19482712521333334,1.5764983661999998
0.522179067,0.4364243153947619,-0.10956550923142858,0.21793815070380954,1.5873459173428572
0.538996592,0.48608793289,-0.1740474885552381,0.2919380551561905,1.6584170555904758
0.555792539,0.55223061859,-0.30757771360285713,0.3741921924657143,1.7403220063047617
0.572603075,0.6153815580804762,-0.4613305287457143,0.3904116948704762,1.7642977753047622
0.589407487,0.6674941501995239,-0.5821906654361905,0.3281009765180953,1.7627221961619048
0.606215651,0.7111937723566667,-0.636711117764762,0.2308858463038095,1.7979328266380954
0.623020745,0.73078798402,-0.6266459851219048,0.10325913205619049,1.8731706660190477
0.639830913,0.7420548343104763,-0.5934379980647619,-0.03901508870571429,1.8998938241142855
0.656638041,0.7481475643295238,-0.5388204228219048,-0.16025075453904764,1.8688634588761903
0.673444986,0.7480502469723809,-0.46779873112666664,-0.2413959502552381,1.8375948147333334
0.690250791,0.7523925773247618,-0.41933091052666666,-0.2724088032409524,1.847864304219048
0.707058844,0.7662888595538094,-0.40546914932190475,-0.24690691623509528,1.8513938526190479
0.723867763,0.7637916605179048,-0.38244438877904763,-0.24110217314985716,1.873164576304762
0.74067491,0.7120097081369524,-0.30132557235523805,-0.2818195251550953,1.8438179324190476
0.75747859,0.6289569111369523,-0.15601180416476193,-0.3350938160355714,1.7794951672285715
0.77428934,0.527529004108381,0.027318890644761926,-0.3960907798974762,1.7092278369428573
0.791095287,0.43878896182742855,0.2010589370257143,-0.4183827808060477,1.6645111933238095
0.807904378,0.37954454056076187,0.3262467597876191,-0.3843552724965238,1.6383928863714285
0.824710629,0.3160996139464762,0.42522106718761904,-0.3237956364441429,1.629731426085714
0.84152434,0.22011505282266663,0.5229534947542858,-0.247576486467,1.6409443963714285
0.858327408,0.11401620791790473,0.6133042503714285,-0.20607939217652382,1.6732037534190478
0.875134138,0.0044097318226666475,0.688212904247619,-0.20125852309557146,1.7020836406571427
0.891940137,-0.10541998349638096,0.7535746339333333,-0.22673729485747623,1.6755298383238095
0.908748476,-0.20913565870590478,0.8430696797238096,-0.23164272304795241,1.6381433772761904
0.925544953,-0.3032180738154286,0.933850301204762,-0.18381931662414286,1.635852076942857
0.942363718,-0.39116800828209525,1.0004378543428571,-0.05693812590033333,1.658508283085714
0.959169981,-0.47124218802019047,1.0261076490476189,0.12271438333776191,1.6597829365142855
0.975978879,-0.5204702715392381,1.0203896506190477,0.3486267272425238,1.665512025561905
0.992788783,-0.5518391146868571,1.0034013504761905,0.5586185001949048,1.706638926704762
1.009591527,-0.5705955710059049,0.9704950651142857,0.7715211596472857,1.8279737391809523
1.026388604,-0.551858481948762,0.9192564771680952,1.0063353947920477,2.0088213604190477
1.043213686,-0.4905470965011428,0.8637594893252382,1.2271943319968095,2.1981401956952378
1.060012125,-0.46578970131066666,0.7889118422014285,1.3896105630719047,2.330172232804762
1.076816711,-0.48412825952857136,0.64313808513,1.4510384514771428,2.4236890327333334
1.093635965,-0.49167872899523807,0.41986182479190476,1.440139498082381,2.5721580198095237
1.110436774,-0.45573454532857144,0.14694228345857147,1.369495618962857,2.748376938904762
1.127247066,-0.38322732851428565,-0.10643141887476187,1.2611231804533334,2.9078554223333333
1.144048182,-0.29590589097142855,-0.2991115620652381,1.1080389931628571,3.054978548095238
1.160862216,-0.20885355420952378,-0.43230000277952374,0.9156298183771429,3.2183852921428575
1.177668073,-0.10592340578095236,-0.5419432691128571,0.7154378891342856,3.367214339952381
1.194475242,0.006890401885714315,-0.6592618936461905,0.5209898494904762,3.474383593
1.211283741,0.09526204487619051,-0.7848621521509523,0.3683141526904763,3.534011361428571
1.228090422,0.1751828590428572,-0.8873196130366665,0.22712055845238097,3.579111322190476
1.244884325,0.23866948053809525,-0.943028542222381,0.06484024869047623,3.609457325380952
1.261705653,0.27873217911904763,-0.9857865926414284,-0.10771394907142853,3.59828105047619
1.278514186,0.30721932501904764,-1.0396977165985715,-0.2671177046428571,3.581827190047619
1.295320753,0.3404576054142857,-1.0926434922414285,-0.3882541429380952,3.539684131428571
1.312126894,0.385123025752381,-1.1304984816099999,-0.4806322143190476,3.449012588228572
1.32893334,0.42879284274761914,-1.128846734752857,-0.5806281907428572,3.3741093476095236
1.345740579,0.4588425740857144,-1.079765068657619,-0.6819303376619048,3.3386514371333336
1.362562946,0.4550099088619048,-0.968164751962381,-0.8097500347095238,3.2994709501333337
1.379344653,0.4157798886,-0.8346735480638094,-0.9447632517095237,3.2235163842285717
1.39616236,0.3571793890952381,-0.7246901719733333,-1.0749050548999999,3.120431083038095
1.412965967,0.343315291952381,-0.6155517513352381,-1.1900990577000001,3.0379815614190475
1.429780317,0.3739931909571429,-0.42445813619238093,-1.2258193833428572,2.9948296930857143
1.446594922,0.39606043481238096,-0.15137370576380946,-1.1765321776904762,2.900140036371429
1.463392122,0.3705394118790476,0.15402903861714287,-1.1048860776905716,2.7511696316571426
1.480218566,0.3039402869266667,0.4232957972361905,-1.0269791739286667,2.6131711193714287
1.497009164,0.2114796347171429,0.6354096601885714,-0.9477407818810475,2.522538733847619
1.513808347,0.10896927894095242,0.8182404593790477,-0.8482176689762857,2.4510652831809523
1.530619482,-0.007764396963809494,0.9826405941409524,-0.6922435760239048,2.366180798609524
1.547434687,-0.11982615863047616,1.1305290331980953,-0.5203676450572382,2.287110966514286
1.564241754,-0.20764482381142854,1.2671769785600002,-0.31574208391438097,2.24580909727619
1.581043643,-0.2772424228638095,1.3732724004457144,-0.06219652715247624,2.262253525038095
1.59785081,-0.3030929913638095,1.4314447697361905,0.22093879613323802,2.331662157704762
1.614655985,-0.29411916155904755,1.460462814209524,0.47083339241895233,2.4098992398
1.631465819,-0.19671105987333332,1.4014332974952382,0.7793498493713332,2.5976070330380954
1.648278124,-0.05968441498285711,1.2763104012142859,1.0880001840475237,2.87538758627619
1.665082331,0.046136577155238126,1.1386284514923812,1.3311197417618092,3.1508461833809527
1.681887924,0.05314012291238098,1.00284252554,1.503532296185619,3.3017875379523813
1.698700138,0.023733034664761933,0.8024864167304764,1.7029487292475238,3.443794705285714
1.715503359,0.03551670263619051,0.5326112876828573,1.767145406676095,3.4694904605238097
1.732318482,0.07443105670761907,0.2673643968257144,1.7112655866951432,3.4539628696190467
1.749117382,0.16116742926000002,-0.014447464936190388,1.6242832229560953,3.540802563095238
1.76592759,0.27204509356952383,-0.2884804039838094,1.4263921011370475,3.7384105115714283
1.782734739,0.3204038334171429,-0.5410383969361904,1.254143328922762,3.8868878226190473
1.799530565,0.43397682759523815,-0.7602363229838095,0.9485507692941905,4.116124815428571
1.8163523,0.5613051127666667,-1.0511370642695237,0.82249530158,4.298245886238095
1.83315542,0.6053022706619048,-1.3493521072219046,0.7620572589609522,4.4510640316190475
1.849963493,0.6378903580523809,-1.5630940397933333,0.7495510010561903,4.491935953333333
1.866772126,0.6628879642238095,-1.8065151402219048,0.6859851337704761,4.560734304904762
1.883582164,0.7519785385761905,-1.5775975528409523,0.6477201552942857,4.774275969
1.900373899,0.9549959607190476,-1.3675401466504762,0.4824461028990476,5.047875475761905
1.917195066,1.116021660861905,-1.2107723242219048,0.3226352192323809,5.230328854238095
1.934003639,1.175492192347619,-1.110953901555238,0.13318590889904758,5.270217736809523
1.950800297,1.0966191881,-1.1942294297409524,0.04301868166095235,5.222498421190476
1.967597813,1.125455656952381,-1.2569348897761905,-0.18739561810095243,5.15324182752381
1.984423312,1.0434912649033332,-1.1779864388380954,-0.44863980158666666,4.914226264504761
2.001220033,0.9051237553414285,-1.0527754639238096,-0.7095894813676191,4.620541948271428
2.018036326,0.7667070705557142,-0.91621806652,-1.0650333223200001,4.461372161080952
2.034848489,0.7687166056795237,-0.7587479707580952,-1.2462581907342858,4.331655153128572
2.051653359,0.8401591742747618,-0.5080775036152381,-1.404484430972381,4.261043957747619
2.068462765,0.8935538779176191,-0.30720080785333337,-1.4461365200676188,4.2167386980809525
2.08526683,0.8658214375176191,-0.1320453924152381,-1.4704507192438097,4.119880596033333
2.102077366,0.7193976236652381,0.15333025944190476,-1.4601539884761905,4.00583251922381
2.118879885,0.6469674614747619,0.4109968700133333,-1.2175241879523808,3.842764748128572
2.135694713,0.6069130081985714,0.5878537241433333,-1.1585563705714286,3.698428757652381
2.152499786,0.4494801681938095,0.8349418953338095,-0.9400651114761904,3.5090850670809526
2.169305531,0.3653640470414286,1.1350549715719047,-0.8175153505490476,3.3381735953190477
2.18611339,0.3741910287414286,1.3362325203480951,-0.6639279865204762,3.1424777078428576
2.202922085,0.35231575229380957,1.4587957575671429,-0.5426733607395239,3.011508880385714
2.219728612,0.36339680071761904,1.5957273827242857,-0.3610329401157143,2.806798548657143
2.236526574,0.352597116022381,1.268616575619524,-0.20027821406809526,2.519460247990476
2.253341027,0.26151657530809524,0.96045899821,0.09251049583666668,2.237252823847619
2.270153301,0.2355872151176191,0.7537115344480952,0.27799597240809526,2.0554102178
2.286958161,0.3408258741366667,0.6436041069242856,0.4711469468842857,2.05625449327619
2.303765929,0.547814935422381,0.7159700408671428,0.5585598264557143,2.135280479704762
2.32057621,0.5678818892509524,0.7357757163147618,0.8075625555985714,2.2363852663714288
2.337383063,0.5800497418000001,0.5923191678528571,0.9926534834652381,2.4367056143904766
2.354184729,0.5438107691714286,0.43872289436714285,1.0982052031509524,2.622658723052381
2.370996077,0.5188265655285714,0.25258329943952385,1.233417442917619,2.6934129833857146
2.387803521,0.44823264220000003,0.027634881820476194,1.1363188880461905,2.7995940093857143
2.40461076,0.36919419533333336,-0.25741012889380954,0.9356827055223811,2.798988683671429
2.421409852,0.3137562444666667,-0.3827246029890476,0.7308959053319048,2.7887607093380957
2.438224608,0.3368868770571429,-0.44568066367,0.5901278087747619,2.865541352242857
2.455047655,0.43268787005238096,-0.559800962574762,0.46464999522238093,2.891090709576191
2.471840461,0.45137822338571437,-0.6272382069080953,0.2749734152700001,2.894903185385714
2.488646215,0.5206866533285714,-0.6229599089714286,0.2804468019842858,2.9269182318142857
2.50545553,0.654445413952381,-0.7076778780714286,0.2541501863652382,2.917504842861905
2.522258497,0.7015139275333334,-0.763912337152381,0.20300967362857145,2.9196769330047623
2.539066419,0.7293703399190476,-0.7102943885714285,0.10894069226666674,2.9398082974809525
2.555878469,0.7829686359904762,-0.6571190186714285,0.034143743152381,2.9709510392714287
2.572682748,0.8079517270000002,-0.6192474804952381,-0.051831040995238054,3.032187200952381
2.589494058,0.7906990760009524,-0.6104507332571428,-0.16998979018571422,3.0226740936666667
2.606297146,0.7369205582014287,-0.6097990245857142,-0.2865540867142857,2.9231012723904763
2.623109025,0.6553151748919048,-0.6600348587285714,-0.35219403671904753,2.807172857795238
2.639913537,0.5346564139347618,-0.7104218495619048,-0.47587060926,2.634532801471429
2.656722791,0.4196677292747619,-0.7040756351761905,-0.6524308749257143,2.4550918732047617
2.673527976,0.37563013177000004,-0.6323460404238096,-0.8413458551266666,2.2833040064571426
2.690332693,0.37612132513190477,-0.43320738202857134,-1.019376323307619,2.0877406356190473
2.70715391,0.45257079315571436,-0.19234548931428574,-1.1549777303361903,1.9234080015238095
2.723945829,0.5438793443414286,0.05757982887619048,-1.2000034195980953,1.797676034666667
2.740758409,0.6183474262414286,0.25416248400952385,-1.1670362835980952,1.691497347190476
2.757569687,0.652354041722381,0.4425258884857143,-1.1081983021219048,1.5988915996190476
2.774361242,0.6601031592795238,0.5310735922428572,-1.011850084555238,1.5217198557619047
2.791181023,0.6305332893176191,0.6053683835809525,-0.8749197550980952,1.4501303058571429
2.807987968,0.5904324934271429,0.6786171985333334,-0.7645933287147618,1.3807255925714286
2.824797607,0.53365020097,0.7493596396285715,-0.6744131814719048,1.3169715756190477
2.841605905,0.47067805272714286,0.7762022167428572,-0.5466236841147618,1.2597498705238095
2.85841051,0.4195789141366667,0.7454721225138096,-0.3552015849719047,1.2551864942857143
2.875206784,0.38765340333666676,0.6804589494328572,-0.17511994501952374,1.2925374973809522
2.892026932,0.37035050704142863,0.6413016950757143,-0.0483189083528571,1.302178639904762
2.908832565,0.36763483995571433,0.63724530949,0.029507909480476244,1.2666146194809524
2.925641075,0.363256620512381,0.6409403461709524,0.1132792518280953,1.2181109133761905
2.942445661,0.3862397315971429,0.6059046550804762,0.2483723958280953,1.2449466784238095
2.95925935,0.4296712378680953,0.5152323607709525,0.45266541978523817,1.4370673694142855
2.976050515,0.4753949088919048,0.3832067960566667,0.6974887847900002,1.7129526913904762
2.992863381,0.4991600982014286,0.2141048993185714,0.8694150561404763,1.9259624850000001
3.009680884,0.4964041993964763,0.05138865819476191,0.8954040890680953,2.027344107457143
3.026469681,0.487724742740762,-0.062276686957619044,0.8136569431738097,2.1227323033
3.043280685,0.49477626030742866,-0.1481266135433333,0.7028584934500002,2.223890896995238
3.060105807,0.5029788244550476,-0.2268359037052381,0.5951335770976192,2.2981331531857143
3.076902651,0.5213433192074286,-0.31808691083857144,0.5538285346404763,2.3154317334238095
3.093728069,0.5391971298836191,-0.4090961672195238,0.5798095294642858,2.307493466042857
3.110523172,0.5602800874693334,-0.5379549492195238,0.6289500508976191,2.3011042222333336
3.127332263,0.5631041044502857,-0.6276722607385714,0.5878800664738095,2.336289819709524
3.144139788,0.5773562164788572,-0.7080599041480953,0.4444826216833335,2.409867287280952
3.160944586,0.5945868293693334,-0.7799142712766667,0.31197152815714296,2.4911457096619047
3.177753707,0.6134555411026666,-0.8648251919861905,0.2341208457714287,2.5272624092809526
3.194556563,0.621706209036,-0.9275113713480952,0.15034582499047633,2.5209534232809525
3.211383811,0.617481522640762,-0.9497620747523808,0.011560371933333449,2.4513419404714285
3.228174897,0.6074377766931429,-0.9059971060428571,-0.1547107015285713,2.3692178796142858
3.244977162,0.6139208234740953,-0.8620911382857144,-0.2711555617190475,2.3490114787571432
3.261789366,0.6237431679693334,-0.8668443021714286,-0.3518975348857142,2.3844627766571427
3.278596097,0.6387927120888571,-0.873213558004762,-0.4129084405666666,2.4129577755238096
3.295407589,0.6292294391840952,-0.8321192605476191,-0.5333899316523809,2.3772941310952382
3.31221201,0.5960264844840952,-0.7425287621571429,-0.7410861197047618,2.190044368747619
3.329019616,0.5721237844031429,-0.6085236526857143,-0.9832560902809523,1.9338068558666666
3.345827638,0.5584015817936191,-0.41920458137619054,-1.158808503860476,1.7428295627333334
3.362635265,0.5463117162442858,-0.1990827151857143,-1.190813813917619,1.6997565414476188
3.379440826,0.5253184366857143,-0.0008508989000000289,-1.1375250816461904,1.6926916604476192
3.396237761,0.49287728327142866,0.13309133052857142,-1.0260922568509523,1.6367375447333334
3.413058581,0.4632066303819048,0.1915724249142857,-0.8914004735052379,1.534570759442857
3.429852768,0.43395668410571436,0.21485359825238096,-0.809108824995714,1.4618992292666666
3.446670445,0.4265751966438095,0.2754981084952381,-0.7954714185099999,1.4342163801619048
3.46346916,0.43616262077714285,0.41477215506666665,-0.763012795257619,1.4357033315428571
3.480286145,0.45774890553428577,0.5354943240190476,-0.6390210560671428,1.4564208848285713
3.497094961,0.4943229797533334,0.5639681184795238,-0.3866104171623809,1.4688247510666668
3.513897014,0.5031576767057144,0.5554917533033333,-0.10436605273380943,1.4826689156380952
3.530694171,0.49954940167714285,0.5737029236271428,0.12237875798047625,1.5302668451619048
3.547520739,0.5422400817961905,0.5747114001557143,0.2876769928328572,1.6241355529714285
3.564327277,0.5798701544485715,0.5672838070842857,0.3933128628900001,1.6865135585428572
3.581126072,0.6068171333390476,0.5259725969747618,0.5031009855423809,1.7274648740666667
3.597944116,0.6483294467057144,0.4282978837414286,0.644709632494762,1.8065207698285715
3.614738375,0.7097054861866667,0.29956986299857147,0.8768882297328572,1.9402570885428574
3.631562216,0.7588132038104762,0.15364055481761904,1.0691888900185715,2.0685400017809523
3.648365316,0.7938393170009524,-0.012128304110952368,1.1272576650138095,2.1650379149714287
3.665169238,0.8080602557961906,-0.13932791988238094,1.025223981780476,2.3071817133666666
3.681977597,0.79829897342,-0.20388127149666666,0.8292746316899999,2.474305244580952
3.698781775,0.7989246050580951,-0.2599170143680952,0.6528853461742857,2.6093461749999998
3.715595657,0.8477299114152381,-0.3684803552109524,0.5406550452552381,2.647845346285714
3.732398776,0.89903135102,-0.5079310756014286,0.497175148507619,2.6191430537142857
3.749208733,0.9238071101152382,-0.6348735853204762,0.4627275239504762,2.605355784666667
3.766012309,0.916812964857143,-0.7271822683538096,0.39557795293809533,2.658326293004762
3.782808471,0.8818955535095238,-0.7669496010871429,0.3183567637142857,2.7248488754190476
3.79962744,0.8149828797428572,-0.7944948601966667,0.24285375502380951,2.7830734233809524
3.816436185,0.7165301754571429,-0.8304664251157143,0.11823745000476192,2.8231844948095235
3.833242061,0.601341775504762,-0.8426729852109525,-0.029781023709523787,2.833608665666667
3.850056034,0.4782661880761904,-0.7911575677857143,-0.2445916448523809,2.8016878115238093
3.866858046,0.3766306127904762,-0.7128149739571428,-0.4658586638523809,2.7537311374761906
3.883656548,0.2940492317857143,-0.6299224127142857,-0.6278829347571429,2.697271715714286
3.900471833,0.17861300141904768,-0.5082488457761904,-0.7448563575857142,2.6489391146190475
3.917295705,0.07177299832380957,-0.36952268511428565,-0.8117828596190476,2.6509714119047616
3.934090168,-0.020349062571428534,-0.25571013064761905,-0.8883738972095236,2.650546362
3.950881161,-0.1380937695190476,-0.12892912117142855,-0.9934586797771429,2.586713753428571
3.967701016,-0.2550219268809523,0.018428791114285737,-1.146860281658095,2.439956816904762
3.984518285,-0.3401574038190476,0.1951131196380953,-1.253342287924762,2.317614915285714
4.001316339,-0.4024095052619047,0.41342061473333336,-1.245230243362857,2.2591107403809523
4.018126091,-0.45998373200476184,0.6065309502095237,-1.1040856952152378,2.1811226437142857
4.034930929,-0.5152446854523809,0.7274371102095238,-0.9025059427866666,2.060321269952381
4.051743744,-0.5664094657952381,0.7978427438666665,-0.7035998617057142,1.9505071223333335
4.068555257,-0.6298855741666666,0.8604713394714286,-0.524426982515238,1.8984202720952381
4.085356718,-0.6812805334619048,0.9190283843666668,-0.3549623488961903,1.9119322539047618
4.102163499,-0.6987431219523809,0.9863276936,-0.17572357537238087,1.9743942115238096
4.118957362,-0.6808002449095237,1.0632708697095237,0.04348291672285724,2.045520974095238
4.135777958,-0.6648713463719047,1.1161965813,0.25457250505619056,2.1025271932857144
4.15258412,-0.6609349052004762,1.1282069768252856,0.45117634819904767,2.1105138770000003
4.169391603,-0.6301558471766666,1.0797776324395716,0.6539172899133334,2.0829765877142856
4.186205241,-0.5681079767966667,0.9694965794395716,0.8546939350561906,2.0927360809523807
4.203008472,-0.4968312411061904,0.8064098472490953,1.0914317540085716,2.1647459975714285
4.219813341,-0.41041745743,0.616398152963381,1.3055280958180953,2.2538518565714285
4.236622483,-0.3574081914823809,0.4014105343919524,1.4262732551514286,2.336977041095238
4.253430629,-0.30612492561571425,0.16080406748719048,1.4403598422419048,2.381257999
4.270238834,-0.24342121680619044,-0.05250653756042857,1.366772697132381,2.392049437904762
4.287053236,-0.18725071918238093,-0.1868521399985238,1.2800622668180952,2.405733098095238
4.303851463,-0.12932935498714282,-0.27226582302709523,1.1987727711000002,2.41517794547619
4.320658915,-0.05416754029666663,-0.34725082196519047,1.1076607932190476,2.443886619333333
4.337465687,0.006545915493809567,-0.44762294911280953,1.005003565914286,2.466249984095238
4.354274311,0.05499041364619052,-0.5773384031128095,0.907608895157143,2.469875132190476
4.371069007,0.12585037947000005,-0.7151137277794761,0.8114816348666667,2.4833648183809522
4.38789001,0.2114819657271429,-0.8431075669223334,0.7009911538190478,2.532684397476191
4.404683893,0.28118649835095244,-0.9458835833985239,0.5539260365952382,2.6030898336190473
4.421508894,0.3311485477890477,-1.0240432903318573,0.3518881117857144,2.6770704221428567
4.438298087,0.3751684143461905,-1.0878571753842383,0.13667974026190488,2.7048383961428573
4.455117217,0.4181061018128572,-1.1590284648032856,-0.07372372483333324,2.675376463952381
4.471925709,0.4543314207223809,-1.2353437826270952,-0.2854027747380951,2.610256596333333
4.488733213,0.49940251169428573,-1.2756066407032858,-0.4869793255476189,2.5478929581904763
4.505527889,0.5489462131609525,-1.2759422716195237,-0.6618905521190476,2.5147479307619047
4.522347997,0.569885373122381,-1.241988162152857,-0.8413208098333332,2.505461574809524
4.539156835,0.56019391049,-1.1702908419147617,-1.050103573547619,2.4723407242380953
4.55596273,0.5371823140609524,-1.0302847992766666,-1.282618522642857,2.375121801761905
4.572773042,0.5062828262719048,-0.8351781283242856,-1.4818786439285714,2.263044122095238
4.589580924,0.498308022822381,-0.6201457835623809,-1.6149180275904758,2.1716234865238095
4.606385405,0.49262564239380957,-0.4103164304195238,-1.6409799938980951,2.089234934
4.623183001,0.4805313916461905,-0.2568538047052381,-1.5278043747076187,2.037381775095238
4.640001217,0.4770569063366667,-0.16151662098142858,-1.3417762575171426,2.0353492948571428
4.656806463,0.475025245117619,-0.08225745242904761,-1.1486144520885713,2.0733589685238094
4.673615656,0.4451345262033333,-0.01637844808619048,-0.9617608389457141,2.0985042266666665
4.690423169,0.4079361813371429,0.04141522025190476,-0.7796776182314284,2.118011744619048
4.707232495,0.36111577351333335,0.10409593018523809,-0.5965146565647618,2.1421574951904763
4.724037964,0.307175358132381,0.17137524065190476,-0.3924349150409523,2.1726323981904763
4.74083317,0.2745213962704762,0.20373482936142853,-0.13159181970761896,2.216077541952381
4.757654498,0.2670824527704762,0.20256984807571426,0.19283510376857155,2.2866167571428573
4.774461016,0.26869904427047625,0.19176242470904764,0.5623865126257144,2.3672936008571432
4.79125855,0.2621671756085715,0.17233640244714282,0.8925577344352382,2.456108121333333
4.808076848,0.2459128981514286,0.1333152453995238,1.1296072686257144,2.535429536047619
4.82487244,0.21478632518000002,0.08473192516142855,1.240936574387619,2.564490269666667
4.841690889,0.19551983333238102,0.03839801046142856,1.2276738256733335,2.5949628084761907
4.858490876,0.22103841531333338,0.00976169684285712,1.1551955086257142,2.6745432559047617
4.875307657,0.28481481756619054,0.005895858790476168,1.103213991387619,2.7399118625238095
4.892100961,0.35357180662809523,0.012745448590476166,1.0952131180066669,2.765303319095238
4.908922625,0.4009431430190477,-0.015120500540476214,1.105018729197143,2.7633331762857143
4.925719091,0.42838281676047624,-0.08798212798809527,1.086850552292381,2.762679461714286
4.942529841,0.4341560431814286,-0.1692200884214286,1.013620240287619,2.788165085571429
4.959338942,0.4107452858004763,-0.21970966451190477,0.8818716320952382,2.8574075594761905
4.976149487,0.3593495204290476,-0.23216170207857145,0.6867174874761905,2.9359033694761902
4.992960878,0.29295712992904765,-0.25521920545952387,0.4423199835238097,2.9920469577619047
5.009763243,0.234792110462381,-0.27976173585476194,0.1612788155238096,3.047195274142857
5.026577563,0.18635251124333338,-0.27139417468809524,-0.09562923790476181,3.0917452413809525
5.043376269,0.14175648064285717,-0.24871838231190477,-0.3009288197142856,3.0908850119523805
5.060190954,0.11100821835238099,-0.24655920405476195,-0.47427293228571415,3.0534973506190477
5.076996851,0.06623057522857148,-0.237389529002381,-0.6741280555238094,3.0137824264761908
5.093812107,-0.03759421054761901,-0.172856261302381,-0.9047426722857141,2.960715290142857
5.110606183,-0.17302178204285712,-0.09375521539761907,-1.1357826278047618,2.8674892391428575
5.1274221,-0.2896667946190476,0.0032537338547618823,-1.3379864238333332,2.743410006809524
5.144226257,-0.38955909300952374,0.13498809371190473,-1.4980844543095235,2.6490149863333334
5.161032021,-0.480643096447619,0.3039637137595238,-1.6041491144999998,2.585401727761905
5.177838488,-0.5794258231666666,0.49137924547380946,-1.601066702880952,2.5942328002857145
5.194648454,-0.6951247908095238,0.6509443195690476,-1.4456122488809524,2.6316483114761904
5.211456323,-0.8163190342523808,0.7228672916547618,-1.1893590745476188,2.619446351857143
5.228264723,-0.9187567944095237,0.7167670954404761,-0.8869180452142855,2.6352665875714285
5.245069236,-0.9953127957904762,0.6906753438433333,-0.599783806547619,2.7018782143809523
5.261878978,-1.0501762770857144,0.7126217300552381,-0.3422845658333332,2.7998804416666667
5.278684723,-1.1059731557619048,0.7599946743552382,-0.11478274207142845,2.871632106285714
5.295494322,-1.1570814706380954,0.7820947085695238,0.09171192992857154,2.875964396095238
5.312289263,-1.1893727013285713,0.7461165587695239,0.2950517337380954,2.8293435725238094
5.329106004,-1.1943371636761906,0.6436817448123809,0.5246844746428573,2.7938639586190477
5.345915512,-1.1654761192571428,0.5099242529076191,0.8086450667857144,2.803739324619048
5.362722202,-1.1003208288333333,0.29448917939809516,1.1213395482142858,2.854007226904762
5.379535312,-1.0191813409571426,0.005851461826666642,1.3444444338809525,2.947709460857143
5.396333954,-0.9117510191047619,-0.27886021697809527,1.4307722364666668,3.091298164571429
5.413163177,-0.7795826892047618,-0.5100563962638096,1.4316341764190477,3.2527070314761906
5.42995172,-0.6353527719190476,-0.6689967569257144,1.418923150990476,3.344133425904762
5.446759081,-0.47863821901428566,-0.7659386140495238,1.4069207055619048,3.350394692619047
5.463565375,-0.31594955496666666,-0.817471732649524,1.3868241537476191,3.313431464761905
5.48038004,-0.16842042406190472,-0.89737194064,1.3391350337714285,3.274172872952381
5.497176883,-0.03570959253809519,-1.022998578497143,1.2469100498428571,3.233963200238095
5.513996473,0.0788769537571429,-1.1505683958780952,1.1100313777476192,3.2245823285238098
5.53079596,0.19453599200476196,-1.2706563856066668,0.9076268332714286,3.2461029725714288
5.547608561,0.3085055649428572,-1.366807323144762,0.6315737452238096,3.2932599658571435
5.564412068,0.3997346858428572,-1.4095737409191904,0.29726051155714295,3.3740863359523807
5.581220018,0.46165020837619053,-1.4103244713525238,-0.08965853277619042,3.4290572526666665
5.598028429,0.5089387340476191,-1.3923408658887144,-0.4790263402523809,3.4484051551428574
5.614822474,0.5634423281761906,-1.3748481784696667,-0.8266670135857143,3.438647991571429
5.631642013,0.6315779984285715,-1.345039191703,-1.0783079918714285,3.410169053761905
5.64845094,0.7137712481761905,-1.2884230585315717,-1.2140849203857143,3.3869257918571427
5.665262676,0.8038112734190477,-1.1897135376887145,-1.2695222354761906,3.3880818576666667
5.682064219,0.8915408409809524,-1.0433173492125238,-1.321224008252381,3.371619776142857
5.698872263,0.9460836194857143,-0.8447497487363332,-1.4247759182666666,3.3009087125238095
5.715679807,0.9634749066333335,-0.5912359016410953,-1.536815802195238,3.156981007619047
5.732488531,0.9643483502619048,-0.29883443459347625,-1.572872774904762,2.980788796571429
5.74929388,0.9493806021666668,-0.0010196737363333977,-1.5013864834904762,2.822911302047619
5.766100315,0.9259190559285715,0.27568975797795237,-1.306180704204762,2.7456243817142854
5.782910729,0.9204070738333333,0.44909033318747615,-1.0381221544428572,2.7671646595714288
5.799717469,0.918135705452381,0.49975459347319046,-0.8014168739666667,2.8178893483333334
5.816525594,0.913805490452381,0.4660113922160476,-0.6587868872523809,2.858867211952381
5.833331226,0.9228699206904762,0.4316077218255714,-0.5975031853095237,2.888994835142857
5.850140968,0.967052090690476,0.4427024395922381,-0.4730550902380952,2.937291520142857
5.866934261,1.032577560014286,0.4631859192065238,-0.20766167414285705,3.040264951761905
5.883751053,1.0911077884809526,0.44681698793509517,0.17469467438095246,3.1498433460952375
5.900568352,1.1768693214,0.3233459379017618,0.6084233238571429,3.2528014954761906
5.917369987,1.2693585525952382,0.1327513896190476,0.9950532686190475,3.304669013666666
5.934178235,1.3038182542190477,-0.05492150074761908,1.2283202126047619,3.2715349466666663
5.950983998,1.2828047786190477,-0.21657605684285716,1.3243453161761904,3.246402333047619
5.967795572,1.2372469447650478,-0.3654510010285715,1.3024512699380952,3.2861540831904765
5.984598336,1.1923414071126668,-0.496495587552381,1.217010838604762,3.3581429122857145
6.001408036,1.137786138598381,-0.6058474155380953,1.0772232781666666,3.450704000380953
6.018215633,1.0546211514888573,-0.6952572522428572,0.8930132502095238,3.5361407575238095
6.035022699,0.9397411686793333,-0.7631666093238094,0.7131675765095238,3.596607382047619
6.051826927,0.8261529377412382,-0.8217211933952381,0.5819044566666667,3.6288220334761907
6.068639691,0.718199644750762,-0.8491298783952381,0.45376023783333336,3.6714337640000005
6.085445424,0.6101627122412381,-0.8445234100619048,0.3216419900190476,3.7203168477619046
6.102254984,0.4954696098126667,-0.8277964734428573,0.17293648482857144,3.751062502333333
6.119062498,0.3699378682888572,-0.8119324020619048,-0.058911482599999995,3.7279136065714287
6.135866085,0.2272936900031429,-0.7467638879380952,-0.32730740602857145,3.664525493095238
6.152675807,0.09675651500314289,-0.6286986499380953,-0.5404369945523809,3.6266820877142862
6.169481938,-0.014311262568285658,-0.47751024231904776,-0.6766731399238095,3.6278648347142854
6.186289848,-0.1414322001873333,-0.30468525212857145,-0.7647841999095238,3.6658346839523808
6.203096265,-0.30596862523495233,-0.14636097075238105,-0.856068361452381,3.674853925047619
6.219889434,-0.4901560715682857,-0.008496775604761978,-0.9793194590238095,3.607908163476191
6.236715941,-0.6615033036635237,0.1271353249666666,-1.143660704404762,3.4823915102380956
6.253529854,-0.8564558710920952,0.3036091695857142,-1.3179564931190477,3.300745358190476
6.270327673,-1.0425967773301905,0.4979992242123809,-1.433075155642857,3.118392324333333
6.287126867,-1.137302058154,0.6625876273457142,-1.364269279390476,3.016553832619048
6.303942662,-1.1532406580587617,0.8095741934890475,-1.1656680334857141,2.927091195857143
6.320734865,-1.1269654660714283,0.9484911457795236,-0.8944341569142855,2.8062492888571433
6.337556663,-1.0982406707761905,1.057949501465238,-0.6296616055333333,2.698320062761905
6.354348095,-1.0810094221042856,1.1255499816128571,-0.39863892967619047,2.580927465047619
6.371172016,-1.0544969241566666,1.1322294313747618,-0.20555387229047614,2.4349547229809523
6.387978625,-0.9832979157533334,1.0634442265985713,-0.045199076380952316,2.333847773742857
6.404786617,-0.8615986677247618,0.9569347085271428,0.13566555290476195,2.3173449063619045
6.421604131,-0.7046987954390476,0.7776220081938096,0.367199103,2.3957521827904764
6.438392063,-0.5244463512485714,0.512167931622381,0.6026677176666668,2.5456241009333334
6.455213199,-0.3492128565342857,0.21236454409857136,0.7877046267142858,2.6932511904095238
6.472015159,-0.2189741702485714,-0.05204116623476198,0.9508297784285715,2.7642334463142855
6.488827557,-0.11964622567238091,-0.2644842568538096,1.0898990631428571,2.755713881171429
6.505632831,-0.01807211694857138,-0.4587453876633334,1.1819610596095238,2.7252227799333335
6.522424894,0.07561285720380957,-0.642121501234762,1.2526192892571428,2.7031723595523807
6.539250008,0.16648817629904766,-0.8645069758538096,1.2967238199380955,2.684005239361905
6.55605576,0.2377286070866667,-1.0911371753776191,1.2418355261,2.6681115656
6.572862584,0.29714401564380954,-1.2855050269014285,1.0646160671,2.6725961981238093
6.589658948,0.35933226633904763,-1.4075087581680954,0.8098776908142857,2.7224356132666667
6.606477998,0.41613264312476195,-1.4492089567061908,0.5546859559571429,2.797800330647619
6.623286489,0.49075780030095245,-1.3967789077614288,0.3347825322904762,2.8851212210285717
6.640091064,0.54535018832,-1.2762099823233333,0.11224213100476196,2.97401375907619
6.65689874,0.5526374862523811,-1.1610452844666668,-0.09620929899523804,3.0475304971238097
6.673708513,0.5224671023457143,-1.1080470879476192,-0.26114674980476177,3.0694707122190477
6.690522669,0.5076472418885715,-1.0891447748238097,-0.3826105708380952,3.054504279409524
6.707321324,0.5231504894690476,-1.0416132750809526,-0.4564177876714285,3.072334130457143
6.724130883,0.5496832189357144,-0.9456397919476193,-0.4714763505380951,3.1353233975714287
6.740934195,0.5518062114942858,-0.8096972533761906,-0.473416305747619,3.156934089714286
6.757746674,0.5145979381942857,-0.6889895143904763,-0.5337458792285714,3.089638627333333
6.774552683,0.45524641447523806,-0.5582632791190477,-0.5909167925619047,2.962303216809524
6.791360329,0.3433092435419048,-0.32612370875714297,-0.6953311874714285,2.7299654514666662
6.808163042,0.22520674978000005,-0.022426491709523873,-0.7672239258285714,2.533301535704762
6.824976944,0.1948507286228572,0.23107482133809518,-0.7542968704952381,2.434206217466667
6.84176859,0.2212603546180953,0.40964694248095224,-0.6917126292571427,2.4501556753714286
6.858587813,0.2436813740371429,0.5869694436714286,-0.6359736806285713,2.4871812355619047
6.875399436,0.27601695059904763,0.7611992017666667,-0.5034720784761904,2.5807215230380955
6.89220983,0.337571427932381,0.9281942729571429,-0.19145972396666655,2.786233800704762
6.909015442,0.3966299238590477,1.0312734216557142,0.13637365603333343,2.932445072942857
6.925818052,0.43780245099238096,1.0674971227509522,0.44213306327142865,2.9755420909904764
6.942629921,0.4411911964352382,1.0037286564461905,0.7759317669857145,2.977148723038095
6.959431067,0.44550849142095245,0.8714849266509523,1.0624472072238096,2.956388076038095
6.976244897,0.40849888324476197,0.6243878034128569,1.2708084468714287,2.975775343990476
6.993051151,0.3559689294685715,0.3133202108890476,1.3996751874952382,3.008185727038095
7.009856406,0.33863026754571435,0.00597763622238091,1.4577123776857144,3.043350148180952
7.026663921,0.3507222334476191,-0.1957355170633334,1.442827406257143,3.0783118956571434
7.043472595,0.34660731042380954,-0.30800557706333337,1.4056920776714286,3.0981078455142854
7.06027606,0.3173382310571429,-0.42484412876333344,1.3546643255523811,3.0983259346095235
7.07709159,0.2605452821285715,-0.54771448033,1.258346534747619,3.1103151843714287
7.09389351,0.18874224026190478,-0.6575161445585714,1.1096947986190477,3.1829697747047616
7.110702457,0.09317677929523814,-0.7094627845776191,0.9064809025285715,3.339913858990476
7.127517826,-0.01673621789047615,-0.6871540376061906,0.6162843475285718,3.490263016609524
7.144318504,-0.09765173705238091,-0.6801377080680953,0.35354507520000017,3.685429023142857
7.16112377,-0.17302858829047615,-0.7072189478442857,0.10722428260476208,3.8455240362380954
7.177933878,-0.3045550414666667,-0.7203435046061905,-0.12539629725238077,3.922421565809524
7.194745145,-0.45422240665714286,-0.7518388941014287,-0.33195043763333315,3.8999309561428572
7.211532477,-0.5836020310857142,-0.8203910305061906,-0.4643850101095236,3.841514804095238
7.228342077,-0.6916295006380951,-0.8748884541109525,-0.6395076344428569,3.704260317666667
7.245163873,-0.8304274195904762,-0.9011381636728573,-0.9593692735333332,3.4397579790000004
7.261971012,-0.9394572122095236,-0.8917760961761905,-1.2617004713666664,3.232026151904762
7.278776604,-1.0020064314571426,-0.8123762209619049,-1.4653721538047617,3.092407966238095
7.295596325,-1.047472939642857,-0.6432470877238096,-1.5936872165571425,2.996244661285714
7.312393442,-1.0994446817476191,-0.43620120900952386,-1.6159204075095237,2.954824256047619
7.329193154,-1.1360828565095238,-0.20036740520000007,-1.5432315781571424,2.8979231434761905
7.346009976,-1.1483462964619047,0.006849902099047546,-1.3895745277809521,2.8347682476190474
7.362811896,-1.1552145765761903,0.1822620460609523,-1.171387740590476,2.7959868475714282
7.379620428,-1.2000804061809522,0.2947889737180952,-0.9226994968761902,2.8031928949523808
7.396432712,-1.2612698589761904,0.35775911810380945,-0.7011880874476188,2.858224724190476
7.413234275,-1.282726986142857,0.413561537175238,-0.47462395254285705,2.939319067619048
7.430048513,-1.2325993833809523,0.4130054088085714,-0.22723393206666648,2.9991640225714287
7.446850392,-1.1625696691,0.38298350575142853,0.015168349028571533,2.9691509208571425
7.463664021,-1.073400972932238,0.27392221921333326,0.28564557583809536,2.9059473618571428
7.480466804,-0.9709932805036667,0.07903832768476186,0.5843233836000001,2.8713699996190476
7.497276739,-0.8421879667417619,-0.17300053150095243,0.8910687311238098,2.8725128502380954
7.514084987,-0.6876795576941428,-0.4427944449628572,1.1474012875190478,2.872579457095238
7.530888807,-0.5202340342655715,-0.6771436503438095,1.2809664863333334,2.881016586047619
7.547697044,-0.3711802733131905,-0.843705878324762,1.2965433030952382,2.9183988550952384
7.56451052,-0.24774336821795234,-0.93991077792,1.231112889,2.976021739666667
7.581316711,-0.17025292777985712,-1.0020038314628572,1.137554236952381,3.0407381867619043
7.59811916,-0.10422645304176187,-1.0471234406104761,1.0536152069000002,3.0852505946666664
7.614927843,-0.04463890058938093,-1.0884287328342859,1.0101299514476192,3.113234545571428
7.631741421,0.02091933710109526,-1.171265576524762,0.9621921949333334,3.1505181400952385
7.648542994,0.1269158890677619,-1.2866714596676192,0.8549793108285716,3.166173725285714
7.665350518,0.24504475646300006,-1.3841665074961904,0.6654584522095239,3.1604741520476187
7.682163018,0.3494782532772857,-1.4357568025628573,0.41085284101904773,3.1653530817142856
7.69896512,0.4097039614249048,-1.415642772404762,0.15643921354285728,3.1357532417142857
7.715773305,0.4441475527487143,-1.3659196694761906,-0.12009566164761891,3.0970478913333337
7.732579853,0.5025372050915714,-1.310769313847619,-0.39194577079047604,3.068663631
7.749385017,0.5861220075725239,-1.2573939561857144,-0.628101212647619,3.0370660995714287
7.766202602,0.6468013837010952,-1.1996198495095238,-0.823511850295238,2.9617876247619046
7.782994105,0.6401023296863334,-1.1005275107190478,-0.9905969075238094,2.8648084991428573
7.799806501,0.6167101675339525,-0.9651076480999999,-1.0927180336190476,2.818801334857143
7.816625287,0.5957213313566667,-0.7602942699095239,-1.1595564343095237,2.7692821806666665
7.833429933,0.5514168966185714,-0.46677049281428573,-1.1885231563571428,2.7050551257619047
7.850236022,0.4798062983042858,-0.1435121609571429,-1.1793793270238093,2.602184660047619
7.867038156,0.3996905429233334,0.1432139618523809,-1.0736089888952378,2.5202761840476193
7.883851357,0.32022162279476196,0.3598504946809523,-0.8747042248047617,2.507991260714286
7.900651669,0.2436710936566667,0.5578383860619047,-0.6172657013761903,2.5410097547619053
7.917468257,0.1625177860233334,0.7307063540142857,-0.3019955045666665,2.6340356703809524
7.93427036,0.09192937612333338,0.8261016011619047,0.014120079100000163,2.7334696772380953
7.951078463,0.02534767557571433,0.8593984246619046,0.30004551286190495,2.824775143428571
7.967886965,-0.042210357543333285,0.8427282146428572,0.551813329861905,2.919708963095238
7.984693013,-0.10713677464333328,0.7789035383095237,0.7879817825761907,3.0375826855238097
8.001501219,-0.16568089951476186,0.6648541206904762,1.0547189031000002,3.1798207215238095
8.018312671,-0.19532059772428564,0.49880215104285713,1.3537367411952383,3.324196523857143
8.035114996,-0.21156101284333326,0.33382315868095236,1.6243393761952383,3.3911823376666668
8.051923538,-0.19703366927666663,0.17768574331904763,1.7773121652476194,3.417712036904762
8.068729547,-0.16774755149571421,0.03621886461904761,1.8410591852000004,3.421605394809524
8.085531995,-0.1465590993623809,-0.09436019257142857,1.831533908866667,3.4482403373809527
8.102349916,-0.14395796969571423,-0.21921010238095237,1.7596737544380954,3.509351753142857
8.119150412,-0.15247111378142852,-0.3505620955714286,1.615401381609524,3.6142652891904765
8.135962055,-0.1665772398380952,-0.4740861597142857,1.4438528561238098,3.736240968619047
8.152769326,-0.18515431598095233,-0.6018531549523809,1.2671818961238097,3.8424560445238094
8.169563616,-0.2054627509428571,-0.7163708437190477,1.0818451927666668,3.923404415476191
8.186385065,-0.2183547048428571,-0.8217404796904763,0.8845709165761907,3.938979135904762
8.203193923,-0.2471487493857142,-0.8823843229476189,0.6593567077190478,3.949665612952381
8.220000389,-0.30575834286190473,-0.8997223036904762,0.37488837481428594,3.955782265142857
8.236784455,-0.3477734753047618,-0.9021441936761906,0.07614894152857163,3.9049701698095243
8.253613974,-0.3624117005428571,-0.9297804094714286,-0.18607591432857123,3.796508488904762
8.27040989,-0.36099760589047614,-0.9647154410904764,-0.44705384104285695,3.6463533833333335
8.287227191,-0.3732408029714285,-0.9499943086142857,-0.7045833722333332,3.5328745272380955
8.304040453,-0.3831166738285714,-0.891524320547619,-0.9274638719571426,3.440793639809524
8.320838811,-0.37874209597142855,-0.7846701769285715,-1.0961757159179522,3.331438142095238
8.337657444,-0.39615759962380953,-0.6305001292380952,-1.226534729817952,3.2005604556190472
8.35445737,-0.4285705401714285,-0.449406413752381,-1.3879180407846188,3.0050686504761908
8.371272076,-0.4709715048380952,-0.28065104705714294,-1.537492184337,2.7916218398571426
8.388072978,-0.5108127593904761,-0.17601633067619055,-1.6238827704846188,2.6610667484285715
8.404872933,-0.5774760217809524,-0.08134511249047624,-1.6443389029179525,2.575790059857143
8.421690936,-0.6641761319904761,0.018421675528571366,-1.5912459463550475,2.495023994909524
8.438496995,-0.7603558273333333,0.12597812644285708,-1.447288172521714,2.400708503242857
8.455303197,-0.8460104380047619,0.22853005786666658,-1.2340845607169522,2.303460724957143
8.472116154,-0.9062538629190475,0.3039534574523809,-0.9418022064788568,2.231496490480952
8.488919458,-0.909473681704762,0.3114153288809523,-0.5831381480026666,2.230829270385714
8.505728324,-0.8648824975285714,0.25087895569047614,-0.187450522478857,2.2986834249095236
8.522529429,-0.8023896798857143,0.14060020169523804,0.20544058937828585,2.3878898956238097
8.53933785,-0.753470283147619,0.002545819476190396,0.5083571389020954,2.444949061242857
8.556154081,-0.6874198984190476,-0.14767431355238103,0.7435228029973334,2.4451281915761904
8.57295242,-0.5956929283238095,-0.2896420642857144,0.9309445108782859,2.3925163836714285
8.589770116,-0.5162604692238095,-0.40316933955714296,1.0465547243768571,2.345653744338095
8.606574691,-0.44529363510952386,-0.5099828157619049,1.0795476095816192,2.349669045052381
8.623387272,-0.3686563726999999,-0.629752161904762,1.0498625437244764,2.3776567081952384
8.640187288,-0.2611389940333333,-0.7529509634904763,0.9876171747720954,2.4079845322428572
8.657008291,-0.13747813441428564,-0.8500747907619047,0.878045581638762,2.467660508338095
8.67381139,-0.0318965329380952,-0.908666031712381,0.7078444163138572,2.5699744166714287
8.690609719,0.057464121404761946,-0.9471726020303334,0.48394827616623826,2.682399146290476
8.707417895,0.12857571532857145,-0.962906281164143,0.2889156341805239,2.801903306909524
8.724218013,0.1885300548761905,-0.941627144824143,0.10611302516147626,2.8971511187190475
8.741031173,0.2484593519619048,-0.8731415782684286,-0.057984738071857056,2.9417889927190477
8.757839786,0.33012692564285717,-0.8247395952541429,-0.1715651012147142,2.9887101508619045
8.774649386,0.43577393892380956,-0.7993351306208096,-0.25300636739666654,3.0460560586190475
8.791457723,0.5390227110666667,-0.7906094931398572,-0.34021248127761894,3.077361561095238
8.808265522,0.6218140565190476,-0.7793277984684286,-0.44436316255857133,3.0787522915238092
8.825065864,0.6765805014523809,-0.7401121542446191,-0.5795839626680952,3.022576032047619
8.841883053,0.7120860843380952,-0.6693102944303334,-0.7433468272585714,2.8660530583190478
8.858687119,0.7275123610333333,-0.5576225944927143,-0.930748099277619,2.658011558795238
8.875494766,0.7176508931809524,-0.3959744118641429,-1.131414753972857,2.432209086095238
8.892301699,0.6916438454619047,-0.20365237910223818,-1.2692448524442856,2.299219665285714
8.90909602,0.6497647960904762,-0.033336420864142936,-1.2593808627299998,2.279201096285714
8.925904063,0.6145384652238095,0.07910035904538089,-1.097851957515714,2.377644242952381
8.942726053,0.5800372248552381,0.1984947181834761,-0.8779192651095238,2.512029483809524
8.959527556,0.5822792933028571,0.3654469081358571,-0.6149270419809522,2.663227687380952
8.976336474,0.6487519598742858,0.5182284627549046,-0.3125074703142856,2.8203086687619043
8.993150031,0.6989364368266666,0.6180373118168094,-0.08600305364761895,2.8518863301428574
9.009953038,0.7147372193980953,0.6415870792963332,0.15656205597142867,2.8167466787619047
9.026762567,0.710234429112381,0.538123917723,0.45870233725714293,2.815300807904762
9.043570996,0.6696912283980953,0.367297806207619,0.7665767216380953,2.8360897932380955
9.060377269,0.6154103058742857,0.18511423966523805,1.0328734943523812,2.8712817884285715
9.077180074,0.5691848290409524,-0.0028748136080952776,1.2230768431333334,2.919074671238095
9.093997059,0.5364738390142858,-0.19077408525904765,1.325329371904762,2.978996756095238
9.110792538,0.5008917464666668,-0.3614463259828572,1.3377330644285714,3.057032803666667
9.127609025,0.44455135505,-0.5146453288257143,1.2855658304285715,3.144162558428571
9.144407984,0.39669892048619054,-0.6380970215542858,1.1693351155238096,3.2570092450952384
9.161222445,0.3714738998961905,-0.749618611887619,1.0346365202380954,3.374008274666667
9.17802284,0.358650831934762,-0.8523815977066667,0.8730434236333334,3.5027095956666665
9.194837688,0.33048841213952385,-0.9045503984257144,0.6794780549857145,3.652017649538095
9.211632608,0.28423224743000003,-0.9038728610752381,0.4654865946238096,3.7876549599190477
9.228451913,0.23461392662523814,-0.900057987832381,0.2722986085095239,3.9252942470952386
9.245265062,0.21781732069666665,-0.9071014119276191,0.12432529812380963,3.9955863158095237
9.262068579,0.22185559214904763,-0.912017063737143,-0.11555203939999989,4.009135037857143
9.278874984,0.21676935183476193,-0.8988739528942857,-0.4486785389238094,3.9304850211428572
9.295679498,0.21134527807000006,-0.8425156949847621,-0.7215352966857141,3.8215282475238093
9.312496483,0.1770818006319048,-0.8292471106990478,-0.9206329300714283,3.6891305131428567
9.329294181,0.07799040136523813,-0.8255040071276192,-1.1057200886523808,3.5268626186666667
9.346108133,-0.05173862547761901,-0.7818996332228572,-1.2182892163964283,3.4606062867619043
9.362914671,-0.20402684662047615,-0.6760337978119049,-1.340823150867857,3.465633380047619
9.379720965,-0.33226375352523807,-0.44868415319285726,-1.4707083248292856,3.4332254482380953
9.396513047,-0.3771456543919047,-0.1461340757642858,-1.5214762687816665,3.381664685809524
9.413337061,-0.35250375739571427,0.15995288452142847,-1.4694620995435712,3.3647351107142858
9.430145959,-0.3150809783338095,0.45565518299761887,-1.2982585316578568,3.40512046147619
9.446951662,-0.29905136994047615,0.7498994156166665,-1.0264990897149997,3.490270959238095
9.463758922,-0.30509218006,1.052803748997619,-0.6865384464769045,3.5986564454285714
9.480569457,-0.33465778330999996,1.2676560877119047,-0.3085546265721427,3.6661013014761905
9.497375701,-0.4334107779366666,1.2470981449023808,0.0744165693802383,3.703588873666666
9.514182574,-0.6140918646561905,1.0101476395690476,0.39096423561833354,3.866868991190476
9.530989112,-0.810475054232857,0.6378297321976188,0.6483625003802383,4.142312889809524
9.547799586,-0.9432880338947618,0.22110374472142838,0.9125960441421431,4.440536557380953
9.564604648,-0.981477147042381,-0.13731056747142875,1.2168419702373814,4.647909215428571
9.581409721,-0.91783140669,-0.34864367767619064,1.4938161033326192,4.685131078238095
9.598215262,-0.72776397919,-0.3429815429619049,1.7128089497135717,4.738742516809523
9.615028167,-0.42433928023761897,-0.19791229010476208,1.844730354609286,4.943374923333333
9.631825031,-0.10331428334238096,-0.061687622857142986,1.8998691015140476,5.168877851761904
9.648641233,0.13978985664333332,-0.08887658242857155,1.8518679483711908,5.322619379714286
9.665438228,0.2626420118004762,-0.22380505866190484,1.6562130565664286,5.431799117571429
9.68226331,0.2956194054957143,-0.4130167734714287,1.386227380766429,5.580759956761905
9.699066594,0.32562826223380953,-0.6338089761857143,1.1449784779390477,5.749623638
9.71586956,0.3975577993340952,-0.8617729913761905,0.9285566013152382,5.889325693142857
9.732690116,0.4842381960293333,-1.0904816672809525,0.7102161590385717,5.986375868666666
9.749483775,0.5485440024817143,-1.2845074505666667,0.4677579971814288,6.010559966619048
9.766299315,0.5798957816712381,-1.413591543795238,0.1922671455623811,5.950561846095238
9.783096972,0.5841320711045714,-1.4749781347,-0.15239645172333316,5.851573762142857
9.799915971,0.588903730876,-1.5226384003190476,-0.5186351593423808,5.710852178190477
9.816716405,0.6098706595050476,-1.6221322955619049,-0.8695633523899998,5.523932766
9.833532272,0.6567468402431429,-1.6870190074380953,-1.1983677999614284,5.354825744285715
9.850329815,0.765587186586,-1.5783621696333332,-1.460268338485238,5.1778515284285715
9.867149741,0.945029922593619,-1.2958659046238097,-1.611645471428095,4.843407991304762
9.883943858,1.1496127244698096,-0.877893867837143,-1.654396057080476,4.403791008528572
9.900755238,1.3048739862888572,-0.36676485755142857,-1.6632732209376186,4.025903768147619
9.917564725,1.3839814297840953,0.14617179130571434,-1.6852314358423808,3.826311217480952
9.934372219,1.3841180180840953,0.4995101236866667,-1.6841323035090474,3.8192151189571426
9.95117839,1.2678961729317142,0.5672733954961904,-1.6604412169852378,3.8060077998142856
9.96798562,1.0414487723602857,0.48455978016285717,-1.4726362228333332,3.690318185814286
9.98479353,0.7869754664555237,0.4353942247342858,-1.1819726398809522,3.5894320964333337
10.00160469,0.5783479813412381,0.4003196473009525,-0.8342113040238094,3.571557498433333
10.0184087,0.4202445805745715,0.37522167543904766,-0.43942907869047604,3.5779575736238094
10.03521662,0.3266939808174286,0.40205367129619046,-0.03949978230952362,3.507825062861905
10.05202194,0.2887117596602857,0.44310546782,0.3320850191666669,3.3939106664809526
10.06883179,0.26595823856952383,0.4367483883438095,0.7038074448809526,3.3062601578142856
10.08563996,0.24405799628380956,0.35318558277238105,1.0565225056904763,3.3003805518142864
10.10244685,0.2379387890266667,0.17502841782000003,1.361865861119048,3.3931951492904764
10.11926404,0.2420423985171429,-0.07482196318952376,1.5922551382619052,3.539030563814286
10.13606098,0.2585342373790476,-0.35305237485619045,1.7521762166952386,3.6407847653380956
10.15285865,0.26801640965047624,-0.597108253427619,1.8215894245333335,3.700653585861905
10.16967406,0.24754891401666668,-0.7549167672799999,1.8050308682000005,3.7573891120047618
10.18648948,0.20827925665476194,-0.8423924474514286,1.751531305819048,3.8259776771
10.20329477,0.16951035777857143,-0.9014685920180951,1.6689360029142861,3.9208587063380955
10.22008293,0.13689285302333337,-0.9491885815038095,1.5277075995714289,4.072626716128572
10.23690624,0.0939617362614286,-1.010102252147619,1.3044036911761907,4.252546107571429
10.25371969,0.04282856837571432,-1.1165126136190477,1.0241205126047621,4.362471130047619
10.27052352,-0.014458346948095209,-1.279338777047619,0.722536995461905,4.376649182571429
10.28733312,-0.08491377320999997,-1.4228823667238095,0.42871282231904795,4.362915427428571
10.30414001,-0.1764012064385714,-1.4961873378190473,0.16405532489047644,4.3465847517142855
10.32094604,-0.2903389363433333,-1.5285713417238094,-0.16752000068095207,4.290372612190477
10.33775456,-0.41086265586714277,-1.538457016152381,-0.5130675178238091,4.2140800241428575
10.35455643,-0.4923906837052381,-1.4634548766238094,-0.8416400181571426,4.115689659428572
10.37136927,-0.5060280050433332,-1.3102720749095238,-1.1141030446809521,4.009906761000001
10.38817714,-0.49582004830047616,-1.1514560325285714,-1.2890184946333332,3.924998328904762
10.40498549,-0.5100252145719048,-0.9928411075761904,-1.3699512480619045,3.870538079047619
10.421791,-0.5416700342957143,-0.8122200966714285,-1.4192684263476187,3.797717296333334
10.4386018,-0.5806341000385714,-0.575422627652381,-1.4642952963476188,3.677451490047619
10.45540553,-0.6265210508719047,-0.28854449029523804,-1.4896655762999997,3.526609834285714
10.47221723,-0.6847644986957142,0.007370928876190482,-1.4638396671095235,3.3856966763333336
10.48902173,-0.7374577791290475,0.2686329795761905,-1.3409785769714282,3.2993640804761903
10.50583084,-0.7757691087528571,0.4576354679238096,-1.1437412897142856,3.25834295152381
10.52263919,-0.7929787691904762,0.5780205470671429,-0.8767750830476189,3.2532145678571434
10.53944532,-0.7966151321952382,0.6738203508052382,-0.5572763851428568,3.2797137858095238
10.55624904,-0.8008926623666666,0.7756543158861905,-0.221918015238095,3.3122213702380954
10.57305172,-0.8129837398714286,0.818949810014762,0.09166676657142882,3.280936581047619
10.5898678,-0.8396896350333333,0.8003022244433333,0.3747047923809526,3.2069224764285713
10.6066908,-0.8540774526333331,0.6935549604861905,0.6215958822047621,3.1620153250952376
10.62348272,-0.8427171025238094,0.4930115568671428,0.8283288137857147,3.1733366808095234
10.64027979,-0.8002677708152381,0.23437601892428578,0.9868674732095241,3.212997713095238
10.65709738,-0.7202742758961905,-0.044089308837618975,1.0752604348285717,3.2759850534285713
10.67390799,-0.5992007233247618,-0.3060837104566666,1.146543707161905,3.2995206361428573
10.69071388,-0.45263497380095224,-0.53014951379,1.2210115704952382,3.2716075318571436
10.7075262,-0.32446734456285714,-0.7135722041233333,1.2776506060285715,3.230570012190476
10.72432729,-0.22526379488666662,-0.8649668778376189,1.3187090555476193,3.1874607371428576
10.74113881,-0.14781386573904753,-0.988210584380476,1.2974266778523813,3.1480989972857145
10.75794243,-0.07134380289619043,-1.0691134588495237,1.1843333016619049,3.1187284183333333
10.77475627,0.004844012065714337,-1.1056513047733332,0.9953889619476193,3.1205975065714284
10.79156169,0.06991967917523814,-1.1124745493209522,0.7608898934714288,3.1536981479047617
10.80836692,0.11534162295142862,-1.1114438942019045,0.4997028850428573,3.1890292824285718
10.8251653,0.1535270718228572,-1.110799741130476,0.22638604756666694,3.204185754761905
10.84198428,0.18683009846571436,-1.1028303361638094,-0.04757322581428544,3.1774290409523807
10.85878963,0.22279450088000008,-1.0646603844971427,-0.30420462290952355,3.1440313245714284
10.87559742,0.2625648855085715,-0.9970174914023808,-0.5583108493380949,3.1105768920952377
10.89240667,0.29889123145142865,-0.9363326174738095,-0.8178021340047616,3.0424185755714284
10.90921462,0.34716442018000004,-0.901733202602381,-1.06286468957619,2.946818527714286
10.92602175,0.42155863773714297,-0.813717189302381,-1.2209875696952377,2.8753140387619047
10.94282797,0.5195109468561905,-0.6710990837785713,-1.2930689538952378,2.814772730190476
10.95963579,0.6059135617561905,-0.47380848158809513,-1.3283631233666664,2.706579171095238
10.97644434,0.6695876881085715,-0.23962702354999993,-1.3296551249999997,2.5380865613285715
10.99325095,0.7165754636428572,-0.0039870483880951576,-1.2539718037095235,2.373837108185714
11.01005919,0.7357720165333335,0.23562075692619053,-1.0567650794714283,2.2936658883285714
11.02685868,0.709531764204762,0.4577688574642857,-0.7753317015190474,2.314661858947619
11.04367552,0.6492760607238096,0.6235654495595239,-0.4767237844714282,2.417505793947619
11.06047081,0.5647153939476192,0.73270468195,-0.22651915319523777,2.534594853138095
11.07729168,0.4791400517714286,0.7926519455547618,-0.060130369047618745,2.6137232216619046
11.09409329,0.42042604798095246,0.8618462340357143,0.048104490600000306,2.6433618278047617
11.11090417,0.410216544352381,0.8971880276190476,0.1724828766000003,2.644613900614286
11.12771239,0.416905616004762,0.8166722115428572,0.36647201721904793,2.6428583682809523
11.14452268,0.4206610634142857,0.6689501716428572,0.6000279926000003,2.6372338856619044
11.16133327,0.41091703800285717,0.5117686135,0.8484567006476192,2.623174165185714
11.17813421,0.38774821871238097,0.36717826973333334,1.0758261907428572,2.6045176298047616
11.19494565,0.3560918739790476,0.23420239625714287,1.233828748971429,2.583490780614286
11.2117509,0.31950425249333336,0.09015666014761911,1.3210016659476191,2.5689022650428575
11.22854865,0.2898402724857143,-0.07935612261428567,1.3592668261380954,2.561639452233333
11.24536704,0.2687996313571429,-0.25389969066190465,1.3594371478047622,2.5659105044714288
11.26217312,0.24961122159761912,-0.422808070947619,1.3327317919000001,2.5916239374238095
11.27898185,0.222812845582381,-0.5808719992333332,1.2453229767809526,2.6450943824238093
11.29579008,0.1811423698966667,-0.7061583172333333,1.1058693158857145,2.7103991431380954
11.31259615,0.13298613683952384,-0.7711131941333332,0.9653580529142861,2.7861555035190473
11.32940215,0.08856237218238101,-0.7661226391428573,0.8525145848238098,2.850924706238095
11.3462155,0.03538919346809529,-0.7119990728761904,0.7108426093476194,2.8935247184285715
11.36302043,-0.036009774317619,-0.6525140007142858,0.46942549653809557,2.8767483055714287
11.3798267,-0.1095097604223809,-0.6019347934428572,0.1364356222047622,2.816680922952381
11.39663797,-0.16621150005571422,-0.5533584668238095,-0.24864090060476163,2.7360466301904762
11.41344422,-0.17470095555095233,-0.5133176048333332,-0.5879386720809521,2.6517032899523807
11.43025188,-0.16621373806523804,-0.47609014453333326,-0.8302119346523807,2.595267743047619
11.44705713,-0.184375494717619,-0.47409036329047616,-0.9775894029380949,2.591216185809524
11.46386678,-0.26307427739857137,-0.4729895449761904,-1.0926247778904759,2.601211138714286
11.48066722,-0.35907352396523806,-0.393149628542857,-1.2253096217619044,2.5744609347142857
11.49748151,-0.44917162119857135,-0.28119610323,-1.3351901599571425,2.5083713185238095
11.51428988,-0.5361942095442858,-0.17741977318714283,-1.4223205248952377,2.4522096472857142
11.53109542,-0.6240356351633333,-0.08111866031095236,-1.4766637938666665,2.423383180952381
11.54790228,-0.7105747958014285,0.011223540408095272,-1.4558904966190471,2.4309387879999997
11.56471176,-0.7933332962680952,0.09201901014619049,-1.3270811126904758,2.472930813047619
11.58152676,-0.8656762086319048,0.1533801669033334,-1.1088697570714283,2.5370000842857143
11.59832953,-0.9325023080557143,0.20894485426523812,-0.8439611254047618,2.6206181147619048
11.61512298,-1.0126634481295238,0.2929969940509524,-0.5541405224523807,2.7170750200000002
11.6319414,-1.1065225189428571,0.3986518694938096,-0.2571155912142854,2.799893412952381
11.64875,-1.1858991313285714,0.4675240203985714,0.025333086595238405,2.8417845475714287
11.66556165,-1.2453775788857142,0.4322814458223809,0.28175519754761935,2.8640079335714286
11.6823668,-1.2930733887666666,0.2950565814128572,0.46985442292857177,2.9038088513809526
11.69916893,-1.3227126839380952,0.09996883065095241,0.5886148724761908,2.937094219904762
11.71598292,-1.3205183162380951,-0.1251471554442857,0.666898818214286,2.953530113809524
11.7327769,-1.270084815347619,-0.3634585256347619,0.7441286813142861,2.941874036904762
11.74959556,-1.1740677839,-0.5754118363966667,0.8462196985333337,2.9029605923809525
11.76640214,-1.0701748558190476,-0.7330972808728571,0.9496505146476194,2.8809094483333335
11.78321314,-0.9642335304142856,-0.8495853629204762,1.0287094569809527,2.892305784142857
11.8000181,-0.8423838799619048,-0.9332374902728572,1.071054458561905,2.9081731423809525
11.81682732,-0.7078923739142857,-0.9738194574204762,1.0516389210380954,2.9336955404285714
11.83363328,-0.5685992481999999,-0.9797840275204761,0.9997973895761907,2.9731411786190476
11.85044167,-0.42828301724761897,-0.9655660604428571,0.914588178866667,3.0211096376666666
11.86725182,-0.27662946067619043,-0.9238370870571427,0.7885237193761908,3.069181047714286
11.88405816,-0.11991138824761896,-0.8628820224095237,0.6301413263000002,3.117366422714286
11.90086388,0.024265969109523892,-0.7922941148904761,0.4303011212523813,3.1657099438571428
11.91767372,0.1489991049285715,-0.7049472261523809,0.15725773853809555,3.2000501339999996
11.93448072,0.24557419054285723,-0.5925167756714286,-0.15356290908095208,3.190817682095238
11.95129018,0.3341622750190477,-0.4819181434142857,-0.4575238227952378,3.1275203760952377
11.9680951,0.42499409404761906,-0.41084029424761903,-0.7303902535095235,3.0004320278095236
11.98489134,0.5150913652982382,-0.3799092358809523,-0.9585898490095234,2.8448189715714287
12.00170995,0.5980947258920477,-0.3463501036904762,-1.125173273533333,2.705658106004762
12.01852074,0.6728002641925238,-0.2491896848428571,-1.2380002566666664,2.5958053740904763
12.03533255,0.7237515023734763,-0.08750370717619045,-1.308383373980952,2.503224734995238
12.05213513,0.7568402134210954,0.10483538958571433,-1.30097623097619,2.4267420034714284
12.06893852,0.7752961523468097,0.29237594347142865,-1.2140226137142855,2.3537159390428575
12.08574937,0.7652899395863334,0.46189642659047625,-1.0540153639571426,2.3249742131380953
12.10256412,0.7048939416787143,0.6174722242809525,-0.8252522377476187,2.3892294257571427
12.1193651,0.6155087018215715,0.7415156265095239,-0.5692492666238093,2.516253225042857
12.13617187,0.5091292737644286,0.8417155529761905,-0.32729323700476154,2.640388615757143
12.15297823,0.3924516318739525,0.9168864389238096,-0.10025262829999969,2.7445624393761903
12.16979049,0.2815848468406191,0.9213522857114287,0.1567651885095241,2.8218212821857143
12.18659278,0.19526898506919052,0.8575215084257143,0.42942823684285747,2.880834209709524
12.20340683,0.1262542484658572,0.7408848518447619,0.6969481877000003,2.9473693041380953
12.2202102,0.07150393652776195,0.5559129516542859,0.9415312040333338,3.005992213995238
12.23700693,0.04311817813252387,0.31321948770190483,1.1521499270333337,3.061239645090476
12.25382703,0.04042314560395243,0.05742972522571436,1.338539418714286,3.1004857479476193
12.27063252,0.05273568275157148,-0.1646870800599999,1.5037393569771431,3.082285490614286
12.28744133,0.08034366723728577,-0.34236754410761894,1.6202540851533338,3.030515871614286
12.3042514,0.11214782013728578,-0.48588429467904753,1.6694079807723814,2.9974919204238097
12.32105211,0.15023478510871432,-0.5910108260123808,1.6448546591057147,3.015094299661905
12.33786645,0.19504770849619052,-0.6693660815790474,1.5775163059866673,3.0679664255190473
12.35467156,0.23895455755000009,-0.7265009539742857,1.467215992129524,3.1525221951333333
12.37148059,0.27404499266857146,-0.776085483202857,1.3270772752152384,3.239080107047619
12.3882922,0.30518091363523814,-0.8181276931790477,1.1542553220533336,3.344975264238095
12.4050939,0.322185504292381,-0.8414051575504761,0.9313613800723812,3.4702529895714287
12.42190428,0.3332518991952381,-0.8375219035933332,0.6696341832628575,3.599764247619048
12.43870975,0.3357229367604762,-0.8199796407219047,0.35539381845333373,3.684056040476191
12.45552524,0.3341676663776191,-0.8113827208885712,-0.02371692659428536,3.6783156891904762
12.47232432,0.31749560861571435,-0.7962614198790474,-0.4358398346895235,3.6133610590952387
12.48912843,0.29598816235857145,-0.7830430652695236,-0.8171757970704758,3.5358581586666666
12.50594126,0.28294996136809525,-0.7874367052885715,-1.1372822125942852,3.458281543714286
12.52273573,0.2665576338776191,-0.7613005425523809,-1.4011757487371426,3.367896882333333
12.53955582,0.22483653112523816,-0.6784864508333334,-1.5900842348942852,3.2505213895714284
12.55635252,0.15683423901428575,-0.5437557967285713,-1.721996920465714,3.144493796904762
12.57315632,0.0643310035714286,-0.3572716897999999,-1.7999955358942854,3.0532451496666666
12.58998173,-0.04520286836666662,-0.13423506000952373,-1.8230710029419042,2.950233316857143
12.60678416,-0.1578856934333333,0.08680507251428579,-1.8018329483847617,2.8477515404285714
12.62359908,-0.26356470025714285,0.25915271040000004,-1.7193972496476186,2.792344379523809
12.64039682,-0.3602475496428571,0.3604538672828572,-1.5560640834428567,2.8099164464761905
12.65721412,-0.44671913848095235,0.41631884003047626,-1.3163988249666663,2.8790634248571427
12.67401757,-0.5259817442142857,0.4326862102066668,-1.0342965807285711,2.9615926714285714
12.69082536,-0.6152319256190475,0.41374969251619054,-0.7913210732523807,3.0049710840952377
12.7076338,-0.7101546952666666,0.35711088686380965,-0.5929725510619045,3.0002261776190475
12.72443994,-0.7974575390190475,0.25323309695904767,-0.4290894780809521,2.9947701197142855
12.74125184,-0.8522791665,0.08319319341142864,-0.2388292721523806,2.997387819238095
12.75805533,-0.8681329461566666,-0.13939059435999995,-0.0366765658142854,2.994867265
12.77486402,-0.8640203462947618,-0.36003944505999996,0.1605655352152384,2.9649439508571427
12.79167122,-0.8494596652804761,-0.5316744086219047,0.3747084254152384,2.8892853410000003
12.8084819,-0.8165440106423809,-0.6477371746695237,0.5851970627152384,2.7743317746190477
12.82528764,-0.7628299765376189,-0.7260469873790475,0.7696806362485717,2.6344057724190475
12.84209567,-0.7032085587328571,-0.7646656754504761,0.9083960850771431,2.4987614708476196
12.85890157,-0.6491398102947619,-0.7798961012171429,0.9966452462247624,2.406262907514286
12.87571096,-0.5984219143533333,-0.7905108468933333,1.0314487729676194,2.357766108514286
12.89252361,-0.5416850235776189,-0.8149923719161905,1.000276701781905,2.339886554657143
12.90933387,-0.46505784570142855,-0.8516415550633332,0.9194518952104767,2.3045758490380956
12.92614262,-0.37122046246333323,-0.8885808240852379,0.8017716634961907,2.268325304371429
12.94293,-0.27612147025857137,-0.9130049072614286,0.6538189479247623,2.256724756561905
12.95975112,-0.1869364849633333,-0.9206216897328571,0.486940088734286,2.263323226847619
12.97654269,-0.10563215190619041,-0.8944125751709523,0.28900759559142886,2.2807701135619047
12.993365,-0.04323082171571423,-0.834889512672857,0.0454310008295241,2.274493014752381
13.01016171,0.0007255389290476732,-0.7649577188966665,-0.23737855183714257,2.2235118700380956
13.02698038,0.03902349582428576,-0.6923081548347619,-0.5091424896466664,2.1248872815619047
13.04378631,0.07806884387666672,-0.6055417671014285,-0.6986959321085712,2.0301018000380955
13.06059147,0.109865683862381,-0.49327725879190476,-0.7900694665419044,1.9556053554571429
13.07740661,0.14294255773380957,-0.35936271149666665,-0.8251286234147616,1.8604675321476192
13.09420962,0.1510448356480953,-0.17919981336809518,-0.8510801451528568,1.727264811904762
13.11102047,0.12926405242857147,0.039861947298571475,-0.8366063208766663,1.5862723848095237
13.12782434,0.09182127033333339,0.2527035545604763,-0.7536551384776187,1.503653567952381
13.1446355,0.056240716152381,0.39489766384619057,-0.6231017112966664,1.5235879616666668
13.16143924,0.027746332543809576,0.43564872371285723,-0.44816845940619016,1.6481825112380954
13.17825203,0.007303587024761956,0.3981747996128572,-0.26168843679666637,1.8175073253428573
13.19505491,-0.0035661430609523308,0.32631952279857146,-0.09662566867285684,1.9636859656761907
13.2118675,-0.0077781897228570915,0.26380819509380954,0.04132173175095268,2.0461927276761904
13.22867099,0.008220843616666718,0.21768589248428577,0.19051158996047649,2.109575579152381
13.24547858,0.04756040161714291,0.18554872701666672,0.36419144130333364,2.198766685342857
13.26228841,0.1055080344076191,0.15031450136857147,0.5278667949223812,2.284676731771429
13.27909429,0.17517386093142862,0.07837611436666672,0.6617976369700003,2.341089236247619
13.29590187,0.2601496286314286,-0.02203875639047615,0.7748510496509526,2.3844196989619046
13.31271028,0.34685581566952384,-0.1183032507285714,0.8826382045985717,2.408262099152381
13.3295226,0.4229835732790477,-0.20951944592857139,0.9833631742128575,2.3933258875809527
13.34632578,0.48458261642190487,-0.29586027635238094,1.0646748996557145,2.350230561390476
13.36313289,0.5298025501438095,-0.3799066458571428,1.119824046131905,2.3043900602952383
13.37993729,0.5549146625104763,-0.4605715956190476,1.134038153131905,2.2904990396761904
13.39673721,0.5685697282914286,-0.5390100365761905,1.0931861514033336,2.3246424015333336
13.41356186,0.581213186172381,-0.612422599695238,0.9937360400271431,2.3944173730666667
13.43036382,0.5717161822771429,-0.6568311623333333,0.8543981370619051,2.505472700947619
13.44717291,0.543706390124762,-0.677363313395238,0.6870265007285717,2.6440975063333334
13.4639805,0.5117115988676192,-0.6899048799714285,0.49254440130476224,2.772626798190476
13.48078855,0.4766281516914286,-0.7015283533666666,0.26077656525714316,2.844110632952381
13.49760413,0.43698641945333333,-0.6857660214285713,-0.009935992028571169,2.8355872495238095
13.51440334,0.39347489252857154,-0.6295591990333332,-0.3105347950761902,2.7478760619523808
13.53121194,0.35481130796666677,-0.5359486114619048,-0.5911858421714283,2.629151600857143
13.54801873,0.3242631597571429,-0.4163597595571429,-0.820417494933333,2.5527735585238096
13.56482529,0.2905584964380953,-0.2967414175571428,-1.0026749201714285,2.539949749857143
13.58163444,0.24760209311428577,-0.19338740631428566,-1.174773397838095,2.529871102
13.59844396,0.19393192802857148,-0.10558970211428566,-1.342989512780952,2.467882439809524
13.61524693,0.12373072127142865,-0.0018045505666666078,-1.4562387465542852,2.3995893217142856
13.63206045,0.04479539326480958,0.14195472281428576,-1.4643950688399998,2.367168749
13.64886394,-0.0476862000209047,0.29653746171904766,-1.3800978432352378,2.3543644117142857
13.66566027,-0.1365982329113809,0.4289182878619049,-1.2433631078495235,2.3784176598095237
13.68247917,-0.2093036904970952,0.5370778696619047,-1.0639681133685712,2.4492346959047615
13.6992877,-0.2687947713875714,0.6549624034190477,-0.855939501668571,2.5573640762380956
13.716095,-0.30538878477804754,0.7845947401619048,-0.6317949293828568,2.6754710356190476
13.73290415,-0.3395139538985238,0.9017211964952381,-0.435346739525714,2.7478639055714287
13.74970697,-0.37540295146995234,0.9661331659047621,-0.2659894397161902,2.7420032389999998
13.76652621,-0.40186244102233326,0.9454389526666667,-0.09803835543047588,2.7126792066190477
13.78332626,-0.4239107668080476,0.8402822642,0.07892545070761935,2.710588467857143
13.80013359,-0.4392852059032856,0.6645363739428571,0.2655763399552384,2.728824908190476
13.81694043,-0.4504315696651904,0.44326776547142854,0.44375251591714315,2.767089049619048
13.83375145,-0.4476125140937619,0.20799019789047626,0.6011301676647622,2.8189085985714284
13.85054435,-0.4138837840080476,-0.0083874691428571,0.7373379525980955,2.8647098256190473
13.86736595,-0.35601196830328563,-0.17266804835714283,0.8668459029885718,2.8891425367142856
13.88417104,-0.29353124330804753,-0.2842264516428571,0.995152110179048,2.895928992952381
13.90098023,-0.2403880230223333,-0.3742906934,1.1071895872123814,2.8648049846666663
13.91777526,-0.19770204029376184,-0.47032437722380954,1.165136882274286,2.794499292895238
13.93459646,-0.15645675008423804,-0.5759082918904761,1.1542166074171432,2.7824355066095237
13.95139081,-0.11912257758423804,-0.6731434691380953,1.0622894877409528,2.8486130354190475
13.9682135,-0.08817969193185708,-0.7644041010380951,0.8863336472285719,2.959508334514286
13.98501521,-0.07363690224428565,-0.8352908265257144,0.6387576829904764,3.0572436247523807
14.06905323,-0.06035467983952375,-0.8595159650304761,0.4719753038476194,3.008665279657143
14.0858686,-0.06527347083952376,-0.8632226473161905,0.2937060083952384,2.919949436990476
14.10267143,-0.07819505250619041,-0.8692708327923808,0.11020362946190507,2.7990552571333334
14.11948242,-0.08003656922523804,-0.8984729477923808,-0.06613819940095207,2.665223220085714
14.13628731,-0.0831413694966666,-0.9298447910304761,-0.2343528157069521,2.5401771369428574
14.15309697,-0.07561389323095231,-0.9433239216495237,-0.35667934871647583,2.4577507571333337
14.16990161,-0.03570844447380946,-0.9161580546257143,-0.4177323068974283,2.426131645704762
14.18671298,0.029093157664285767,-0.8161998505542857,-0.41526655923076156,2.418179976657143
14.20352119,0.11018012251666671,-0.6483358230733333,-0.36305402574980916,2.3821543931333333
14.22032564,0.18631292239285718,-0.419928076787619,-0.28871007194980924,2.3073969257523808
14.23714266,0.255326273879762,-0.17005269589238092,-0.19127607348314254,2.210723185704762
14.25393593,0.31719058752738105,0.06995377648380954,-0.07706571761171398,2.1199404597999996
14.27074964,0.3615822479940477,0.27311979300761907,0.03350323721685743,2.060851845657143
14.28756179,0.3688363220083334,0.41237952875952383,0.13300144101685746,2.0526010787523807
14.30436663,0.36276954838928577,0.4500285358261905,0.2311513763978098,2.109273253752381
14.32117217,0.37242578467500004,0.38637139396428566,0.35018750593590503,2.2385996251809526
14.33796998,0.40565810175119055,0.2714528469309524,0.519056751540667,2.416406913952381
14.35478958,0.4421057658702381,0.16265519169285717,0.7281501406359051,2.5293474531904763
14.37160414,0.4569798410083334,0.09475354913095241,0.9388853708740003,2.5253133648095236
14.38840285,0.4627440245511905,0.04790399179285719,1.151648453278762,2.4328002464761904
14.40520004,0.4773808419845238,-0.013227695576666618,1.3394101460559051,2.3086842643333334
14.42202033,0.47483836612738106,-0.10330157059571424,1.3630045027511433,2.299330052333333
14.43882717,0.45804987494642857,-0.20603201511952376,1.3271037055844763,2.321598579333333
14.45563366,0.4290078168988096,-0.30177249234809517,1.245479061422572,2.3715573336190476
14.47243363,0.38507932426071434,-0.38780289042428573,1.124841349380667,2.440160095
14.48925211,0.341430834375,-0.4785301856195238,0.9983700569723813,2.4998484564761903
14.50604675,0.30085175379166673,-0.5378819505861904,0.8514535085533337,2.574246725952381
14.522865,0.23847315711071435,-0.5464511883052381,0.6723324684009526,2.687759670238095
14.5396734,0.14690498227738102,-0.5323444889004761,0.44976799821047647,2.79324202
14.55648171,0.06211498523452385,-0.5194960889528571,0.21420839849619075,2.853153488285714
14.5732902,0.00710335233928576,-0.5133933112861904,-0.012478169979999685,2.8879473056666667
14.59009335,-0.03378859869999996,-0.48259232727666657,-0.22976514274190446,2.9081814327142856
14.60690784,-0.07540899513333328,-0.4216448891766666,-0.4416570436942853,2.917801023714286
14.62371388,-0.13060337870952377,-0.33477895031952376,-0.6379028275514282,2.9246674474285714
14.64052207,-0.17683485999999995,-0.2352922246428571,-0.7830447923990472,2.9030741915238094
14.72454724,-0.17504485871904757,-0.20955763968571423,-0.843349207065714,2.8408679972857143
14.741372,-0.1980854102333333,-0.13640671258095236,-0.9169773601609519,2.7398999668571427
14.75817471,-0.240112629647619,-0.014637417714285688,-0.9730099496371425,2.6250560136666667
14.77498119,-0.30025762318571425,0.12924240462466668,-1.0011469296371427,2.525413195190476
14.79179284,-0.3600526877714285,0.22420220862942858,-0.9756355058752377,2.494896491952381
14.80859705,-0.4182802892761904,0.2555377952294286,-0.8698325157561901,2.5605753034761904
14.82541018,-0.4819391284571428,0.2497547652294286,-0.6700732140571426,2.7052259674761907
14.8422133,-0.5416601981333333,0.21325906832466668,-0.4455542110380949,2.8507786927619048
14.85900821,-0.5885790472999999,0.15189464470561903,-0.2636982827047616,2.927759346857143
14.87582902,-0.6131810077666666,0.07156837702942857,-0.12057908375238063,2.9559331185238094
14.89263038,-0.6126746237333333,0.0066783499627619276,-0.007639975747618738,2.9221464586190478
14.9094434,-0.5922179151190476,-0.0362060225562857,0.06337924234761935,2.873888870047619
14.92624312,-0.5443697209904762,-0.07807300340390474,0.1555648304904765,2.7864095
14.9430606,-0.46445502626190477,-0.11885663861247618,0.295962424566667,2.6495947739142856
14.95985783,-0.37213813761904757,-0.17001128049819045,0.4606313706000003,2.4942446229999997
14.97667446,-0.3085147447666666,-0.2320641974267619,0.575397536914286,2.361298152647619
14.99348336,-0.2756067677761904,-0.31780925107438096,0.6551337015333336,2.2691377580761904
15.01028635,-0.2456272180714285,-0.43353257999819045,0.7053224018666671,2.200803803742857
15.02710109,-0.2116779422595238,-0.5614256021458095,0.7171549115809527,2.1532102588857143
15.0439074,-0.16974680126904756,-0.6840975383934286,0.6810204642000003,2.131804348171429
15.06071253,-0.1287799271928571,-0.7781534720124761,0.5663655371904766,2.156219571552381
15.07752419,-0.14966680253095235,-0.7317218468410476,0.35235579809523837,2.195625775552381
15.09432868,-0.17055900680428568,-0.657601271374381,0.1536810511428575,2.2289575712190475
15.11113566,-0.17924425646047615,-0.5852510900981905,-0.03394440247619016,2.236829352219048
15.1279474,-0.17274885306857138,-0.5426215813514285,-0.2110518955238092,2.2213890101714284
15.14475339,-0.1423790064733333,-0.5148635648800001,-0.3482598804714283,2.155193885852381
15.16155485,-0.10519345673999998,-0.4692708481180952,-0.517754781833333,2.0318203430047617
15.17836764,-0.06900601516523805,-0.3920907804085714,-0.7475686300714282,1.8551948433238095
15.19517497,-0.02590612359552377,-0.28866083994666664,-0.9750799906142853,1.687405986804762
15.21198411,0.0287443023311429,-0.15878544256571425,-1.1038865135285711,1.5497613296333335
15.22879031,0.09537912479304766,-0.042757769456190454,-1.1196784973619043,1.4513626182142856
15.24560121,0.16558582938352387,0.013732603610476209,-1.030425980033333,1.4495353471190477
15.26240318,0.20850230611209528,-0.004369701675238076,-0.8721915654619046,1.4988362612619048
15.27921807,0.21810364013590477,-0.0746963819085714,-0.7284026828428568,1.5805998245000001
15.29602162,0.20611144956923816,-0.16620463417142856,-0.6379433587761901,1.6604839879666666
15.3128309,0.19831200298828575,-0.22913394090476188,-0.5901801700952378,1.7075810932142859
15.32963652,0.22151057776923816,-0.24847246070476187,-0.5093292055999997,1.7410811394238097
15.3464262,0.271589157126381,-0.2394953881285714,-0.375126747980952,1.7814352559
15.3632527,0.33009217749780956,-0.23529028043809522,-0.22927116221904728,1.816915753138095
15.38006045,0.3827490409001905,-0.2736307184333333,-0.09772078202857111,1.8340716549476193
15.39686856,0.4159967104382858,-0.356919634947619,-0.021850903876190143,1.8365501791380954
15.41368119,0.43030517440019056,-0.46877801704285715,-0.0021874337809520603,1.857875702757143
15.43048368,0.4502423433859048,-0.5597209164285715,0.00047032031428602866,1.8673060789952383
15.44728004,0.4927795245354286,-0.6047775263014286,0.029500461695238407,1.8379372936619047
15.4640977,0.5311767430344763,-0.6260301016680953,0.038524650361905076,1.8287956715666667
15.48089658,0.5488089209330477,-0.6397609625633334,0.02854356307619077,1.834240339614286
15.49771194,0.5327123374997144,-0.6582701291447618,-0.02948118397619017,1.8870885822190475
15.51454146,0.49819665294257154,-0.70280479534,-0.10778888070952351,1.972972355161905
15.5313367,0.45909723212019055,-0.7686285546685715,-0.19571072718571397,2.0754322108904764
15.54813672,0.41948801561238097,-0.8206706515209523,-0.27471642269047586,2.1628581594095238
15.56494377,0.3786866295761905,-0.8361395682452382,-0.36381099339523776,2.2505560348190476
15.58175748,0.3167154419809525,-0.7924139073785713,-0.503980682038095,2.3362948183809524
15.59855712,0.23665634789523818,-0.7047949291119048,-0.6888049216571426,2.3672660560476193
15.61536874,0.17738154387142865,-0.5711135636833333,-0.8726527577047615,2.3357015050952383
15.63217789,0.13853930857619054,-0.4173070362071428,-1.0098527953190473,2.2656948096666665
15.64898464,0.1083560685142858,-0.2755250362547619,-1.090878327633333,2.206826480714286
15.66579098,0.07531645466666673,-0.15704472854047616,-1.1336777323238092,2.195109259761905
15.68260167,0.023819281928571495,-0.05648096962142853,-1.168235574390476,2.2091562571428573
15.69940569,-0.03114635037619041,0.04682811959285718,-1.2156033515190474,2.2091271894285716
15.71621751,-0.09530270810476184,0.17709347754047622,-1.2223607244238093,2.22977335152381
15.73302261,-0.16629082106190468,0.3336577416357143,-1.1718512716142855,2.258998310238095
15.74981947,-0.21962268863333326,0.48617766592142864,-1.0298096111476187,2.2653708375238093
15.7666393,-0.24724513079380944,0.616178399102381,-0.8103300048619043,2.2224324830476188
15.78344844,-0.269333591065238,0.695901975807143,-0.5613562492428569,2.2069791783809523
15.80025335,-0.29859124266047615,0.7136553611704762,-0.3235938661952378,2.266892609142857
15.8170633,-0.31919448077476187,0.7146373902704762,-0.07662091933809496,2.33881525852381
15.83385907,-0.32568275147952375,0.7235940326514286,0.1506457329000003,2.3942215854285713
15.85067751,-0.32375088334142854,0.7502264068947619,0.3394412994714289,2.402025019619048
15.86747279,-0.3125881112747618,0.7813331215852382,0.5351295017095241,2.3808097104285713
15.88429471,-0.2993759527080952,0.7709198949185715,0.7701655569476193,2.377912264380952
15.90109982,-0.28415954538904753,0.6778252508328573,1.0012635503285718,2.419828427095238
15.91791176,-0.2661072867271428,0.49792259793809523,1.1678101448523812,2.4922032134285717
15.9347141,-0.24621346025095234,0.2818169665333334,1.2623338018000003,2.548037984761905
15.95152569,-0.21922369372238087,0.09213950100952382,1.3023848306095243,2.574843442238095
15.9683333,-0.19147280568380945,-0.03566053218095234,1.3056804565619051,2.580461886428571
15.98513888,-0.16459760211714278,-0.10318783629047615,1.2815328778904764,2.578619036904762
16.00194967,-0.1464574223457142,-0.13730154430476188,1.2295530863476192,2.586489644809524
16.01875535,-0.14298173926952373,-0.1760651951095238,1.142759595514286,2.606069224857143
16.03556165,-0.14437865217428564,-0.242451386747619,1.015390577676191,2.640208000047619
16.05237056,-0.1462612308171428,-0.3419347092619048,0.8487985473761908,2.6739578606190477
16.06917861,-0.13495791241714278,-0.4639528818904761,0.6318334169476193,2.685766908761905
16.08598737,-0.09998876707428565,-0.5660298991285714,0.39990842894761935,2.684091256809524
16.10279652,-0.05894166656476184,-0.6153237393366666,0.17097162051904796,2.6886442753809527
16.11960142,-0.03031041862809517,-0.6112342192461904,-0.05625048152857109,2.7051564832857147
16.13641034,-0.010811096137618976,-0.5768397080938095,-0.29952830376666634,2.7132223014761907
16.15321834,0.005717424419523881,-0.5329211836319048,-0.5560308639571425,2.6842851568095236
16.17002474,0.015181184533809598,-0.5046699727938094,-0.7904032299571424,2.6128704337619046
16.18683245,0.02538663930523817,-0.4824578705080952,-0.9551589603666664,2.5333290532857142
16.20364201,0.05298276175761912,-0.4610881890366666,-1.0436524437619046,2.486165106190476
16.22044795,0.0854179277385715,-0.4264982583795238,-1.1031424659523805,2.439021340833333
16.23726178,0.13273505229095245,-0.3604318437114285,-1.1885188875571426,2.342766277266667
16.25405252,0.1833135301290477,-0.24969327252095233,-1.2740805490571425,2.211829111438095
16.27086909,0.2195813088290477,-0.09214396506380948,-1.2789849327714282,2.08396173567619
16.28768826,0.24100105607238098,0.06531212071714292,-1.1483686539095235,2.0202730728190477
16.3044869,0.24875574453428578,0.17164025614095244,-0.9323467981952378,2.0206763365809524
16.32129966,0.2316615056528572,0.20884390012190482,-0.7175019582904759,2.0561976510095237
16.33810272,0.19582014567190484,0.1853650557885715,-0.5361121950047616,2.1121595593428575
16.35491135,0.1656956133480953,0.12621060773142861,-0.3788326354809521,2.155157470580952
16.37171794,0.17331530083476196,0.06604826500285717,-0.15722315657619013,2.2162560807714287
16.38851894,0.21271358502047627,0.026838359874285754,0.1692143848523813,2.3212969785333333
16.40533264,0.2656460404442858,-0.007054529939999956,0.5277427718523813,2.429486473342857
16.422144,0.32367440915380963,-0.05126534421619043,0.8464983304238098,2.4942309784380954
16.43894882,0.3698028808633334,-0.10986308631142852,1.0733168011857148,2.5018889995809523
16.45575728,0.41072322356333335,-0.172220927817619,1.1896791231304764,2.4703158339142854
16.47256875,0.46562876303000006,-0.23301949052714283,1.2369783038447624,2.4585173299619045
16.4893732,0.5275053240061905,-0.28347520478904753,1.2722261519876195,2.4463147626761903
16.50618321,0.57149151963,-0.3199103888080952,1.295695395701905,2.4324045502
16.5229852,0.5913615510585715,-0.3469610826319047,1.2995390664638098,2.4236846836761905
16.53980262,0.5872966930966668,-0.39352100111285704,1.2616449537304764,2.420670682914286
16.55660263,0.5541038953109524,-0.4589145369795237,1.1668292680780954,2.4568018383428574
16.57341123,0.506735963482381,-0.5219019355128571,1.0126520337923812,2.541817974080953
16.59022033,0.44781286092047623,-0.5595408770285714,0.8255921999209528,2.6695794541714286
16.60702808,0.38271639460619056,-0.5653800190857142,0.6095984776590481,2.8230564763809523
16.62383406,0.31995936802523817,-0.5516703082666666,0.35040476208761945,2.9747963300952383
16.64064238,0.2714871714533334,-0.516200212847619,0.02944664727809563,3.0714550561428573
16.65745253,0.23497004594380957,-0.4543374432666666,-0.30190679005523774,3.107854182904762
16.67426231,0.21572406093428578,-0.37133654206666655,-0.5909044401980948,3.128355753761905
16.69106538,0.21147331879619052,-0.27479153267142853,-0.8182381221504759,3.134420000047619
16.70787553,0.206691425472381,-0.1728211211714285,-0.9873617717219044,3.127529414904762
16.72468276,0.17752223639523818,-0.06843949744761899,-1.1598459425314283,3.0634403841904763
16.74149089,0.13280392119047624,0.03008657450952387,-1.3505368459695235,2.9220273102857144
16.75829972,0.07402683723809529,0.13994795407619054,-1.5207774752552379,2.774384174
16.77510605,-0.015078025190476126,0.26375860864761913,-1.6180255072076188,2.678425342714286
16.79191476,-0.12153081950952374,0.37573635615714296,-1.61507860816,2.654252977761905
16.80871193,-0.24272120850952375,0.4441145364238096,-1.4982631773904758,2.683396187809524
16.82552546,-0.38281133346190466,0.4662462490857144,-1.3061983925333331,2.6989114936666665
16.84232731,-0.5229952250333333,0.4487549616666667,-1.0930963242952378,2.7170995378095237
16.85914703,-0.6438134596523808,0.4173271638509524,-0.8833309354380948,2.7438372234761905
16.87593146,-0.7478446364142857,0.380686329612381,-0.7248411631523807,2.7630007667619045
16.89275957,-0.8292883861285715,0.34837638872666676,-0.6325007391952377,2.7714992052380953
16.90955585,-0.8720072379809525,0.32519498717904766,-0.5365083102666662,2.750372877238095
16.92637326,-0.8816899188619047,0.295645433912381,-0.3949637184571425,2.6981674149523807
16.94318747,-0.8791683188190476,0.23719627056952386,-0.20007467258095207,2.6395184204761906
16.95999509,-0.8700891094238095,0.1496403966266667,0.01628639594761937,2.5631605030952382
16.97679591,-0.8424828988857143,0.04803507106476196,0.23330763417619083,2.461374364190476
16.99360256,-0.813383566452381,-0.043250959468571375,0.44410437640476225,2.3268512969047617
17.0104176,-0.799792103795238,-0.11448506932571423,0.660122985019048,2.1971269432380955
17.0272231,-0.8059683966904762,-0.2013136303828571,0.8733028912095241,2.1192158667142857
17.04403092,-0.8136440415904761,-0.33469809657333327,1.052962167019048,2.096756414857143
17.06083706,-0.8156544892285714,-0.5100505621447619,1.1649518240904766,2.1197448865714286
17.07764438,-0.8115150942428571,-0.7028286159066666,1.2013200124952386,2.1649379934761903
17.09445416,-0.8100689947333334,-0.8615963161447617,1.1514883950476194,2.185683441666667
17.11126113,-0.8084783766666666,-0.9650627389209523,1.0495058241952384,2.157404052952381
17.12807514,-0.7917028565904761,-1.0180666347644285,0.8952723003857147,2.1213813165238093
17.14487567,-0.7641475299714285,-1.0252074613739524,0.7015086128619051,2.1048378016190474
17.16168535,-0.7196592283609523,-0.9977723927977619,0.508579208766667,2.0710632972857144
17.17849483,-0.6511068151990476,-0.9560643491501428,0.3344856443857146,2.0060323315714284
17.19530168,-0.5747966006704761,-0.913039667288238,0.1701372237380956,1.9183149035238094
17.21210608,-0.5093681450228571,-0.8819674594296666,0.004224368504762245,1.8288217329523808
17.22891239,-0.4413698762609523,-0.8341421031053807,-0.12057735808095205,1.7784151080000004
17.24572829,-0.3613125064561904,-0.749000563548238,-0.16329170410476154,1.7742367766190477
17.26254584,-0.2990691243180952,-0.6166753201720475,-0.15573011127619013,1.799144734809524
17.27933562,-0.26759260537999996,-0.4467439141244285,-0.1404414858285711,1.8309924643809525
17.29614154,-0.23625873738857137,-0.26156675821966663,-0.1345609483380949,1.8248742153809523
17.3129559,-0.17381240427428565,-0.08445163007680948,-0.09023457481904726,1.8078477099999999
17.329742,-0.11434529437904754,0.07222881763747624,0.007425353619047985,1.8253993479047619
17.34656934,-0.07808530827428564,0.18431593965176193,0.13468006677142894,1.8848340336190477
17.36338075,-0.04573829578571422,0.23042890846128575,0.2333570662047623,1.9586363356666667
17.38018258,0.0023513794633333975,0.23490587009938102,0.2826426370142861,1.9892620854761904
17.39698479,0.05813960553476197,0.23652240486128578,0.30056004296666705,1.9951798747142857
17.41381101,0.11241767413476197,0.25591973176604765,0.3222158068476194,1.985815178047619
17.43060866,0.18100694141095244,0.28785851171842863,0.398004213966667,1.9886417697619045
17.44741777,0.2564719223585715,0.29905069162319053,0.5435098920428575,2.0438565009047616
17.46422463,0.32645480158238105,0.2553135100184286,0.7205521719904766,2.1484060616190477
17.48102685,0.38994963432523816,0.14665144400476196,0.8660949979904766,2.217351410809524
17.49784593,0.4459060576109525,0.0019980413904762393,0.9430528822952385,2.243762579047619
17.51465072,0.4906024035385715,-0.14057616959523805,0.9310720080571432,2.3011411926666665
17.5314555,0.5203896785909524,-0.25660423437142854,0.8273458481047623,2.417589524
17.54826414,0.547529978062381,-0.334786545647619,0.6854580924666671,2.5560801891904763
17.56507192,0.5896055098909524,-0.38425769974761903,0.5615757079380956,2.679573208190476
17.58188031,0.6277905486052381,-0.4363368011523809,0.45709280742857183,2.7677998568571427
17.59868678,0.6497781925861905,-0.5130086200285714,0.3547824905428575,2.8190455416666667
17.61549637,0.6715304620814286,-0.6374734157238094,0.23595503402380988,2.8377596175714284
17.63230552,0.7045057852242858,-0.8002654058190476,0.10622269771904798,2.8418968359047616
17.64910837,0.7139374326280953,-0.9482615248666667,-0.02702379221904727,2.8480982441904765
17.66591815,0.6783136814023811,-1.0430714856285714,-0.19168024969523773,2.8446622886666666
17.68272891,0.6343189250766668,-1.0878391180190474,-0.3982058706476187,2.815675951
17.69952919,0.6113403992914287,-1.0978155646476189,-0.6234040486952378,2.776034012666667
17.71634274,0.6136318491266668,-1.0666311269190476,-0.8300141379809519,2.7258501665714285
17.73314808,0.612719661417143,-0.9831724421809523,-0.9946029754095236,2.681772849809524
17.74996222,0.5874160279790476,-0.8553577689428571,-1.1135669889904758,2.6328016137619046
17.76676427,0.5380253756314287,-0.6958678364190475,-1.1840604600285711,2.590958076761905
17.78355619,0.4584314816028571,-0.5322387927523808,-1.2484046845238093,2.543889830952381
17.80038209,0.36983161241238105,-0.38556510208571415,-1.3488731384190473,2.470653154142857
17.81718548,0.28762348136476196,-0.2409369235619047,-1.4613798232428568,2.3770894860476193
17.83399856,0.21438866781238103,-0.0753073947523809,-1.5034965787857137,2.3100679746190473
17.85079044,0.14763488015523815,0.09514635800952387,-1.4596760159714282,2.2508025815714285
17.86761456,0.07883496438380957,0.24990583320000004,-1.3323806126952378,2.1709431185714285
17.88441913,0.005689342083809577,0.3620333700190477,-1.0993763151714282,2.074245365952381
17.90122594,-0.06640051874476186,0.41596101297142857,-0.8054581596476188,2.0023365535238096
17.91802653,-0.14849216102571422,0.4288696419809524,-0.5161048797904758,1.9613535480476192
17.93484128,-0.21354237411619043,0.4170131144285715,-0.27391590388571396,1.923372355809524
17.9516551,-0.26163854130666664,0.4245405935347619,-0.09504847298095206,1.8692395632380951
17.96845844,-0.308873462535238,0.472291983334762,0.04080066228095271,1.7978761152857143
17.98526868,-0.34802029175428567,0.5182653637442858,0.16153281075714318,1.7148561904190476
18.00207657,-0.357177259667619,0.5131055201728572,0.2922862143809527,1.682504731942857
18.01888145,-0.3431044036466666,0.4415317887442858,0.43199927468571464,1.695944012419048
18.03567548,-0.3239758124685713,0.3091562447061906,0.5672896022238099,1.7320153635142859
18.05250052,-0.3090391737404761,0.1502400778442858,0.6604609716657146,1.7677772863238095
18.06930719,-0.3069968638738095,-0.0028182807461904096,0.6924388068276194,1.8076382725142859
18.08611206,-0.2875737860133333,-0.12821068367476182,0.6993070330276194,1.8295233797523807
18.10292096,-0.2514722106038095,-0.2170735455985714,0.694608370494286,1.8230244448
18.11973183,-0.20282538306571424,-0.28723602924190467,0.6626890273609527,1.7981531590285713
18.13652824,-0.16284287330904756,-0.35163175213714276,0.5911897023800003,1.7711265009809525
18.15334843,-0.13228349246142854,-0.4137558313019047,0.5292057764228575,1.7344361618666668
18.17014863,-0.10277399101809519,-0.47130545552523795,0.48702898482285745,1.6813983631619045
18.18696139,-0.07006189333999994,-0.525762691412857,0.42181364698000035,1.6389957320190476
18.20376868,-0.02663364687333327,-0.5737939647366666,0.3291006088609527,1.6404864097809524
18.2205782,0.0270200275933334,-0.6085165441176189,0.20512201677523842,1.6681209853047623
18.23738351,0.08408344253142865,-0.6118608273319047,0.028419290346666997,1.6912137694952383
18.25419465,0.13761822417904768,-0.5814461608842857,-0.17307778760571396,1.6702245478285713
18.27099583,0.19491735987428577,-0.5362842693319048,-0.3530441692247616,1.6101571364476193
18.28780904,0.24091303526000005,-0.4844300250319047,-0.48055946252476156,1.5535514022095238
18.3046073,0.27241482656476196,-0.44765449564761906,-0.5507750510571425,1.527994423395238
18.3214242,0.2993774389219048,-0.4259378072904762,-0.6002862793428568,1.5282736844809526
18.33822202,0.3289942489504763,-0.37937906385714276,-0.6471955662095235,1.5402543160619047
18.35503761,0.3565396017257143,-0.286316390547619,-0.7086741810190473,1.5110171280619047
18.371848,0.36873902913047624,-0.14982002549523804,-0.7702778179857139,1.4444404368428572
18.38865051,0.3691292110685715,0.013511468961904815,-0.805496056818095,1.3503102988
18.40546642,0.3821335041161905,0.16602548389523814,-0.765960988488571,1.2667876849904762
18.42226623,0.4077265805495239,0.28806851448571436,-0.637481575840952,1.2374515752761905
18.43908057,0.4098924103971429,0.35006048707619053,-0.49998471842190445,1.2382847315619048
18.45588329,0.3882427630685714,0.36487839477142864,-0.3712205204980949,1.2728861279904762
18.47269774,0.3609545844647619,0.35263275816238104,-0.2507306734219044,1.3068368933333334
18.48950041,0.34818084715571435,0.34296637773571437,-0.11990935456476158,1.3279635771904763
18.50631134,0.34378982548428577,0.3536187353576191,-0.0016507874742853598,1.3637188847809523
18.52311669,0.34563059324523815,0.3703220259571429,0.08158404490190511,1.4106793459619047
18.53992389,0.36017801931952387,0.39100740069238105,0.22054202219238134,1.4926774255333333
18.55673347,0.35657362001476195,0.41229396206857144,0.44971109576380985,1.5919256949142857
18.57352883,0.3458445540528572,0.37896451212095245,0.708494231859048,1.6689476916761907
18.59034997,0.34174752945285725,0.2807435080876191,0.9420412154780957,1.7108211820095238
18.60715427,0.3213033179480953,0.16042284735428575,1.077083723906667,1.7119043288190479
18.6239633,0.2881449021090477,0.06656691572571434,1.1076281411400002,1.701876500247619
18.64076897,0.2712455718328572,0.0006619634923810072,1.0706055504876193,1.7192596912
18.65758463,0.2872695426185715,-0.046860354302857087,1.0054257710676193,1.7595070430142856
18.67438638,0.3102776734614286,-0.08304721118442851,0.9604849588057146,1.7881643292142857
18.69119561,0.3056443404566667,-0.12291682336061899,0.920292763481905,1.8075507702142861
18.70800451,0.27800652100904766,-0.17790296249871423,0.8709662300961908,1.8363954551190473
18.72481416,0.23818308682333342,-0.24760247981299996,0.7958095187104766,1.889619439671429
18.74161831,0.2009719482471429,-0.31499826625585703,0.6735125496238099,1.975534372904762
18.7584436,0.15195844428523816,-0.34687392201776185,0.4878756659476194,2.0751128392380958
18.77523638,0.08780211068047625,-0.3355520140653809,0.24272696175714317,2.143725810142857
18.79203254,0.02720267006142863,-0.2776149199225238,0.004806790995238445,2.206681323904762
18.80884891,-0.017123013738571363,-0.2025990968844285,-0.21122773490952346,2.2562533056666667
18.82564556,-0.048509661644285655,-0.11803992448919041,-0.3911426635285711,2.3022017264761905
18.84246656,-0.07775765374428564,-0.04773697826252376,-0.5392811639095235,2.332289220142857
18.85926885,-0.10433872115857137,-0.012913424338714235,-0.6496964863571426,2.325650363904762
18.87608396,-0.1407764398009523,-0.0029961197101428024,-0.7068511417904758,2.3081767138571427
18.89288984,-0.19495191603428566,-0.013363388314904705,-0.7882901146238093,2.2423951117619048
18.909692,-0.23382037169619044,-0.027425821329190418,-0.926037016380952,2.115341472238095
18.92649409,-0.2861684291247618,0.022994115247000062,-1.0892051969523806,1.993802498904762
18.94331274,-0.353989869367619,0.1358194152803334,-1.2280855633285712,1.9041254394285714
18.96012232,-0.4072970506819047,0.2706640987565239,-1.2705133529190473,1.8710533376190475
18.97692887,-0.44547168557142847,0.3736759509565239,-1.2272555033619044,1.872938716904762
18.99373623,-0.4836366020666666,0.41821279130414296,-1.1056814193619044,1.8722778550476193
19.07777685,-0.5451824282047619,0.41882969511842866,-1.0030138378904758,1.8337096343095238
19.09459022,-0.5722405953190476,0.392737497904762,-0.8696394874619044,1.8422614622142857
19.11139225,-0.5584086733333333,0.3511161279333334,-0.6553615842238091,1.9413234744523808
19.19542911,-0.5707622213142857,0.30738234095238104,-0.6805437859380948,1.9850225801190478
19.2122413,-0.5544371988201904,0.28953901502380963,-0.626428626780952,1.9504530891190475
19.22904642,-0.5287412830887619,0.28519590839047626,-0.4784004801380949,1.8707713561190478
19.24584891,-0.4976433884649524,0.2574922031000001,-0.2655118533285711,1.7985693814523807
19.26266088,-0.47697963318399994,0.20250486335238102,-0.06124348864761869,1.6960741650238096
19.27945174,-0.4633883237935237,0.1310388176333334,0.05530504958095275,1.5867495050714284
19.29627729,-0.44012391709828563,0.05803607619523817,0.077023460819048,1.550444461547619
19.31308463,-0.4066069963497142,-0.009771945911428498,0.041616212819047996,1.559481095690476
19.32989022,-0.3706731299601905,-0.06445862705904754,-0.04291202903809486,1.6101610681190475
19.34670377,-0.3319079946929523,-0.09233955826380945,-0.1432380448761901,1.6743698203095239
19.36351434,-0.3023576637119999,-0.09197709390190467,-0.24332766301428532,1.7232788259285714
19.38031797,-0.28523116594057135,-0.07886141538761897,-0.34747166856190437,1.759813939261905
19.39712233,-0.29826364205009515,-0.0803565170114285,-0.435770920280952,1.7949385452619044
19.41393538,-0.3077513731691428,-0.10614838203047611,-0.48509808942857097,1.8095865128809525
19.43073897,-0.31753584460723805,-0.12338307074476182,-0.4901425724333329,1.8085286215952383
19.44755789,-0.3278700411310475,-0.12189499255428564,-0.48125977737142817,1.8179612539761907
19.46435626,-0.34200684938819037,-0.1084799795161904,-0.4826177187714282,1.8359740070714285
19.48116322,-0.3641322524739047,-0.06793049690190468,-0.5267449106095234,1.8406249179285712
19.49797188,-0.37492021066438086,-0.008661456078095167,-0.5248093604666663,1.865317677190476
19.51476655,-0.3908076414024761,0.05079132741714293,-0.5386414527523806,1.8558738132857142
19.53159159,-0.4020740205310476,0.11317394032666675,-0.6079752558476187,1.7799324864285713
19.54839401,-0.36498820923580944,0.17839429916380958,-0.423496337133333,1.7543923746666668
19.56520744,-0.3435446861251428,0.20448173084000004,-0.2971875326714282,1.7863844731428573
19.58201022,-0.3414722581708571,0.20028492806380957,-0.2443650563142853,1.8312707601904759
19.59881755,-0.3558319565803809,0.1952843112400001,-0.2629871367952377,1.8195391890000001
19.61562681,-0.3485147853703809,0.18343140539714292,-0.3151101611476187,1.809068849047619
19.63243298,-0.306758013513238,0.17584557334476197,-0.29562191731904724,1.8041283563857144
19.64924159,-0.2600982643370476,0.1727489559400001,-0.12973106469999962,1.7708085182428572
19.66605169,-0.21302976211419042,0.13222450868952387,0.15272238149047657,1.7929043721952378
19.6828419,-0.15792766073704756,0.03768181659904769,0.505210763014286,1.8536778376714287
19.69967161,-0.11463344099476183,-0.10385899881523802,0.8073787235857146,1.927556954052381
19.71647258,-0.0759316654661904,-0.26979485861047614,0.9866681781095242,1.9927931244809522
19.73327948,-0.045912685870952305,-0.3990938067009523,1.034724871414286,2.0169389837190477
19.75008858,0.010448438762381025,-0.4600298929247618,0.9910339855571434,2.0607318767190477
19.76687506,0.08306770096238102,-0.462330815285238,0.9175097829428575,2.1159831530047617
19.78370577,0.15484292734333338,-0.45874301587095234,0.8074727740380956,2.1824722562428573
19.80050478,0.21640183810047625,-0.47820465898523806,0.6814632870428575,2.221805930147619
19.81732262,0.2598644154195239,-0.5197172760233333,0.550983088414286,2.251515846338095
19.83412571,0.2859033005385715,-0.5711496585109523,0.44986050477619083,2.2640295615285715
19.85093405,0.2932108214719048,-0.6216031723709523,0.34311623806666697,2.2740587251476194
19.86774683,0.2649488704338096,-0.6518766751538094,0.2104234468761908,2.288496471766667
19.88455896,0.20854649371476197,-0.6510988756966667,0.043653488209524166,2.297405457957143
19.90136104,0.14328480332428578,-0.6184418002004761,-0.1396894454571425,2.3124750244809524
19.91816499,0.075716211662381,-0.5601439617195237,-0.32461513788571394,2.3271760556238092
19.93497889,0.02952378702428577,-0.49721688166714284,-0.4802930695523806,2.3239142949095237
19.95178356,0.0022903992814286224,-0.43348343308142856,-0.5614737783047616,2.3102371887666666
19.96859056,-0.02519414824285709,-0.3603115251528571,-0.5531406175390473,2.2993949564380953
19.98539891,-0.07397626413333327,-0.2858073228338095,-0.5402883120790473,2.303451903504762
20.00220969,-0.1368019666190476,-0.22287301217190467,-0.6246705963552378,2.2877987205999997
20.01901667,-0.2158917784904761,-0.1347813378623809,-0.8014600163552378,2.1964242749333334
20.03582265,-0.3029810786285714,0.0032383317566667203,-0.9986077490447617,2.0451619493619044
20.05263143,-0.38225349358571425,0.1946535962328572,-1.1294025012495237,1.923717635838095
20.0694374,-0.4499835116571428,0.4135961135661905,-1.1593045053447615,1.8673479896000003
20.08624512,-0.4955023186619047,0.5909016075661906,-1.0734713645542853,1.859450522552381
20.10305573,-0.5318669918142857,0.6952759708519048,-0.9138223103161901,1.8199231892666667
20.11985968,-0.5698815116,0.7249841349314285,-0.7450281325066663,1.7635534090761904
20.13667003,-0.6126780666190476,0.7102914310504762,-0.5633656865542854,1.7025073953619045
20.15347688,-0.6560581965238095,0.6629908765933334,-0.39629861288761875,1.6562948233619046
20.17028461,-0.6788131069714285,0.5984066582742857,-0.23300743107809488,1.623753272552381
20.1870809,-0.6832631755619046,0.5303950621904763,-0.11398478923999963,1.6178255988380954
20.2039011,-0.6759544738857143,0.45959563906952394,-0.04362923763666632,1.6184813663142859
20.22069643,-0.6703506523809524,0.37864854932380954,0.004196621091905111,1.624021583695238
20.23752402,-0.6618647305904761,0.2889692698333334,0.0991717973823813,1.611174789504762
20.25430382,-0.6382300570047619,0.1679283579285715,0.27027704595380986,1.6246156840761905
20.27113205,-0.602135404247619,0.0160026692476191,0.46063364114428607,1.6673505854095239
20.28794039,-0.5756276562238094,-0.140398838647619,0.6076632453823813,1.7322792337904762
20.30474653,-0.5607108573238094,-0.3056539126238095,0.6778034936395242,1.832530631838095
20.32156648,-0.5428354470619047,-0.49122858326666663,0.6843012400595241,1.9559934715952383
20.33836309,-0.5143083908833334,-0.6785870449285715,0.6749247141804765,2.0586326841428573
20.35517125,-0.47667401816904753,-0.8237413224142858,0.6680593490138099,2.108220682904762
20.37197756,-0.43557137322619044,-0.9131791988476191,0.6541000547423812,2.102240252714286
20.38878951,-0.3863545620785714,-0.9715884668033332,0.5998843056223813,2.0927226534761907
20.40559189,-0.32823832475476183,-1.0330274345890476,0.4868714922557147,2.0839346425238094
20.42240668,-0.26165204034523804,-1.115700469893095,0.3285270191128575,2.0826535705714284
20.4392122,-0.1907899826833333,-1.2079069962454763,0.1517705463033337,2.1095292765714286
20.45601905,-0.12146928267380945,-1.293732876602619,-0.01272421793476156,2.156008935238095
20.47282577,-0.04666674776428564,-1.349816696297857,-0.15335880007761868,2.203526625238095
20.48963446,0.037113819111904825,-1.360518341287857,-0.28512534641095205,2.231221963904762
20.50644237,0.11805778673095244,-1.310196194645,-0.3991849308871425,2.244815831285714
20.52325221,0.1791017502785715,-1.1991591446688095,-0.4847700255014283,2.243765858095238
20.54005701,0.21454307226428573,-1.0591099936688095,-0.5328708603014283,2.240171211904762
20.55686678,0.2272181787880953,-0.9195341546211903,-0.5478558540095234,2.2293631034285717
20.57367474,0.24546007388333338,-0.7978643371021429,-0.5426763125571424,2.1911865253333334
20.59048063,0.2647812175119048,-0.6961327273783333,-0.5748260361571426,2.1468186699238094
20.60728934,0.2697229562976191,-0.5723013814545238,-0.673984459433333,2.067795153538095
20.62409849,0.26223835421666675,-0.40189099250214283,-0.7888240132666663,1.9715136065857142
20.64089253,0.24829208923571436,-0.19759683888309523,-0.8686386970952378,1.8954047904428568
20.65771236,0.22929571570714297,0.03124194545023812,-0.8831445829952378,1.8366707632047619
20.67452274,0.20533207983095242,0.2694811032121429,-0.8186776524142853,1.7868981917761906
20.69133061,0.17451217488571433,0.4820202992121429,-0.6949493998142854,1.7717863167285715
20.70813867,0.13418702711904767,0.6154204868216667,-0.5004389398952377,1.836695936442857
20.72494363,0.09779110552380958,0.6489946507359525,-0.2598708697190473,1.9745983340142854
20.74174372,0.05167529697619054,0.6285808659821429,-0.009073825052380588,2.1162725692047624
20.75855889,-0.004427010095238033,0.6017294659583333,0.2533524604238099,2.226366474252381
20.77536657,-0.057431133009523745,0.5947382492242858,0.5582754952809527,2.3247507387761908
20.79217371,-0.08584754380476184,0.5958589698147619,0.8948110626142861,2.415741145157143
20.80898398,-0.10463231091904754,0.5752201633147619,1.1618741353761908,2.4583125896809523
20.82579159,-0.13410247079999996,0.5066037603004762,1.3413651330428575,2.480941650966667
20.84260434,-0.16935286494285706,0.3936016927714286,1.4263781593285718,2.499987901442857
20.85940183,-0.19675370626190472,0.24451605755714287,1.4292292368047623,2.5450772879190473
20.8762201,-0.2020478475761904,0.08009518036666669,1.3717840967047623,2.6044517560619047
20.89302486,-0.1767678913714285,-0.07207471139523808,1.2827787853809527,2.661593015633333
20.90982964,-0.1195392949571428,-0.19616336206190474,1.2009768940571433,2.7204353545857143
20.92662674,-0.051340956080952314,-0.28747752177142855,1.123842194019048,2.792003017157143
20.943448,0.002343729828571498,-0.35360271600476195,1.0422352609476195,2.870179834614286
20.96025878,0.042147667619047695,-0.42044344696666663,0.9717919259380956,2.930497605761905
20.97706199,0.07400598978571435,-0.5082755288285714,0.8981616156761907,2.9750680707142854
20.99386948,0.10065905251485721,-0.6210907187714285,0.7897666068857144,3.021832902809524
21.01067432,0.13082455877200005,-0.7395205895952381,0.6426204500476194,3.059263887904762
21.0274904,0.14831753286247626,-0.8319911858142858,0.4484016328095241,3.070637745952381
21.04429292,0.1530148982815239,-0.8876070026095239,0.21941180461904794,3.0524501609047614
21.06110147,0.1464434805196191,-0.9037133427571428,-0.04830439880952349,2.9916433625714287
21.07791055,0.1344430418100953,-0.8850993848238096,-0.33581697366666635,2.893989437095238
21.09471906,0.11857736391961911,-0.8563146825999999,-0.6107347578571426,2.788375527285714
21.11152525,0.0859155626148572,-0.8260398940619047,-0.8487904865714283,2.683949019809524
21.12831532,0.022886188214857196,-0.7972760052142857,-1.0600547335619044,2.570770051904762
21.14514493,-0.07545177856133328,-0.7540567340523809,-1.2448350814952378,2.452422822380952
21.16195045,-0.19619080711371426,-0.6583545598666666,-1.3572214216999996,2.39376953352381
21.17875589,-0.3188321491375237,-0.5118679596285715,-1.4125599633571424,2.3717826413333336
21.19556573,-0.4282048018518095,-0.34240603948571424,-1.4080013547142853,2.3649509395714285
21.21237418,-0.5297821420041904,-0.16958865034285714,-1.329070182023809,2.3419113933333335
21.22916803,-0.6312336922041903,-0.01553667662857142,-1.205919333828571,2.3047757334761902
21.24598486,-0.7485242088851428,0.10371347900476191,-1.0675796326809521,2.270065628904762
21.26280203,-0.8816382345518095,0.17895361704285714,-0.9321931884095236,2.236240026
21.27960526,-1.0167719324565714,0.21831743415714283,-0.7823760622666663,2.2109407091428572
21.2964101,-1.1344395592089522,0.23413007809523814,-0.6030988465523807,2.207488758857143
21.31321804,-1.2211788921041904,0.23942971722857143,-0.39755927945714253,2.236812501238095
21.33003009,-1.284863287475619,0.24578161676190477,-0.152829805980952,2.297343452952381
21.34683276,-1.341278110233333,0.2369078333714286,0.11719774063809558,2.3464341756190477
21.36364619,-1.3958816854809524,0.18107412471904763,0.3656702495428575,2.3815215915714285
21.38045103,-1.4334324371333333,0.06413587574761907,0.5737243834000003,2.425941490857143
21.39726122,-1.460095470890476,-0.08344679712380951,0.7528196516380955,2.473207589238095
21.41406864,-1.4786816239666667,-0.21511431034761908,0.890971024814286,2.497999756904762
21.43087393,-1.503204198142857,-0.3137046254285714,0.9824691953818574,2.5068392234285715
21.44768194,-1.5103892826190477,-0.392560694847619,1.012767292191381,2.516953973095238
21.46449427,-1.4828091888333332,-0.4666171612428571,0.9850791749532861,2.5382067475714285
21.48130092,-1.4273149399619047,-0.5499593061476191,0.9055575643247145,2.5592452586190477
21.49810499,-1.3749783379761904,-0.6419980993571428,0.8074846494961433,2.5605614961428573
21.51490228,-1.3400851828809524,-0.742864743495238,0.7494668733723338,2.5324167073809525
21.53172481,-1.3224952618333332,-0.8536157706380952,0.751487028053286,2.5200323324285714
21.54852515,-1.3162622111190476,-0.9777988691142857,0.7608026550151908,2.519383857333333
21.5653349,-1.3212035951190475,-1.1110498208761903,0.6933949561580479,2.5365288451904764
21.58214657,-1.3303714650238097,-1.242160199542857,0.5545015789628097,2.5931046515238094
21.59895662,-1.335481876452381,-1.3625322054142857,0.3768904096247146,2.6776273413809526
21.61576146,-1.3336595354047618,-1.4573708047857141,0.19177604863900027,2.7722955320000002
21.63256934,-1.3386655705476191,-1.5223779705666667,-0.014207522027666371,2.866796421857143
21.64935731,-1.3565605595476191,-1.5558649612809525,-0.23285141440861876,2.9345486502380953
21.66618672,-1.3959189710714286,-1.5678571263,-0.4435059910276664,2.9487135536190476
21.68298687,-1.4432564236428571,-1.5648404585952382,-0.6230563889705235,2.8909860654285713
21.69980092,-1.481748688833333,-1.5400159273047618,-0.7397112391467139,2.8245375630000003
21.71659635,-1.515432238595238,-1.4750680468761903,-0.7913972990038568,2.7816922787619047
21.73341932,-1.5425755637380953,-1.3637146821619046,-0.7929321697181425,2.734644841761905
21.75022312,-1.5564661650714284,-1.233078879947619,-0.7746609505752854,2.6785839281428574
21.7670312,-1.5542154823095238,-1.1022199917190476,-0.7077802703229045,2.661066628904762
21.7838444,-1.5391821066428573,-0.9661867916714286,-0.6048965680809522,2.676245209571429
21.80065027,-1.5234041582761904,-0.8282889596238096,-0.49998707993809494,2.6673635583333333
21.81745332,-1.511225390980952,-0.7084884544809524,-0.3960725011904759,2.630614871190476
21.83426278,-1.5066180512809522,-0.6020869031285714,-0.2842551185571426,2.5764529027619045
21.85107412,-1.5147514626857141,-0.5098630602047619,-0.16984721589047588,2.547691042714286
21.86788117,-1.5245942615428572,-0.44563554448095244,-0.09087489899047589,2.558841141952381
21.88468727,-1.527301731590476,-0.39903211459047616,-0.055354754109523494,2.565238368714286
21.90149837,-1.5226776600190475,-0.3550402778142857,-0.012255259904761596,2.564004549333333
21.91830722,-1.5109381903047618,-0.30185509869047616,0.10012576697619077,2.547589742285714
21.93511074,-1.5022908846857141,-0.24787761065238093,0.3342331250714289,2.5441419646190475
21.95191948,-1.5108001459714284,-0.1986249019,0.6540304138333337,2.5667325740952385
21.9687292,-1.5349927289714285,-0.18636927866190478,0.9778399467380955,2.595489665047619
21.98552747,-1.5612291211619047,-0.22439729180476192,1.2446658951666671,2.5987437861428573
22.00234414,-1.5870301326380951,-0.3100632614238095,1.3812999725095243,2.605690061904762
22.01914854,-1.6028767484,-0.4213640477380952,1.3755193210809527,2.677491833714286
22.03595973,-1.6022658859714287,-0.5362140011619048,1.253015132166667,2.801786404095238
22.05276713,-1.5799128498761905,-0.6453281173095239,1.0672723225333336,2.909347702333333
22.06957399,-1.5474191961619046,-0.7433614007380953,0.8656655947714288,2.977909362666667
22.08638426,-1.520497838733333,-0.8434599098809524,0.689952577914286,3.0181653654285716
22.1031755,-1.5130251816857143,-0.9515076293809523,0.5523082642952385,3.0530088422857142
22.12000261,-1.522539956304762,-1.0791814951809524,0.3961806525333337,3.0767539003809525
22.13678562,-1.5351887658285712,-1.2342183873714287,0.23133164367619083,3.0904706404285713
22.15361558,-1.5464449752904759,-1.3912721474666665,0.09819303243809559,3.1260522539523814
22.17041818,-1.5512015763761904,-1.5313387484190477,-0.02083742045238062,3.183839402857143
22.18723118,-1.5522529171619046,-1.6424414316285716,-0.14931928537142825,3.2530105138571432
22.20402618,-1.5280636322904761,-1.7337407781238094,-0.28695074713333296,3.2936762231904764
22.22084467,-1.4802799708142855,-1.7983715277999999,-0.4179083959904758,3.291028733047619
22.23765573,-1.4277797512333332,-1.8358116461380953,-0.527009736885714,3.248837108047619
22.25445947,-1.3832840153809522,-1.8576385221952383,-0.6191095170095235,3.201050708952381
22.27127511,-1.3402199149666667,-1.8839657547142858,-0.7003058932857139,3.153966712238095
22.28807426,-1.2914220435666666,-1.9117886848952383,-0.8291712715266664,3.0602407094285717
22.30489036,-1.2265270040380951,-1.9146326467238093,-0.9942091532695235,2.901714176138095
22.32169391,-1.1536912379047617,-1.847577334784262,-1.1365902310076188,2.732676358585714
22.33850352,-1.0793256362714285,-1.7124027949556906,-1.2141415277647616,2.5953030250619045
22.35531111,-0.9969307440095238,-1.5413039155414048,-1.1794130234028568,2.466200722109524
22.37211704,-0.9278731601857141,-1.3593998493890236,-1.0538714953504758,2.3084601727761904
22.38891259,-0.8809610122809521,-1.1843276534033094,-0.8715814181266663,2.1464599959190473
22.40573884,-0.8583458633761903,-1.014134174227119,-0.6908225104695236,2.002765729347619
22.42253267,-0.8535773839,-0.8492742832985476,-0.527304989940952,1.8899485563952378
22.43935008,-0.8670995888047618,-0.6789166813461667,-0.4028595061504758,1.8206081233952383
22.45615056,-0.8907106632333333,-0.509615398584262,-0.31740451994095203,1.7807503934904763
22.47296868,-0.9125298800904761,-0.3536875247747381,-0.2294514065885711,1.7423081211095242
22.48977348,-0.9290553359952379,-0.2287667875985476,-0.12399055844571392,1.6970699725380953
22.50658291,-0.9516081043761905,-0.1413118725709286,0.004457110459047958,1.6561386242523808
22.52338655,-0.9836258632761903,-0.08125376986140477,0.1677699316019051,1.624089630252381
22.54020001,-1.0123830607761906,-0.039010022370928585,0.34624808174476224,1.5935367759666665
22.55700516,-1.0355356420619048,-0.01282868784711906,0.49973537807809554,1.568360321347619
22.57381238,-1.050243650147619,-0.01345735789473811,0.6094620114352385,1.5587230942523809
22.59061846,-1.0208917047142856,-0.030967011351880968,0.7197644369971432,1.5942012789190476
22.60742956,-0.9539984847666665,-0.02907812313283335,0.8621262141685717,1.6697827085857142
22.62422676,-0.8898322227285714,0.002437225390976178,1.0347894033019052,1.7781098393952381
22.64104236,-0.8688693401190475,0.04485855497192856,1.1937253588761907,1.8792582018714288
22.6578446,-0.8748968399523809,0.05093995159573809,1.2454234531904766,1.9125155109238094
22.67465983,-0.8793718147666667,0.004077952503809511,1.1608366739285718,1.9448760205714286
22.69147601,-0.8827127941857142,-0.07281179375333334,0.9718606585428575,2.055770039285714
22.70827538,-0.8974435229714285,-0.1504505504057143,0.7563399814095242,2.197194017714286
22.72508392,-0.9058134796523808,-0.23073688293904762,0.6237002781190479,2.2710085295714286
22.74188961,-0.9032744268,-0.33216833502,0.5784661429000003,2.288724812238095
22.75870109,-0.890020170342857,-0.45871296952952384,0.5897413889285718,2.3271654130000003
22.77550656,-0.8616428474380952,-0.6012088912200001,0.5944653919476194,2.3620673735714286
22.79232036,-0.8353850741761903,-0.7265005793152381,0.533784048866667,2.361700117238095
22.80911785,-0.7900794786476188,-0.823067562929524,0.42134870799047647,2.3588621482380954
22.82593406,-0.7308225730523809,-0.8836755241723808,0.2729922475904766,2.3741492396190473
22.84273899,-0.6684146565476189,-0.9028237036357144,0.10802482420952413,2.4032057721904763
22.85956907,-0.6088920930333332,-0.8964034588628571,-0.043687275504761584,2.4158429216666666
22.87635618,-0.560776779995238,-0.87418444952,-0.17527734669523778,2.384746624190476
22.89316156,-0.527214519995238,-0.8540555423266667,-0.28532346094761873,2.331892309976191
22.90996992,-0.5071817508380951,-0.8206526523600001,-0.3788009825619044,2.283424030414286
22.92678166,-0.5059865953999999,-0.7471573580028571,-0.4690871012095235,2.261194073795238
22.94358854,-0.5470773946285713,-0.6422176105742857,-0.5928734371142854,2.235281591461905
22.96038898,-0.621224996547619,-0.5521092415123809,-0.7517578488809521,2.1771457622714285
22.97720213,-0.6925583112380951,-0.47926028854571423,-0.9228397551714282,2.0810425740333334
22.99401338,-0.7274686040904761,-0.4168980263647619,-1.059248833480952,1.992825634985714
23.0108141,-0.7239586653714285,-0.3525032344409524,-1.1022954668714282,1.9674501736523808
23.02762449,-0.7094672293428571,-0.2696249030980952,-1.0486244020566662,1.9312156052571428
23.04443472,-0.6860498430714286,-0.17139651094095237,-0.9210361299423807,1.818480426066667
23.06124392,-0.6502066155047618,-0.06529629232190477,-0.7587383815376187,1.6844414333999997
23.07805038,-0.619833255095238,0.06012846739238094,-0.6449711663614283,1.6299441537809523
23.09485608,-0.5939786405761904,0.20660647320190473,-0.5847626186804759,1.6381750680190477
23.1116518,-0.5668469007523809,0.35225156939238095,-0.5433747427947616,1.6318533801619044
