"Time (s)","Linear Acceleration x (m/s^2)","Linear Acceleration y (m/s^2)","Linear Acceleration z (m/s^2)","Absolute acceleration (m/s^2)"
1.715425500E-2,-9.416830540E-2,-6.026477814E-1,1.297155619E0,1.433410171E0
3.396003100E-2,3.067637682E-1,-5.172824860E-2,-2.163536549E-1,3.789310295E-1
5.076891900E-2,5.502138138E-1,-2.959375381E-1,-7.668435574E-1,9.891224943E-1
6.757675100E-2,6.710737944E-1,1.955785751E-1,-7.676938772E-1,1.038241256E0
8.438356500E-2,2.561472654E-1,1.328004837E0,1.869246364E-1,1.365338452E0
1.011900740E-1,3.333888054E-1,9.862451553E-1,-2.158576250E-1,1.063213110E0
1.179859720E-1,3.072896004E-1,-2.928600311E-1,1.265903711E-1,4.429661594E-1
1.348074970E-1,5.550193787E-2,-4.408731461E-1,-1.098540425E-1,4.577308234E-1
1.516101900E-1,-2.009757757E-1,8.159589767E-1,1.283389330E-1,8.500889341E-1
1.684189360E-1,2.867366076E-1,1.439388275E0,9.135216475E-1,1.728750499E0
1.852264840E-1,1.248939276E0,3.821687698E-1,8.960957527E-1,1.583947563E0
2.020357900E-1,2.694959641E0,-4.168758392E-1,3.409605026E-1,2.748244348E0
2.188416370E-1,3.966455460E0,-1.017668724E0,1.087215662E0,4.236797899E0
2.356504050E-1,1.329135656E0,2.027511597E-3,2.664664268E0,2.977757775E0
2.524568620E-1,-2.230359793E0,9.221477509E-1,-2.915283442E0,3.784671561E0
2.692577550E-1,-5.376819611E0,1.862702370E0,-6.291074753E0,8.482774946E0
2.860759540E-1,-2.758887768E0,-4.172153473E-1,-2.667575836E0,3.860244967E0
3.028747710E-1,-2.817955971E0,-2.893865585E0,5.436258316E0,6.772609420E0
3.196866620E-1,-2.377987623E0,-2.846982002E0,3.016564369E0,4.781191510E0
3.364954900E-1,-9.163070917E-1,-9.714889526E-1,-2.775747299E0,3.080289360E0
3.533023440E-1,4.104071856E-1,-2.547616959E-1,-1.967315435E0,2.025751120E0
3.700890570E-1,1.748662591E0,-4.480638504E-1,1.919993162E-1,1.815336280E0
3.869163590E-1,1.511024952E0,-2.100286484E-1,-1.067698717E0,1.862065785E0
4.037026960E-1,1.253640771E0,-6.029605865E-2,-5.164297581E0,5.314623251E0
4.205336900E-1,-1.393380761E0,6.743736267E-1,-9.064555168E-2,1.550647075E0
4.373410120E-1,-5.731174946E-1,5.310878754E-1,-2.095813274E0,2.236727805E0
4.541478770E-1,-6.997700334E-1,3.033895493E-1,1.024518609E0,1.277247704E0
4.709608250E-1,-3.303515911E-1,-6.050529480E-1,1.185965180E0,1.371763337E0
4.877613010E-1,-3.387247920E-1,-4.652624130E-1,8.075007796E-1,9.915952333E-1
5.045651960E-1,-3.593751788E-1,1.517810822E-1,1.077610612E0,1.146050892E0
5.213725080E-1,-1.150601387E0,1.009427071E0,6.515297890E-1,1.663525662E0
5.381887520E-1,-1.949172258E0,6.595249176E-1,6.005975008E-1,2.143586473E0
5.549978040E-1,-2.443311691E0,1.011991501E-1,1.148342013E0,2.701611125E0
5.717963880E-1,-5.915031433E-1,-2.325660706E0,-9.450605512E-2,2.401563049E0
5.886052880E-1,6.165195704E-1,-2.026489258E0,-9.343684316E-1,2.315124070E0
6.054125090E-1,1.716629505E0,-1.568038940E0,-8.475663662E-1,2.474657900E0
6.222244600E-1,1.932840109E0,-7.015409470E-1,-1.324007511E0,2.445613722E0
6.390230640E-1,2.205491543E0,-3.226184845E-1,-9.452751279E-1,2.421119720E0
6.558393700E-1,2.130425453E0,5.162658691E-1,2.526434958E-1,2.206597334E0
6.726447080E-1,1.042217016E0,1.932323456E0,1.057744980E0,2.436988857E0
6.894491420E-1,2.371796370E-1,1.654160500E0,7.484559417E-1,1.831034526E0
7.062552550E-1,-2.965223789E-1,8.061800003E-1,8.206781745E-1,1.188008577E0
7.230656490E-1,-7.299260497E-1,5.456237793E-1,1.309336066E0,1.595261195E0
7.398726660E-1,-3.713097572E-1,8.120918274E-2,1.180466175E0,1.240147676E0
7.566813940E-1,-2.581965923E-2,5.212430954E-1,7.320080996E-1,8.989977070E-1
7.734854400E-1,-1.327872276E-3,1.555541992E0,8.181645870E-1,1.757585259E0
7.902919990E-1,-2.196079493E-1,1.975115776E0,4.653997719E-1,2.041055347E0
8.071004720E-1,-5.859739184E-1,1.959367275E0,-6.955432892E-2,2.046295032E0
8.239080490E-1,-5.199033618E-1,8.037471771E-1,-8.325839639E-1,1.268662716E0
8.407169790E-1,1.986705065E-1,-5.881900787E-1,-8.313322067E-1,1.037569649E0
8.575237110E-1,3.337455988E-1,-5.147171021E-2,-4.889754653E-1,5.942494992E-1
8.743311560E-1,-1.692886233E0,2.438780785E0,-5.182254314E-2,2.969208832E0
8.911483460E-1,-2.810052872E0,3.105997562E0,-3.736023307E-1,4.205139320E0
9.079494830E-1,-1.882164240E0,2.346006393E0,1.779367924E-1,3.012963612E0
9.247434190E-1,-1.253640652E0,4.221874237E0,9.359431267E-2,4.405064909E0
9.415590520E-1,-5.974618793E-1,7.114385605E0,-6.163022518E-1,7.165980163E0
9.583685720E-1,-4.464922547E-1,9.910734177E0,3.738175631E-1,9.927826893E0
9.751771570E-1,2.202047110E0,9.648180008E0,3.674722910E0,1.055651351E1
9.919746630E-1,4.612722397E0,6.615885735E0,6.671701908E0,1.046703197E1
1.008789563E0,3.060657501E0,1.911167622E0,6.288820744E0,7.250479457E0
1.025597009E0,6.921997070E-1,-4.076457977E0,5.337397575E0,6.751626689E0
1.042402317E0,1.464592934E0,-1.140534592E1,2.828946590E0,1.184187007E1
1.059214867E0,4.260798454E0,-2.114611816E1,-8.102775216E-1,2.158632128E1
1.076021865E0,6.732028484E0,-3.322160339E1,-4.169112206E0,3.415225668E1
1.092829890E0,7.376796722E0,-3.628199005E1,3.786909580E-1,3.702625202E1
1.109638483E0,1.107066393E0,-2.174740982E1,-1.215597630E0,2.180947288E1
1.126443650E0,-5.939098597E-1,-1.215802670E1,-4.931606770E0,1.313358623E1
1.143236426E0,-4.788477898E0,-5.906508446E0,1.868582368E-1,7.606002800E0
1.160058396E0,-1.235206842E0,-7.762571335E0,7.981734872E-1,7.900653808E0
1.176867815E0,1.043467164E0,-2.821209908E0,1.193560123E0,3.236145057E0
1.193674568E0,-6.279075146E-1,6.746175766E0,6.133229733E0,9.139018671E0
1.210478279E0,-6.347684264E-1,1.063655663E1,3.891404152E0,1.134382185E1
1.227286599E0,6.423082948E-1,1.246267509E1,2.926586151E0,1.281778986E1
1.244094095E0,7.296586633E-1,1.374387455E1,2.399002790E0,1.397074457E1
1.260902881E0,1.552191377E0,1.283684254E1,7.254586220E-1,1.295068008E1
1.277708038E0,2.125077724E0,1.436864185E1,1.972675025E-1,1.452627752E1
1.294517222E0,2.069346189E0,1.591344261E1,-9.503734112E-1,1.607554226E1
1.311301951E0,3.353570461E0,1.666967773E1,-2.356123209E0,1.716612674E1
1.328130615E0,4.892715454E0,1.562405872E1,-5.740105152E0,1.734931361E1
1.344940868E0,4.526763439E0,1.426055336E1,-3.289898634E0,1.531921677E1
1.361749065E0,3.127609253E0,1.228941154E1,-4.450595379E-1,1.268895795E1
1.378530051E0,2.109915495E0,1.133898258E1,9.019093513E-1,1.156882491E1
1.395360313E0,1.546838284E0,1.063520622E1,-5.439931154E-1,1.076086653E1
1.418457766E0,5.912654400E-1,9.759003639E0,-1.573904991E0,9.902773539E0
1.435281054E0,1.010443568E-1,9.630091667E0,-1.410045862E0,9.733298763E0
1.452088428E0,-2.261506915E-1,1.000181293E1,-2.094842196E-1,1.000656233E1
1.468884962E0,-1.832163334E-1,9.476220131E0,-1.603946805E0,9.612749947E0
1.485707961E0,-1.193363667E-1,7.825458527E0,-3.375453472E0,8.523246357E0
1.502509933E0,-1.522633880E-1,-1.573428154E0,1.920715332E0,2.487570639E0
1.519316334E0,1.155363441E0,-4.059666443E1,1.182640648E1,4.229997539E1
1.536123831E0,5.612092018E0,-6.788480377E1,1.833865738E1,7.054182103E1
1.552932877E0,7.679364681E0,-6.784795380E1,1.536682415E1,6.998897599E1
1.569739874E0,4.694488049E0,-4.705486679E1,-4.446546555E0,4.749705762E1
1.586546338E0,2.421582937E0,-2.332016754E1,-6.841840744E0,2.442345313E1
1.603353446E0,-2.073879480E0,-7.722908974E0,2.442808390E0,8.361316400E0
1.620149996E0,-2.717869759E0,8.063735962E0,-2.029425430E1,2.200607669E1
1.636966571E0,5.941498876E-1,7.731042385E0,-4.401502132E0,8.916010962E0
1.653765740E0,1.154554367E0,8.768400192E0,-6.445857882E-1,8.867543547E0
1.670586577E0,1.433401585E0,1.193395042E1,3.215159178E0,1.244230933E1
1.687379206E0,2.294469357E0,1.324022388E1,4.167250156E0,1.406890515E1
1.704198821E0,2.155886412E0,1.592521095E1,4.283323765E0,1.663150783E1
1.721005015E0,1.657261372E0,1.840329933E1,3.014668941E0,1.872207708E1
1.737814427E0,2.246103764E0,1.997661400E1,3.126927853E0,2.034423178E1
1.754624278E0,3.836741924E0,1.914675522E1,3.898500443E0,1.991273788E1
1.771426413E0,3.710757256E0,1.616383743E1,9.629462957E-1,1.661224324E1
1.788237464E0,2.923686028E0,1.344467545E1,-1.116821170E-2,1.375890121E1
1.805040713E0,2.254409552E0,1.187668037E1,7.893141508E-1,1.211449198E1
1.821862393E0,1.929502726E0,1.071582603E1,8.870486021E-1,1.092422828E1
1.838657529E0,1.734341502E0,9.821364403E0,3.774980903E-1,9.980463115E0
1.855464217E0,1.388532877E0,9.483983994E0,-1.230261475E-2,9.585099232E0
1.872267785E0,1.076499104E0,9.615304947E0,1.582717290E-3,9.675378135E0
1.889081918E0,8.749111295E-1,9.919776917E0,2.608734965E-1,9.961701589E0
1.905893066E0,7.476121783E-1,1.012588882E1,1.442046463E-1,1.015447406E1
1.922694610E0,9.200016260E-1,1.046254635E1,-5.494824648E-1,1.051728150E1
1.939502798E0,8.040277362E-1,1.185297203E1,-9.076346159E-1,1.191483139E1
1.956309144E0,9.117445350E-2,1.164276886E1,-1.605759740E0,1.175333331E1
1.973116375E0,-5.268996954E-2,9.702260971E0,-2.049399376E0,9.916485365E0
1.989927070E0,-3.959029317E-1,7.388575554E0,4.141318798E-1,7.410755229E0
2.006731162E0,3.256675899E-1,-1.183257198E1,1.780473137E1,2.138046487E1
2.023544675E0,1.348405123E0,-6.063156891E1,2.486614799E1,6.554640082E1
2.040344511E0,3.549835443E0,-7.706932831E1,1.104620838E1,7.793780480E1
2.057155241E0,3.230605125E0,-6.214659119E1,4.103779316E0,6.236566852E1
2.073949447E0,3.880445957E-1,-3.072434235E1,2.754859686E0,3.085004122E1
2.090769617E0,-8.475450873E-1,-1.363144588E1,1.200614357E1,1.818466753E1
2.107575973E0,1.129485488E0,8.314027786E-1,-1.427298546E1,1.434172521E1
2.124385086E0,2.712692261E0,8.852233887E-1,-1.866436195E1,1.888122684E1
2.141178726E0,3.078894138E0,2.320421219E0,-8.205758095E0,9.066333860E0
2.157999650E0,2.850874662E0,5.442157269E0,-8.221194744E-1,6.198422582E0
2.174788611E0,1.917893291E0,9.047189713E0,5.864892006E-1,9.266818545E0
2.191612616E0,1.515227079E0,1.053631973E1,1.312791109E-1,1.064552398E1
2.208423596E0,1.315499902E0,1.206937313E1,-3.101384640E-2,1.214089246E1
2.225227500E0,1.079529524E0,1.313625145E1,1.812824011E-1,1.318178097E1
2.242035311E0,9.111962914E-1,1.418901634E1,3.755378723E-2,1.421829363E1
2.258850634E0,8.895787597E-1,1.501850605E1,2.868105173E-1,1.504756241E1
2.275649891E0,1.186075211E0,1.546348572E1,1.461633682E0,1.557762941E1
2.292456333E0,1.321412563E0,1.526852989E1,-6.853683591E-1,1.534092129E1
2.309266708E0,1.971930981E0,1.716772461E1,2.239552975E0,1.742512202E1
2.326078990E0,1.986103296E0,1.614859581E1,-6.160223484E-1,1.628192975E1
2.342867808E0,1.492820024E0,1.430124092E1,-7.986696362E-1,1.440110679E1
2.359687357E0,1.293180823E0,1.354112625E1,-1.020520926E-1,1.360311844E1
2.376494203E0,1.024969578E0,1.236512280E1,-1.984791279E0,1.256527838E1
2.393303321E0,8.489825130E-1,1.102546787E1,-3.050664663E0,1.147119296E1
2.410110683E0,1.393164694E-1,1.134459877E1,-2.095849037E0,1.153741364E1
2.504651469E0,9.558794975E0,-7.886567688E1,2.142727089E1,8.228179318E1
2.521457987E0,1.230494690E1,-9.113879395E1,2.718091011E0,9.200586665E1
2.538258870E0,3.475385666E0,-5.867459869E1,-3.173151255E0,5.886302512E1
2.555076539E0,-2.346972227E-1,-2.784915924E1,1.410090256E1,3.121644128E1
2.571880443E0,-8.310825229E-1,2.357594967E0,-4.713092422E1,4.719717121E1
2.588688213E0,-7.815668583E-1,5.142400742E0,-1.991308975E1,2.058121171E1
2.605494651E0,1.179638028E0,3.995880604E0,9.638648033E-1,4.276405387E0
2.622298841E0,2.351756811E0,8.755238533E0,3.257606983E0,9.633118141E0
2.639108523E0,2.974497795E0,1.145019436E1,4.403571606E0,1.262323377E1
2.655919335E0,4.814323902E0,1.348972893E1,5.881877422E0,1.548376515E1
2.672708785E0,6.358101845E0,1.420924568E1,7.246172428E0,1.717076401E1
2.689531172E0,7.146771431E0,1.972891235E1,1.043370056E1,2.343434300E1
2.706339177E0,6.224559784E0,2.179333878E1,7.250878811E0,2.379642837E1
2.723146439E0,2.638801336E0,1.444826221E1,-1.609462380E0,1.477517928E1
2.739955032E0,9.064577818E-1,1.309960556E1,-1.464700699E0,1.321236844E1
2.756762397E0,6.882216334E-1,1.297623634E1,2.215415239E-1,1.299636254E1
2.773568732E0,3.792290986E-1,1.254493237E1,-1.976146221E0,1.270528617E1
2.790376959E0,3.408104181E-3,1.220661163E1,-2.966341019E0,1.256186922E1
2.807183093E0,-5.441339612E-1,1.199426270E1,-2.648922920E0,1.229533294E1
2.823998583E0,-1.068072915E0,1.157820225E1,-2.252080917E0,1.184345454E1
2.840798216E0,-1.557267189E0,1.097296524E1,-2.795891285E0,1.143013803E1
2.857605549E0,-1.801970959E0,1.047443962E1,-3.142591238E0,1.108317935E1
2.874412037E0,-2.344641685E0,1.061315823E1,-4.261174202E0,1.167450546E1
2.891225839E0,-2.555097580E0,1.078192902E1,-3.493486404E0,1.161821691E1
2.908014810E0,-2.129037380E0,1.008223534E1,-1.117394567E0,1.036498144E1
2.924835205E0,-1.694350958E0,9.293850899E0,9.507026672E-1,9.494752512E0
2.941637471E0,-1.831815362E0,8.545930862E0,5.479384422E0,1.031562579E1
2.958449951E0,1.283075213E0,1.020515442E0,2.784400558E1,2.789222796E1
2.975250419E0,6.690859795E0,-2.017057419E1,2.650172043E1,3.396999932E1
2.992065696E0,1.155636501E1,-1.061294556E2,1.126067543E1,1.073490276E2
3.008872173E0,2.066580772E1,-1.041745224E2,-1.630942154E1,1.074495414E2
3.025679843E0,6.701139450E0,-5.040101624E1,2.092912483E1,5.498359732E1
3.042490634E0,1.065583420E1,-3.867025375E0,-5.995996857E1,6.102211499E1
3.059296521E0,2.303167105E0,4.981977463E0,-3.595188141E1,3.636842662E1
3.076099766E0,3.585393190E0,5.112689018E0,-1.493817449E0,6.420757268E0
3.092907078E0,3.352394342E0,8.303116798E0,7.513975620E0,1.168931675E1
3.109724502E0,2.872371197E0,1.234118938E1,9.935670853E0,1.610195724E1
3.126520401E0,2.924302101E0,1.368245983E1,9.101847649E0,1.669146130E1
3.143333166E0,1.610758066E0,1.663445473E1,9.024390221E0,1.899313677E1
3.160137101E0,3.292484999E0,1.940037537E1,9.457790375E0,2.183265491E1
3.176951697E0,4.021363735E0,2.063953590E1,6.929337978E0,2.213995333E1
3.193753444E0,2.309852839E0,2.091955376E1,5.793112278E0,2.182941363E1
3.210561937E0,9.057043791E-1,1.953896904E1,1.301068306E0,1.960317297E1
3.227368253E0,-8.393943310E-3,1.723445511E1,-1.338693619E0,1.728637076E1
3.244178037E0,9.396876395E-2,1.442414093E1,-2.798334360E0,1.469337765E1
3.260992399E0,-1.747209132E-1,1.284149361E1,-3.376692772E0,1.327917691E1
3.277791766E0,-7.359969616E-1,1.194930458E1,-3.010293245E0,1.234461165E1
3.294598153E0,-1.368670464E0,1.123335552E1,-2.555601835E0,1.160140663E1
3.311404703E0,-1.761720777E0,1.069086742E1,-2.051499605E0,1.102755444E1
3.326114827E0,-1.786110401E0,1.017724419E1,-1.431266308E0,1.043144347E1
3.342927526E0,-1.911259651E0,9.600314140E0,-1.655759811E0,9.927763373E0
3.359730042E0,-1.858672976E0,8.769409180E0,-2.420950890E0,9.285375911E0
3.376536240E0,-1.406810284E0,7.321506500E0,-1.056299686E1,1.292905547E1
3.393327053E0,-1.745781302E0,6.974309444E0,-7.092750549E0,1.009929973E1
3.410152166E0,-2.415029526E0,7.571794510E0,-1.206115007E0,8.038603929E0
3.426949572E0,-2.629557371E0,7.108638287E0,1.262541056E0,7.683834991E0
3.443765287E0,-1.263675094E0,4.038447380E0,7.195334435E0,8.347381003E0
3.460568514E0,1.129882431E1,-3.106410599E1,1.130058098E1,3.493344017E1
3.477378870E0,3.484698868E1,-9.205415344E1,1.936114883E1,1.003151727E2
3.494191079E0,3.639409256E1,-8.610037231E1,1.429834938E1,9.456345426E1
3.510981022E0,1.811961174E1,-4.171722412E1,8.031623363E-1,4.548947337E1
3.597134864E0,-3.319839478E0,1.097385979E1,5.770504475E-1,1.147954354E1
3.613942787E0,-2.328571558E0,1.137447262E1,-1.257794976E0,1.167830985E1
3.630748990E0,-2.183759451E0,1.284101295E1,-9.250384569E-2,1.302570443E1
3.647554299E0,-1.975181580E0,1.480362320E1,4.856295586E-1,1.494270518E1
3.664362669E0,-3.209898710E0,1.862099648E1,1.318475604E0,1.894157695E1
3.681174823E0,-3.109354019E0,1.823640442E1,2.310946941E0,1.864336355E1
3.697966623E0,-2.818088293E0,1.733005333E1,1.906431437E0,1.766088477E1
3.714786214E0,-2.975877762E0,1.624360275E1,4.681562781E-1,1.652058259E1
3.731589447E0,-3.055836678E0,1.383333397E1,-4.944422543E-1,1.417546259E1
3.748397887E0,-3.088021755E0,1.220714951E1,-6.688405275E-1,1.260943001E1
3.765207703E0,-2.812657595E0,1.052224350E1,-6.898733377E-1,1.091350431E1
3.782014059E0,-2.662963390E0,9.645291328E0,-1.449222088E0,1.011055209E1
3.796741646E0,-3.147659540E0,9.704360008E0,-8.990848660E-1,1.024161693E1
3.813529145E0,-3.335869551E0,9.781392097E0,-7.897678614E-1,1.036471853E1
3.830335166E0,-3.804420948E0,1.001902485E1,-7.970890403E-1,1.074661940E1
3.847131828E0,-4.330550194E0,1.019627476E1,-8.568241596E-1,1.111088797E1
3.863951684E0,-5.022455692E0,1.083862495E1,-4.786337614E-1,1.195533113E1
3.880758812E0,-5.288650513E0,1.062615776E1,-1.009469032E-1,1.186993021E1
3.897565083E0,-4.567296982E0,8.789049149E0,3.476707935E-1,9.911027275E0
3.914374022E0,-3.748526335E0,5.858706951E0,6.275935650E0,9.368205010E0
3.931180846E0,8.174705505E0,-3.252083206E1,2.617795181E1,4.254075092E1
3.947978978E0,3.821040726E1,-1.079739380E2,2.810381699E1,1.179331634E2
3.964795807E0,3.423284149E1,-8.770946503E1,1.420768547E1,9.521919984E1
3.981604676E0,2.630378532E1,-3.405760956E1,-2.708550453E1,5.084716754E1
3.998411266E0,1.266797733E1,2.274422646E0,-5.374224854E1,5.526192112E1
4.015216859E0,4.210934639E0,1.916045189E0,-2.025761986E1,2.077918098E1
4.032024446E0,1.932448387E0,4.403745174E0,-2.034143925E0,5.221596484E0
4.048834576E0,3.755736351E-1,8.666406631E0,5.203622818E0,1.011559933E1
4.065638985E0,1.173288822E-1,1.254937363E1,1.016232491E1,1.614847956E1
4.082446780E0,-5.531907082E-1,1.550875664E1,1.101998520E1,1.903332935E1
4.099254301E0,-1.651983619E0,1.741003799E1,9.044352531E0,1.968854453E1
4.116064310E0,-2.937177181E0,2.064505196E1,6.764491081E0,2.192267136E1
4.132864278E0,-2.583288908E0,2.124887085E1,2.029691696E0,2.150133815E1
4.149674047E0,-3.149366379E0,2.150300026E1,5.534627438E-1,2.173945376E1
4.166485509E0,-4.507152557E0,1.924067688E1,-1.018252015E0,1.978774641E1
4.183292267E0,-5.449144363E0,1.556581116E1,-1.016652465E0,1.652335418E1
4.200099249E0,-5.379693031E0,1.248392200E1,-3.330429196E-1,1.359780583E1
4.216906002E0,-5.162901878E0,1.080835724E1,-2.007766366E-1,1.197983528E1
4.233715176E0,-5.151801109E0,9.774256706E0,-6.055916548E-1,1.106543673E1
4.250522601E0,-5.125239372E0,8.913384438E0,-1.194344640E0,1.035098835E1
4.267328423E0,-4.867973804E0,8.270352364E0,-2.167661667E0,9.838427429E0
4.284135516E0,-4.673596382E0,8.213567734E0,-2.838168859E0,9.867137403E0
4.300944808E0,-4.414186001E0,8.868472099E0,-3.418878317E0,1.047967387E1
4.317752572E0,-4.292664528E0,1.027663994E1,-2.156022549E0,1.134392923E1
4.334559285E0,-4.201773167E0,1.105071068E1,-7.907201052E-1,1.184898065E1
4.351365738E0,-3.376990795E0,8.579438210E0,-1.128381014E0,9.288921925E0
4.368167968E0,-2.744682312E0,7.173460484E0,-1.030940056E0,7.749493771E0
4.384980180E0,1.283865452E0,2.855489731E0,1.301286602E1,1.338420017E1
4.401777904E0,3.569237137E1,-4.222264862E1,2.677436066E1,6.142934005E1
4.418595348E0,6.819699860E1,-8.012331390E1,3.112438202E1,1.097237586E2
4.435402976E0,5.842878342E1,-5.871478653E1,1.653615570E1,8.446770587E1
4.452211143E0,2.667492676E1,-3.379988480E1,-6.946489716E1,8.172732632E1
4.469017722E0,-1.317920685E0,-4.333224773E0,-2.175364876E1,2.222014820E1
4.485825035E0,-6.719139099E0,7.658181190E-1,-9.170089722E0,1.139402708E1
4.502620777E0,-7.203847885E0,1.148828268E0,-7.458922386E0,1.043315647E1
4.588769654E0,-1.598489857E1,1.454442310E1,9.566359520E-1,2.163266923E1
4.605577730E0,-1.732749176E1,1.643999100E1,2.860856295E0,2.405617953E1
4.622380291E0,-1.493869591E1,1.080239487E1,-3.134601116E-1,1.843785854E1
4.639194531E0,-1.327110004E1,4.954367638E0,-4.626120567E0,1.490197459E1
4.655992669E0,-1.268735123E1,1.643940806E0,-4.746063232E0,1.364538525E1
4.672805575E0,-1.180486107E1,4.274593592E-1,-4.726346016E0,1.272304260E1
4.689614393E0,-1.057825661E1,-4.718177319E-1,-5.143555164E0,1.177192782E1
4.706422886E0,-9.685956955E0,-6.989924908E-1,-5.105616570E0,1.097149366E1
4.723228195E0,-9.345217705E0,-4.620926380E-1,-4.806809425E0,1.051912736E1
4.740041732E0,-9.307463646E0,-6.040811539E-3,-4.629570484E0,1.039527964E1
4.756842026E0,-9.525145531E0,9.409068823E-1,-4.599666119E0,1.061935175E1
4.773653407E0,-9.975491524E0,1.953734994E0,-4.478138924E0,1.110771083E1
4.798857763E0,-1.064208126E1,3.646987915E0,-7.569479942E-1,1.127507803E1
4.815674953E0,-1.150578022E1,4.522099018E0,1.104424000E0,1.241177306E1
4.832479784E0,-1.012348652E1,3.763324261E0,6.688330173E-1,1.082104091E1
4.849284745E0,-8.181863785E0,1.850402594E0,-1.758046389E0,8.570741616E0
4.866093208E0,-6.039470196E0,1.179254770E0,4.030350208E0,7.355920395E0
4.882901313E0,2.757596016E0,-6.230956316E-1,2.362351990E1,2.379208432E1
4.899709672E0,3.138536453E1,1.180618668E1,2.399922562E1,4.123578520E1
4.916514800E0,1.119671021E2,5.146628857E0,2.258991814E1,1.143390753E2
4.933312884E0,9.925532532E1,-8.497085571E0,1.365113926E1,1.005493594E2
4.950129870E0,4.214198685E1,-1.076749802E1,-3.549855423E1,5.614297304E1
4.966940723E0,7.018791199E0,-6.459170341E0,-3.257704544E1,3.394478165E1
4.983745187E0,-1.565253162E1,4.642994404E0,-2.866150379E0,1.657630723E1
5.000553293E0,-1.822269249E1,8.121994019E0,-8.692719460E0,2.176227654E1
5.017359661E0,-1.329065609E1,1.634856224E0,-8.962039948E0,1.611311435E1
5.034172994E0,-1.060788345E1,-2.370194197E-1,-7.117360115E0,1.277654823E1
5.050963491E0,-1.015498734E1,1.720971346E0,-4.207078457E0,1.112587162E1
5.067785717E0,-1.054630089E1,1.816818595E0,-1.828989983E-1,1.070321187E1
5.084587089E0,-1.190979099E1,6.486206055E-1,5.368852615E0,1.308007678E1
5.101385124E0,-1.438859558E1,-5.845644474E-1,9.025773048E0,1.699523396E1
5.118206129E0,-1.611387634E1,-1.541071177E0,1.191605091E1,2.010035275E1
5.135015894E0,-1.457674026E1,-6.101948023E-1,9.985183716E0,1.767929830E1
5.151821780E0,-1.261618423E1,3.370179534E-1,4.888117790E0,1.353422998E1
5.168625156E0,-1.135224819E1,8.690062165E-1,-1.439270973E-1,1.138637018E1
5.185434941E0,-1.084694672E1,1.382828474E0,-2.773863792E0,1.128108098E1
5.202230576E0,-1.059529209E1,1.874069571E0,-4.212812424E0,1.155509151E1
5.219046249E0,-1.016938210E1,1.970366955E0,-5.074468613E0,1.153468291E1
5.235858588E0,-9.753261566E0,1.874931574E0,-5.349642277E0,1.128096415E1
5.252665594E0,-9.449840546E0,1.999142408E0,-5.201827049E0,1.097064544E1
5.269471594E0,-9.250832558E0,2.240292311E0,-5.019337177E0,1.076060214E1
5.286280219E0,-8.708189011E0,1.764599681E0,-5.631073952E0,1.051928523E1
5.303084979E0,-8.331184387E0,1.265709162E0,-5.747952461E0,1.020047109E1
5.319890124E0,-7.679417133E0,1.181950331E0,-5.744788170E0,9.662972897E0
5.336710122E0,-4.852270603E0,-1.369225979E-2,-2.895174980E0,5.650376594E0
5.353509216E0,2.447064590E1,6.751989365E0,2.044282913E1,3.259311483E1
5.370315673E0,9.733177185E1,3.469110966E0,3.323611832E1,1.029084452E2
5.387123270E0,9.052490997E1,-7.436554909E0,1.769554520E1,9.253752749E1
5.403932465E0,4.307540512E1,-1.193499923E0,6.420268536E0,4.356758906E1
5.420729575E0,1.063546944E1,-4.673887253E0,-3.362303543E1,3.557340220E1
5.437532695E0,-4.691046715E0,-1.544500351E0,4.778513908E0,6.872088168E0
5.454354177E0,-1.149829865E1,2.756117582E-1,8.211786270E0,1.413224212E1
5.471163930E0,-1.194911194E1,1.327030540E0,3.805137396E0,1.261036704E1
5.487964876E0,-1.149112988E1,1.113348126E0,-1.514546275E0,1.164385934E1
5.504772027E0,-1.318329811E1,1.687206268E0,-2.634896278E0,1.354949049E1
5.521587385E0,-1.610795212E1,4.080733776E0,-2.470315456E0,1.679943356E1
5.538389947E0,-1.547368813E1,4.335044861E0,-1.648350954E0,1.615378281E1
5.555197473E0,-1.396501923E1,4.382420063E0,-5.694074631E-1,1.464757975E1
5.572004877E0,-1.328661537E1,4.049776077E0,3.583049774E-2,1.389014464E1
5.588815636E0,-1.402103138E1,4.573810577E0,5.790112019E-1,1.475955006E1
5.605621698E0,-1.417888069E1,4.298861980E0,7.855806351E-1,1.483704852E1
5.622411932E0,-1.318764687E1,2.522191286E0,-4.290732145E-1,1.343352458E1
5.639236842E0,-1.204828453E1,1.368664742E0,-1.007762194E0,1.216757938E1
5.656039119E0,-1.083854961E1,1.296713710E0,-2.121570349E0,1.112010274E1
5.672836585E0,-1.027221298E1,1.677999616E0,-2.704590321E0,1.075401558E1
5.689640124E0,-1.030114746E1,2.193594933E0,-2.574088097E0,1.084211360E1
5.706463010E0,-1.048757553E1,2.543439865E0,-1.884356260E0,1.095486766E1
5.723262470E0,-1.083152199E1,2.762786865E0,-8.107372522E-1,1.120768284E1
5.740080646E0,-1.116908455E1,2.989833832E0,1.589641571E-1,1.156342621E1
5.756888467E0,-1.109291840E1,2.793329239E0,2.794578075E-1,1.144262310E1
5.773698923E0,-9.434247971E0,1.640578985E0,-1.228119850E0,9.654263957E0
5.790503213E0,-8.320839882E0,8.122973442E-1,-6.647870541E-1,8.386783957E0
5.807306436E0,-6.077064037E0,-2.121335268E-2,5.456575394E0,8.167335695E0
5.824110270E0,1.450880241E1,1.143551946E0,1.456766701E1,2.059198826E1
5.840925609E0,1.018640594E2,-6.255805016E0,3.362403107E1,1.074523018E2
5.857731314E0,1.057345505E2,-6.079081059E0,2.503543091E1,1.088279523E2
5.874537893E0,4.847634506E1,-4.989597321E0,-3.441658401E1,5.966031652E1
5.891346203E0,8.619576454E0,-2.826570272E-1,-4.138977528E0,9.565988094E0
5.908154369E0,-1.251980305E1,6.575774193E0,4.127253056E0,1.473161540E1
5.924972862E0,-1.645939636E1,8.018168449E0,-1.264349341E0,1.835214792E1
5.941766035E0,-1.712928581E1,6.349493980E0,-7.562388420E0,1.977165205E1
5.958577936E0,-1.711302185E1,2.827542543E0,-1.023105145E1,2.013764950E1
5.975384171E0,-1.628380013E1,3.678897381E0,-7.220846176E0,1.818892663E1
5.992191676E0,-1.806328392E1,5.682538509E0,-6.283866882E0,1.995145240E1
6.008999190E0,-1.742063713E1,7.121922493E0,-3.012343884E0,1.905976374E1
6.025807460E0,-1.296297646E1,5.405982494E0,3.031511545E0,1.436848870E1
6.042613573E0,-1.146659088E1,5.445431709E0,9.321958542E0,1.574910613E1
6.059420791E0,-1.033603287E1,6.490066051E0,1.102426815E1,1.644655043E1
6.076226650E0,-9.599564552E0,6.285463810E0,5.924201488E0,1.291335968E1
6.093036566E0,-9.354104042E0,5.256597996E0,1.481622458E0,1.083172609E1
6.109839881E0,-9.486302376E0,4.433934212E0,-4.275519252E-1,1.048010048E1
6.126651926E0,-9.544735909E0,3.806034565E0,-8.719730377E-2,1.027596643E1
6.143447568E0,-9.518835068E0,3.248644829E0,4.806205034E-1,1.006940467E1
6.160266589E0,-9.397104263E0,2.943169832E0,2.933120728E-2,9.847267515E0
6.177060566E0,-9.036663055E0,2.720655680E0,-6.867204905E-1,9.462284689E0
6.193879302E0,-8.511345863E0,2.403106928E0,-1.838134527E0,9.033087504E0
6.210675944E0,-7.640372753E0,2.823055267E0,-2.675048351E0,8.573261954E0
6.227495860E0,-3.997489929E0,5.543631554E0,-5.472474098E-1,6.856475499E0
6.244289714E0,1.654293823E1,9.390419006E0,7.332501888E0,2.038662205E1
6.261107544E0,7.589266968E1,-5.423897266E0,1.310237694E1,7.720614130E1
6.277919181E0,7.569600677E1,-3.781885386E0,1.008195114E1,7.645805280E1
6.294726025E0,4.324655151E1,-2.334434509E0,2.354298115E0,4.337345412E1
6.370358586E0,-2.030692482E1,1.485282540E0,1.638159752E-1,2.036182938E1
6.387165288E0,-1.115035057E1,2.465185881E0,2.102181435E0,1.161148682E1
6.403964941E0,-5.982222557E0,2.845854759E-1,-1.433143735E0,6.158074097E0
6.420776780E0,-6.910575867E0,2.626060963E0,5.418163300E0,9.165628649E0
6.437589627E0,-8.179770470E0,6.843659878E0,1.118737507E1,1.545644482E1
6.454387885E0,-7.467908859E0,7.489061832E0,1.146329689E1,1.559688704E1
6.471198055E0,-7.310506821E0,1.869864702E0,6.742790222E0,1.011954169E1
6.488000902E0,-6.542930603E0,-1.927417517E-1,-6.907827854E0,9.516573749E0
6.504817666E0,-8.614096642E0,2.656099319E0,-4.260232449E0,9.970311182E0
6.521623604E0,-1.027119541E1,8.698947906E0,-6.000703812E0,1.473694663E1
6.538432432E0,-1.106009197E1,8.493375778E0,-9.724133492E0,1.700064230E1
6.555225921E0,-1.144632149E1,3.714064121E0,-7.906908035E0,1.439901881E1
6.572043873E0,-9.527009964E0,1.553019166E0,-5.257023811E0,1.099145517E1
6.588857004E0,-5.114539146E0,5.479216576E-2,-3.025909424E0,5.942864688E0
6.605661754E0,2.187414169E-1,4.630362391E-1,-5.347731113E-1,7.404273407E-1
6.622469819E0,1.192324638E1,6.511430144E-1,9.817814827E-2,1.194141660E1
6.639272137E0,3.087947845E1,3.754713535E-1,3.045337915E0,3.103155251E1
6.656086559E0,4.153051376E1,-1.095021725E0,2.016065121E-1,4.154543647E1
6.672891339E0,3.069074821E1,-1.306983232E0,-4.016341209E0,3.098001336E1
6.689698285E0,2.246431732E1,-2.378077030E0,6.533727646E-1,2.259928537E1
6.706504987E0,1.098311043E1,-2.435044289E0,1.285606384E0,1.132302694E1
6.723312961E0,4.424448013E-1,-2.612488270E0,2.410110950E0,3.581827349E0
6.740121677E0,-8.938566208E0,2.098954320E-1,2.354166508E0,9.245762375E0
6.756930241E0,-1.474076843E1,1.559170723E0,8.079922199E-1,1.484500316E1
6.773735397E0,-1.438346195E1,2.062823772E0,1.150971651E0,1.457614336E1
6.790543920E0,-1.134707546E1,1.498214126E0,4.092656374E-1,1.145287149E1
6.807349666E0,-1.129102230E1,1.424005985E0,-3.549582720E0,1.192117927E1
6.824159816E0,-1.037445927E1,1.817639828E0,-4.357516289E0,1.139829671E1
6.840963588E0,-1.037595367E1,2.591118813E0,-3.160758734E0,1.115189254E1
6.864064521E0,-1.063074970E1,3.771573305E0,-1.835955381E0,1.142840044E1
6.885072578E0,-1.193668270E1,6.732249737E0,3.858550310E0,1.423713422E1
6.901892082E0,-1.173251820E1,6.372941017E0,2.146291971E0,1.352305179E1
6.918703265E0,-1.153364277E1,5.572372437E0,-8.116385937E-1,1.283491361E1
6.935505985E0,-1.042533302E1,4.705707073E0,-4.269217968E0,1.220890944E1
6.952317701E0,-9.242758751E0,4.531443596E0,-5.621618748E0,1.172881783E1
6.969120879E0,-7.857833862E0,4.074994087E0,-5.283714294E0,1.030867434E1
6.985931824E0,-3.208104134E0,5.705264091E0,-1.794791460E0,6.786991003E0
7.002737020E0,1.337451363E1,1.429772472E1,1.300372887E1,2.350318088E1
7.019548523E0,5.844629669E1,1.766657066E1,2.184682274E1,6.484875465E1
7.036352306E0,9.888571930E1,-1.729485703E1,1.272354317E1,1.011898518E2
7.053160809E0,5.683825684E1,-3.389419556E0,9.404630661E0,5.771068084E1
7.069968716E0,2.055002975E1,-2.145804763E-1,-9.618338585E0,2.269057524E1
7.086774416E0,-1.958137512E0,-4.739713669E0,-1.838885117E1,1.909054833E1
7.103581937E0,-1.421388817E1,-4.920809746E0,-1.661434174E0,1.513305484E1
7.120391151E0,-2.492357254E1,-1.302285957E1,7.151962280E0,2.901602840E1
7.137196583E0,-1.779070282E1,-3.331053257E-1,-4.706782341E0,1.840581066E1
7.154004250E0,-1.273581409E1,5.397956371E0,-7.903372765E0,1.593117054E1
7.170811690E0,-1.099896049E1,6.293494225E0,-1.094877720E0,1.271943233E1
7.187621866E0,-1.069482136E1,6.955653667E0,2.534070015E0,1.300699168E1
7.204428004E0,-1.066091919E1,8.060756683E0,3.072997808E0,1.371401881E1
7.221233713E0,-1.024939442E1,7.164749622E0,8.945741653E-1,1.253730378E1
7.238043137E0,-9.916478157E0,6.222336292E0,-5.937201977E-1,1.172205236E1
7.254851472E0,-9.716283798E0,6.196309090E0,-1.207218409E0,1.158696653E1
7.271665239E0,-9.647779465E0,6.058602333E0,-9.851803780E-1,1.143489795E1
7.288462124E0,-9.483007431E0,5.623478889E0,-1.440939665E0,1.111877924E1
7.305259860E0,-9.321180344E0,4.891410828E0,-2.074644089E0,1.072914027E1
7.322081032E0,-9.288949966E0,3.905051231E0,-2.609410048E0,1.040879615E1
7.338874331E0,-9.418156624E0,3.269958735E0,-3.076451302E0,1.043354479E1
7.355692855E0,-9.514254570E0,2.935174227E0,-3.092244387E0,1.042584592E1
7.372514082E0,-1.063092518E1,2.270717144E0,-5.230381489E-1,1.088330352E1
7.389310047E0,-9.084034920E0,1.999540329E0,-6.291040421E0,1.122920485E1
7.406116908E0,-8.247210503E0,2.293339729E0,-5.783045769E0,1.033051337E1
7.422921697E0,-7.951179028E0,2.393575668E0,-6.880775452E0,1.078404021E1
7.439728837E0,-4.942477226E0,4.806038857E0,-7.355809212E0,1.008136994E1
7.456542202E0,3.204215240E1,1.278505516E1,5.350752831E0,3.491114037E1
7.473347474E0,1.098812256E2,-1.655096817E1,1.793014145E1,1.125580217E2
7.490154456E0,8.048447418E1,-1.108617783E1,1.479286575E1,8.258015985E1
7.506958793E0,3.396881866E1,-9.436670542E-1,6.767036438E0,3.464915484E1
7.523767647E0,6.595131874E0,2.124426365E0,8.365209103E-1,6.979163206E0
7.540577253E0,-6.560010910E0,2.114416361E0,-1.624311447E0,7.081164266E0
7.557382542E0,-9.578336716E0,1.520284653E0,-2.250883818E0,9.956017157E0
7.574191349E0,-1.647944641E1,2.460839748E0,-7.391693592E-1,1.667855682E1
7.590998814E0,-1.694586754E1,4.454995632E0,-1.728232956E1,2.461073603E1
7.607804986E0,-1.292133236E1,2.564093351E0,-1.114717865E1,1.725673771E1
7.624622182E0,-1.218143845E1,2.427067757E-1,-9.706729889E0,1.557777116E1
7.641421586E0,-1.155851936E1,9.527386427E-1,-6.183933258E0,1.314336758E1
7.658228358E0,-1.127229500E1,2.425025940E0,-2.861213684E0,1.187989600E1
7.675034736E0,-1.187507057E1,3.844360352E0,4.564836025E-1,1.249018754E1
7.691849357E0,-1.221665382E1,4.098797321E0,2.699024677E-1,1.288873995E1
7.708651878E0,-1.327224731E1,5.497057915E0,-1.288344741E0,1.442324605E1
7.725459557E0,-1.360038567E1,6.674754143E0,-8.881981373E-1,1.517602481E1
7.742264661E0,-1.358633804E1,7.439394474E0,9.180617332E-1,1.551695875E1
7.759080442E0,-1.305338573E1,7.671977997E0,1.979540110E0,1.526986262E1
7.775869974E0,-1.214442062E1,7.315049171E0,2.445862055E0,1.438676954E1
7.792686817E0,-1.051827431E1,5.801601410E0,-2.933723927E-1,1.201577050E1
7.809494212E0,-9.827735901E0,4.699208736E0,-3.821664333E0,1.154435247E1
7.826296768E0,-9.781387329E0,3.870268345E0,-5.994268894E0,1.210726124E1
7.843110113E0,-9.738869667E0,2.834715128E0,-5.262920380E0,1.142713976E1
7.859902781E0,-8.722853661E0,2.029111385E0,-5.585191727E0,1.055461205E1
7.876724254E0,-7.882019520E0,2.086824894E0,-5.282356262E0,9.715161220E0
7.967062881E0,6.050066757E1,-7.937574387E0,-4.366020584E1,7.503032346E1
7.983869114E0,1.434663677E1,-5.746825218E0,-6.565660477E0,1.679166115E1
8.000678298E0,-4.893523216E0,-9.403815269E-1,-8.965556145E0,1.025729418E1
8.017473750E0,-1.449059772E1,1.123345613E0,4.053912163E0,1.508885455E1
8.034292679E0,-1.608220673E1,-1.088987350E0,-5.618087053E-1,1.612882189E1
8.051100968E0,-1.430844402E1,-2.202282190E0,-4.174808502E0,1.506687238E1
8.067908118E0,-1.495337582E1,-8.956853151E-1,-3.273037672E-1,1.498375214E1
8.084715970E0,-1.772325516E1,8.697465062E-1,4.364897728E0,1.827354822E1
8.101521024E0,-1.974292374E1,3.864499092E0,1.028455067E1,2.259401189E1
8.118332689E0,-1.875181770E1,3.580023289E0,1.193521690E1,2.251436511E1
8.135136197E0,-1.562642670E1,1.339355230E0,3.471364498E0,1.606329528E1
8.151955503E0,-1.493655109E1,1.475879073E0,6.937906742E-1,1.502531607E1
8.168753223E0,-1.313776112E1,2.196050167E0,-2.154395580E0,1.349313988E1
8.185563985E0,-1.136515045E1,2.502082348E0,-4.615646362E0,1.251923529E1
8.202363433E0,-1.014514351E1,2.207828283E0,-5.302929878E0,1.165845221E1
8.219175526E0,-9.239557266E0,1.795974493E0,-4.944078922E0,1.063197344E1
8.235985291E0,-8.599946976E0,1.419166446E0,-4.851663589E0,9.975558178E0
8.252790059E0,-8.330430031E0,1.357583761E0,-5.078511238E0,9.850399716E0
8.269598084E0,-8.009111404E0,1.376481056E0,-5.589422703E0,9.863174526E0
8.286406445E0,-7.728980064E0,1.737677813E0,-7.158363819E0,1.067702344E1
8.303214082E0,-7.868088722E0,1.789528728E0,-5.819696426E0,9.948773779E0
8.320017192E0,-7.867165089E0,1.704428196E0,-5.595070839E0,9.803171920E0
8.336831190E0,-7.851198673E0,1.713331699E0,-6.151947975E0,1.012043922E1
8.353641065E0,-8.005970955E0,1.352587104E0,-6.548897743E0,1.043135295E1
8.370442517E0,-8.136926651E0,1.338336349E0,-7.135758400E0,1.090503404E1
8.387250248E0,-7.739012241E0,1.142824411E0,-6.390894413E0,1.010157857E1
8.404058792E0,-6.625909805E0,4.610504508E-1,-5.243590832E0,8.462298333E0
8.420866388E0,8.122648239E0,7.037441730E-1,8.746212006E0,1.195696010E1
8.437660232E0,8.306863403E1,1.005925369E1,3.367000198E1,9.019565166E1
8.454480240E0,1.182092285E2,-1.223214054E1,2.605957413E1,1.216640800E2
8.471292475E0,6.777753448E1,-4.689721107E0,8.008414268E0,6.840995808E1
8.488090438E0,2.033708191E1,-4.896071434E0,-3.855877686E1,4.386738753E1
8.504899766E0,3.048142433E0,8.031208515E-1,-1.114837646E1,1.158544230E1
8.521708045E0,-5.359109879E0,7.390739918E-1,2.835568905E0,6.107924367E0
8.538520605E0,-1.376148796E1,-1.588046551E-1,7.848240852E0,1.584293705E1
8.555324431E0,-1.641193962E1,1.229548693E0,5.607651234E0,1.738704416E1
8.572130593E0,-1.494570446E1,3.729033470E-1,-5.373302698E-1,1.496000877E1
8.588947061E0,-1.541684532E1,-1.077093482E0,-2.736033440E0,1.569474845E1
8.605747008E0,-1.761822510E1,5.126105547E-1,-1.175450087E0,1.766483252E1
8.622551044E0,-1.671894646E1,1.980304599E0,6.459381580E-1,1.684820504E1
8.639371112E0,-1.588729668E1,3.249217987E0,2.758546829E0,1.644910921E1
8.656175771E0,-1.386894894E1,2.281826973E0,1.421450853E0,1.412710167E1
8.672964772E0,-1.264063072E1,1.999048471E0,-6.958451271E-1,1.281662749E1
8.689794302E0,-1.177350616E1,2.833488464E0,-2.267550707E0,1.232014166E1
8.706594524E0,-1.086814594E1,3.591187000E0,-4.471276760E0,1.228843099E1
8.723400717E0,-1.026939583E1,3.783243656E0,-5.873817921E0,1.242075522E1
8.740206300E0,-9.198086739E0,3.054219484E0,-5.801087856E0,1.129538298E1
8.757012923E0,-8.670272827E0,2.112917423E0,-1.145578575E1,1.452146956E1
8.773823102E0,-8.086708069E0,2.660315990E0,-5.355630875E0,1.005757976E1
8.790631411E0,-8.171769142E0,2.937453747E0,1.236569405E0,8.771291200E0
8.807437809E0,-8.168011665E0,3.724745274E0,-8.639473915E-1,9.018677675E0
8.824240971E0,-8.768942833E0,5.431574821E0,-1.956387281E0,1.049875300E1
8.841052658E0,-9.263953209E0,5.051603317E0,-1.166330576E0,1.061601866E1
8.857858077E0,-8.959400177E0,3.799037457E0,-3.053015709E0,1.019923733E1
8.874667435E0,-8.595109940E0,3.697713852E0,-5.851022243E0,1.103555454E1
8.891461298E0,-7.205517769E0,1.854400396E0,-7.106326103E0,1.028873937E1
8.908280849E0,-6.872648239E0,8.817787170E-1,-3.556124687E0,7.788250787E0
8.925089159E0,-3.006679535E0,-4.517914057E-1,2.397494793E0,3.871978639E0
8.941897212E0,3.115396881E1,9.291213036E0,2.143520355E1,3.894052341E1
8.958688116E0,1.233032990E2,-7.603626728E0,4.035449600E1,1.299615482E2
9.042741506E0,-1.301915169E1,4.107383728E0,1.986810684E0,1.379551842E1
9.059546366E0,-1.410379219E1,2.517701626E0,-3.513164043E0,1.475120664E1
9.076334596E0,-1.464520550E1,2.353899956E0,-1.388865590E0,1.489804808E1
9.093164329E0,-1.613926125E1,2.679576874E0,5.256440639E-1,1.636863426E1
9.109962201E0,-1.786225128E1,2.271835089E0,1.671589971E0,1.808356902E1
9.126775068E0,-1.700695610E1,4.387984753E0,5.417557716E0,1.838044879E1
9.143588677E0,-1.391849709E1,3.816326618E0,8.803360939E0,1.690526763E1
9.160392764E0,-1.391839409E1,4.873976707E0,9.113473892E0,1.733588040E1
9.177201064E0,-1.501120758E1,9.860679626E0,5.369959354E0,1.874582138E1
9.194008437E0,-1.560269737E1,1.298033333E1,-3.022129536E-1,2.029838790E1
9.210814427E0,-1.284146309E1,8.813472748E0,-1.842504621E0,1.568359970E1
9.227621577E0,-1.007319069E1,4.917693615E0,-2.877709627E0,1.157298984E1
9.244430954E0,-8.735446930E0,4.140735149E0,-3.011914730E0,1.012548028E1
9.267531439E0,-7.207061768E0,4.520506859E0,-4.103102684E0,9.445219596E0
9.284349784E0,-6.523092747E0,4.609330177E0,-5.353941441E0,9.615682639E0
9.301143545E0,-5.917470932E0,4.584228516E0,-6.823784351E0,1.012895089E1
9.317964270E0,-5.320285320E0,4.254907608E0,-8.012269974E0,1.051694560E1
9.334755241E0,-4.750820160E0,3.678594112E0,-1.038413239E1,1.199718935E1
9.351579780E0,-4.345473766E0,3.366631031E0,-1.404817486E1,1.508537582E1
9.368373818E0,-5.192078114E0,3.775935173E0,-9.592672348E0,1.154273470E1
9.385191582E0,-4.821778774E0,4.765301228E0,-9.699752808E0,1.183397021E1
9.402000914E0,-1.214097977E0,8.299948692E0,-1.009351826E1,1.312411113E1
9.418809782E0,2.503212357E1,2.299766350E1,2.720584679E1,4.353915291E1
9.435614664E0,9.469129181E1,2.054714584E1,4.398503113E1,1.064110375E2
9.452423808E0,9.132440186E1,-5.276601911E-1,2.567543793E1,9.486650047E1
9.469229945E0,4.827175522E1,2.561815262E0,6.031596661E0,4.871452974E1
9.486037528E0,1.636456299E1,-3.644974709E0,-7.422047138E0,1.833498149E1
9.502852743E0,1.366880417E0,-9.018079758E0,-1.569894791E1,1.815629615E1
9.519652518E0,-5.935586929E0,-1.107106686E1,-1.993033886E-1,1.256341655E1
9.536459597E0,-8.751001358E0,-1.164316273E1,4.435264587E0,1.522546666E1
9.553268324E0,-9.761094093E0,-1.087789345E1,1.870702744E0,1.473455301E1
9.570078137E0,-1.063696575E1,-9.061412811E0,1.060262799E0,1.401350776E1
9.586891447E0,-1.153761292E1,-6.595979214E0,5.130113363E-1,1.329987347E1
9.603689701E0,-1.265153313E1,-5.181335449E0,1.684792042E0,1.377483400E1
9.620499785E0,-1.476117420E1,-2.151672602E0,5.045253754E0,1.574727101E1
9.637304524E0,-1.803344536E1,1.126954913E0,1.040030289E1,2.084805696E1
9.654111541E0,-2.144208908E1,4.026003361E0,1.497983265E1,2.646445302E1
9.670928288E0,-1.883271980E1,4.049088001E0,5.856558800E0,2.013369638E1
9.687724962E0,-1.456634045E1,2.705151796E0,-1.247074008E0,1.486779452E1
9.704540620E0,-1.163302708E1,2.104798794E0,-2.771003246E0,1.214232086E1
9.721333335E0,-1.018152809E1,1.194266915E0,-3.785441399E0,1.092791628E1
9.738150712E0,-9.439303398E0,3.066902757E-1,-4.524951935E0,1.047233009E1
9.754944862E0,-8.989365578E0,-4.428229332E-1,-4.960962296E0,1.027696125E1
9.771765175E0,-8.670677185E0,-1.003786325E0,-5.297008514E0,1.021011895E1
9.788559579E0,-8.495125771E0,-1.327138662E0,-5.533434868E0,1.022484036E1
9.805377786E0,-8.443223000E0,-1.534443736E0,-5.787069321E0,1.035049291E1
9.822189045E0,-8.342091560E0,-1.876799941E0,-5.452152252E0,1.014094837E1
9.838980442E0,-7.995695591E0,-2.691617012E0,-4.932331085E0,9.772606615E0
9.855803116E0,-6.803313255E0,-3.646673203E0,-4.389702320E0,8.879908961E0
9.872610153E0,2.024077415E0,-9.505468369E0,-1.691064835E-1,9.720052227E0
9.889417262E0,4.995829773E1,-2.110543823E1,1.623570824E1,5.661156469E1
9.906221838E0,9.241512299E1,-1.710984421E1,1.673956299E1,9.546473011E1
9.923032365E0,6.576402283E1,-8.515501976E0,1.045848083E1,6.713270659E1
9.939843568E0,2.973154831E1,-3.098052502E0,2.224027395E0,2.997514290E1
9.956646569E0,1.108698654E1,2.210397720E0,-3.089308739E-1,1.130940171E1
9.973452401E0,6.213837624E0,7.751628399E0,2.937793732E-3,9.934763685E0
9.990262154E0,8.071358681E0,1.379096699E1,3.994121552E-1,1.598427763E1
1.000707273E1,5.616897583E0,1.452530766E1,2.054566383E0,1.570844817E1
1.002386406E1,-1.982517242E-1,1.203731918E1,4.181459904E0,1.274444835E1
1.004068117E1,-5.281764507E0,8.616769791E0,1.500155687E0,1.021744709E1
1.005747907E1,-6.403097630E0,5.113903522E0,-1.385017157E0,8.310832751E0
1.007429940E1,-6.591421127E0,2.915439606E0,-2.909532785E0,7.772515783E0
1.009109401E1,-8.725682259E0,2.765370846E0,5.847923756E-1,9.172065684E0
1.010791278E1,-1.162556839E1,7.025979996E0,5.231152058E0,1.455620786E1
1.012472098E1,-1.508423805E1,5.255110741E0,-3.694137573E1,4.024693364E1
1.014153004E1,-1.608573532E1,4.155917168E0,-3.082994080E1,3.502153306E1
1.015833523E1,-1.423625374E1,1.700059295E0,-8.431869507E0,1.663302575E1
1.017513098E1,-1.333212376E1,-4.503438473E-1,4.095967293E0,1.395440008E1
1.019195132E1,-1.373741627E1,-1.077822328E0,8.552438736E0,1.621796889E1
1.020875903E1,-1.440643978E1,-1.431077719E-1,6.209183693E0,1.568821051E1
1.022556468E1,-1.412182999E1,4.971819520E-1,4.382331371E-1,1.413737318E1
1.024235462E1,-1.411846161E1,-3.817754984E-1,-4.784633636E0,1.491205652E1
1.025918115E1,-1.312278843E1,-1.529974461E0,-7.970729828E0,1.542987142E1
1.027597321E1,-1.153343487E1,-2.023301601E0,-6.149775028E0,1.322624671E1
1.029279241E1,-1.084847736E1,-2.479285479E0,-2.108472586E0,1.132616326E1
1.030960612E1,-1.082651806E1,-1.573211432E0,-3.730394840E-1,1.094658147E1
1.032641018E1,-1.051579571E1,-3.896523416E-1,-4.238190651E-1,1.053154361E1
1.034322646E1,-6.556675911E0,-9.066985250E-1,-1.583587885E0,6.805868924E0
1.036002339E1,-3.618872643E0,-1.378269196E0,2.778780222E0,4.766286259E0
1.037683407E1,-4.410333633E-1,-1.508923769E0,1.074368191E1,1.085808741E1
1.039363936E1,1.470449162E1,6.234163761E0,1.463160992E1,2.166035273E1
1.041045002E1,7.295796204E1,7.337240219E0,1.724530792E1,7.532662188E1
1.042725395E1,9.122377014E1,-1.371702576E1,1.681116676E1,9.376858942E1
1.044406519E1,4.777278519E1,-6.189138889E0,-4.478323364E1,6.577296147E1
1.046086357E1,1.236360550E1,1.359559536E0,-6.750116348E0,1.415172123E1
1.047767816E1,4.902692795E0,-9.222450852E-2,-4.223662376E0,6.471802366E0
1.049448552E1,3.824645996E0,-2.453747988E0,-1.453410387E0,4.770869725E0
1.051129281E1,-1.454053879E0,-1.715947509E0,1.732635736E0,2.839150424E0
1.052809934E1,-7.003471375E0,5.466375127E-2,1.361699820E0,7.134831870E0
1.054490637E1,-1.011234665E1,7.117333412E-1,6.455421448E-3,1.013736459E1
1.056171558E1,-1.087981796E1,6.805100441E-1,-8.000023365E-1,1.093039508E1
1.057852372E1,-1.132322407E1,4.799247384E-1,-1.582965136E0,1.144340464E1
1.059532387E1,-1.194872284E1,3.183364868E-1,-2.437590122E0,1.219898197E1
1.061213582E1,-1.246232224E1,7.285200059E-2,-4.109226227E0,1.312251969E1
1.062893229E1,-1.290445137E1,2.626726329E-1,-4.704383850E0,1.373772505E1
1.064575104E1,-1.324353123E1,5.074602365E-1,-3.392715931E0,1.368061244E1
1.066255889E1,-1.367421436E1,6.855300069E-1,-7.088809013E-1,1.370972655E1
1.067936600E1,-1.310489082E1,1.696290374E-1,1.911140442E0,1.324459872E1
1.069617160E1,-1.252329254E1,-9.871840477E-1,9.885324240E-1,1.260097555E1
1.071298213E1,-1.176010799E1,-1.727940798E0,-9.320855737E-1,1.192286471E1
1.072979331E1,-1.097907352E1,-1.589678168E0,-2.795276165E0,1.144031035E1
1.074659566E1,-1.116530514E1,-9.311734438E-1,-3.369755745E0,1.169984515E1
1.076340563E1,-1.197923183E1,-2.180439234E-1,-1.956782579E0,1.213995620E1
1.084113687E1,-6.340750694E0,-1.574266315E0,3.012252569E0,7.194240706E0
1.085794830E1,-2.182216167E0,-1.671263814E0,7.408286095E0,7.901765182E0
1.087474861E1,6.643095970E0,-3.294686317E0,1.688203430E1,1.843878424E1
1.089156154E1,7.362643433E1,-6.646887302E0,-2.115959167E0,7.395613717E1
1.090836885E1,9.457330322E1,-6.566626549E0,5.619298458E0,9.496739852E1
1.092518108E1,7.432805634E1,-2.737506151E0,-1.626213646E1,7.613547781E1
1.094196902E1,2.401559448E1,4.056746960E0,-1.449091911E1,2.834065474E1
1.095878919E1,-1.126120090E0,4.955492020E0,-1.750505447E0,5.374878318E0
1.097558800E1,-8.294254303E0,1.417555332E0,-5.853354931E0,1.025016495E1
1.099239922E1,-1.018306255E1,3.029589653E-1,-7.344983101E0,1.255927243E1
1.100919872E1,-1.181265259E1,7.295286655E-1,-9.389637947E0,1.510749066E1
1.102602094E1,-1.160271931E1,1.215923429E0,-6.154221058E0,1.318999628E1
1.104282502E1,-1.142430496E1,2.234076023E0,-5.897741318E0,1.304949011E1
1.105963740E1,-1.281142807E1,3.184577227E0,-2.300088882E0,1.340017277E1
1.107643722E1,-1.528321648E1,2.884871006E0,4.692181587E0,1.624548413E1
1.109324700E1,-1.537185860E1,3.656275511E0,1.331368208E0,1.585669980E1
1.111004463E1,-1.809229279E1,-1.389755309E-1,2.450982571E0,1.825808555E1
1.112686123E1,-1.797290421E1,-1.220120192E0,5.051574707E-1,1.802135297E1
1.114367576E1,-1.626738167E1,-2.161122561E0,-2.342480659E0,1.657665143E1
1.116047992E1,-1.414140320E1,-2.002089500E0,-3.819399357E0,1.478429769E1
1.117728366E1,-1.219949818E1,-1.974821329E0,-3.497318268E0,1.284363306E1
1.119409010E1,-1.040427589E1,-1.390676379E0,-2.729327917E0,1.084583646E1
1.121090102E1,-9.452423096E0,-2.904809117E-1,-2.625410795E0,9.814553652E0
1.122770525E1,-9.154698372E0,1.022917509E0,-2.851071119E0,9.642793632E0
1.124238970E1,-8.972861290E0,1.994505882E0,-4.025814056E0,1.003481302E1
1.126552736E1,-8.973122597E0,3.805107355E0,-3.890890837E0,1.049451298E1
1.128233368E1,-8.352169991E0,4.598832607E0,-4.508807659E0,1.054691194E1
1.129914055E1,-5.211852551E0,2.240163326E0,-3.853510857E0,6.857935889E0
1.131594926E1,-4.222143650E0,1.115121603E0,2.858232498E0,5.219146118E0
1.133275478E1,-1.585996151E0,2.096444368E-1,1.167819595E1,1.178726411E1
1.134956371E1,2.903429031E0,2.238616347E-1,1.798540115E1,1.821962318E1
1.136637186E1,6.188447571E1,1.832806349E0,5.998404503E0,6.220151420E1
1.138317642E1,9.878169250E1,-1.276743221E1,6.867787838E0,9.983985481E1
1.139999809E1,7.642766571E1,-1.462899494E1,-6.922268867E0,7.812242562E1
1.141679235E1,2.351557350E1,-1.520417976E1,-1.821067619E1,3.340326342E1
1.143360084E1,2.149238586E0,-3.813702345E0,-3.478203773E0,5.591194288E0
1.145040631E1,-4.178101540E0,-1.321213484E0,-6.984901428E0,8.245664649E0
1.146721431E1,-8.143348694E0,-1.162412882E0,-6.739026070E0,1.063389882E1
1.148402820E1,-9.241608620E0,-2.549573779E-2,-4.162122726E0,1.013564233E1
1.150083092E1,-1.011390114E1,2.737534761E0,3.290273666E0,1.098230366E1
1.151763701E1,-1.100218105E1,3.155369759E0,3.126814604E0,1.186513025E1
1.153444568E1,-1.328870392E1,4.830476284E0,3.967950344E0,1.468563185E1
1.155124014E1,-1.613393021E1,4.473802567E0,4.754588127E0,1.740473273E1
1.156805953E1,-1.797970200E1,4.771239281E0,3.332294464E0,1.889811087E1
1.158486961E1,-1.705010605E1,3.874054193E0,7.494344711E-1,1.750074468E1
1.160167770E1,-1.811338997E1,-3.924494267E0,1.593747139E0,1.860205852E1
1.161847039E1,-1.839265060E1,-7.835246086E0,6.069571972E-1,2.000122683E1
1.163528879E1,-1.667391777E1,-6.964947701E0,-7.251509666E0,1.947086086E1
1.165209618E1,-1.304620934E1,-4.712912083E0,-1.069257164E1,1.751417159E1
1.166890706E1,-1.126146126E1,-2.443541527E0,-8.963933945E0,1.459943549E1
1.168570955E1,-1.084836864E1,-1.149357677E0,-6.471672058E0,1.268426839E1
1.170251541E1,-9.759009361E0,-3.542151451E-1,-4.843429089E0,1.090057510E1
1.171932987E1,-8.438595772E0,-1.717460155E-2,-1.844248772E0,8.637791795E0
1.173613132E1,-7.541490078E0,-5.859558582E-1,1.266383171E0,7.669494325E0
1.175294926E1,-7.518857956E0,-1.349192381E0,1.209592104E0,7.734122969E0
1.176975362E1,-7.458553791E0,-1.863741636E0,4.545714855E-1,7.701311108E0
1.178655656E1,-7.374806404E0,-1.912461400E0,-8.230504990E-1,7.663073158E0
1.180336422E1,-6.624421120E0,-1.572403431E0,1.543135643E-1,6.810229100E0
1.182017708E1,7.715940475E0,-4.534151077E0,8.323224068E0,1.222171519E1
1.183696799E1,8.713273621E1,-3.313319683E0,1.626967239E1,8.870058650E1
1.185378966E1,8.619229889E1,1.848116684E1,6.234251976E0,8.837155545E1
1.187059192E1,6.822129822E1,-9.527173042E0,-1.106599998E1,6.976653146E1
1.188739987E1,2.606796646E1,-1.118031120E1,-1.231480503E1,3.092236500E1
1.190420884E1,1.745233536E0,4.007396698E-1,-3.805444717E0,4.205691605E0
1.192101845E1,-1.465880013E1,3.340406418E0,-2.671613693E-1,1.503695818E1
1.193782263E1,-1.072658443E1,2.395949364E-1,-1.548067856E1,1.883529740E1
1.195463078E1,-1.177279377E1,-8.377128839E-1,-2.198988152E1,2.495706964E1
1.197144002E1,-1.134288311E1,-1.185333729E-1,-1.054776096E1,1.548968395E1
1.198824401E1,-1.172911739E1,2.083381414E0,-6.088901520E0,1.337861707E1
1.200504166E1,-1.544986057E1,5.987644672E0,-1.455852509E0,1.663338772E1
1.202185994E1,-1.669892693E1,5.973497391E0,2.128275633E0,1.786242953E1
1.203867225E1,-1.720327759E1,4.960615158E0,1.941966534E0,1.800921144E1
1.205547693E1,-1.636455154E1,5.751122952E0,1.117373943E0,1.738167101E1
1.207228521E1,-1.545149803E1,6.987045288E0,-1.142400980E0,1.699625468E1
1.208908937E1,-1.351815605E1,7.076774120E0,-2.966181040E0,1.554411480E1
1.210588738E1,-1.152622318E1,5.209465981E0,-3.140231371E0,1.303278212E1
1.212270306E1,-1.015175724E1,3.502346992E0,-3.712739706E0,1.136261614E1
1.213951561E1,-9.452605247E0,2.727531433E0,-5.796415806E0,1.141882699E1
1.215631914E1,-9.651839256E0,2.708466768E0,-7.695849419E0,1.263803353E1
1.217312954E1,-1.000946140E1,3.383463383E0,-8.160118103E0,1.335008125E1
1.218993513E1,-1.080895233E1,3.411850929E0,-5.556278229E0,1.262324859E1
1.220674683E1,-1.182723522E1,2.849951267E0,6.923470497E-1,1.218544458E1
1.222354544E1,-9.941317558E0,5.723048449E-1,4.087131500E0,1.076391990E1
1.224034959E1,-8.060606956E0,-4.715900421E-1,3.088165045E0,8.644798726E0
1.225716722E1,-6.482406616E0,-1.270526171E0,2.910084009E0,7.218339229E0
1.227396291E1,-2.057920933E0,-2.949220896E0,1.091283417E1,1.149012150E1
1.229078251E1,1.730195236E1,-3.526759624E0,2.107116318E1,2.749162612E1
1.230758485E1,9.220947266E1,-8.935295105E0,1.878181839E1,9.452609718E1
1.232439522E1,9.921293640E1,-1.909722900E1,1.335302925E1,1.019127779E2
1.234120266E1,6.520729828E1,-1.823258781E1,-5.717689133E1,8.862062914E1
1.235800933E1,1.476073837E1,-1.047236347E1,6.837337971E0,1.934680812E1
1.237482008E1,-4.785129547E0,2.840796471E0,-5.223092556E0,7.632056421E0
1.239162544E1,-7.046375275E0,1.026618719E0,-1.253335953E1,1.441493849E1
1.240843118E1,-8.161935806E0,-1.205278873E0,-8.196394920E0,1.162973701E1
1.242524928E1,-9.273971558E0,-9.816603661E-1,-7.563039780E0,1.200707193E1
1.244204926E1,-9.556819916E0,5.963123441E-1,-6.216231346E0,1.141621336E1
1.245885370E1,-9.983168602E0,6.714329123E-1,-5.760790825E0,1.154561338E1
1.247566087E1,-1.076663780E1,5.191031694E-1,-5.456618309E0,1.208158272E1
1.249246097E1,-1.444871235E1,-4.629436731E-1,-3.669512272E0,1.491458768E1
1.250927689E1,-1.714738846E1,-1.400919557E-1,-3.932840824E-1,1.715247006E1
1.252607464E1,-1.696687698E1,5.676253796E0,3.489862919E0,1.822838213E1
1.254289101E1,-1.656732368E1,7.482562065E0,3.252825499E0,1.846742599E1
1.255968928E1,-1.503067780E1,4.978505611E0,9.157550335E-1,1.586018286E1
1.257650841E1,-1.325539207E1,2.772804737E0,-1.627298236E0,1.363972011E1
1.259331325E1,-1.203702831E1,1.111823082E0,-3.499506235E0,1.258462336E1
1.261011941E1,-1.107799721E1,-8.410468698E-1,-6.130428314E0,1.268903201E1
1.262693191E1,-1.036310291E1,-2.037754774E0,-7.927892685E0,1.320597702E1
1.264374348E1,-1.006398201E1,-2.325047731E0,-6.932532310E0,1.243983863E1
1.266053800E1,-1.043737984E1,-1.433511972E0,-3.480046749E0,1.109525033E1
1.267735110E1,-1.064619923E1,-5.748850107E-1,-8.142838478E-1,1.069275965E1
1.269414298E1,-1.026111794E1,-1.084222794E0,-1.118434429E0,1.037867891E1
1.271096962E1,-9.741888046E0,-1.464042425E0,-2.711757421E0,1.021770186E1
1.272776920E1,-8.094526291E0,-6.623111367E-1,-1.784320593E0,8.315275816E0
1.274457142E1,-5.452355862E0,-3.104730248E-1,2.388734818E0,5.960757667E0
1.284122599E1,1.811063576E1,-1.394406128E1,1.318430901E1,2.638670075E1
1.285801858E1,-7.727231026E0,-9.675725698E-1,5.938482285E0,9.793460463E0
1.287483865E1,-7.383185387E0,-7.572873831E-1,-8.745203018E0,1.147011275E1
1.289163581E1,-9.269143105E0,-3.494869471E0,-9.900978088E0,1.400573074E1
1.290845206E1,-1.045467377E1,-2.927759171E0,-7.536492348E0,1.321630411E1
1.292527281E1,-1.019087696E1,-1.520565867E0,-4.332307339E0,1.117743176E1
1.294207039E1,-1.038201714E1,-1.236269355E0,-2.894388437E0,1.084860019E1
1.295886138E1,-1.176764488E1,-1.585185766E0,-1.262094975E-1,1.187460352E1
1.297568793E1,-1.563390350E1,-4.950990677E0,4.791882038E0,1.708488750E1
1.299248728E1,-1.713523102E1,-2.771609783E0,4.987315178E0,1.806021250E1
1.300929717E1,-1.435781670E1,-1.058859468E0,3.282364130E0,1.476624522E1
1.302610481E1,-1.207583523E1,2.423248291E-1,-4.804410934E-1,1.208781789E1
1.304290992E1,-1.222569370E1,2.429049611E-1,-2.869081736E0,1.256018389E1
1.305971808E1,-1.215705585E1,1.564677060E-1,-2.092082500E0,1.233674586E1
1.307652818E1,-1.201357269E1,7.972859144E-1,-3.254127502E-1,1.204439650E1
1.309333512E1,-1.188871193E1,1.662813425E0,-1.249491572E0,1.206928536E1
1.311014185E1,-1.196725464E1,2.714710712E0,-2.407151222E0,1.250516753E1
1.312695270E1,-1.115326118E1,3.046527863E0,-4.929711342E0,1.256895465E1
1.314375881E1,-1.045339108E1,3.179781437E0,-8.503862381E0,1.384557945E1
1.316056476E1,-1.051112556E1,3.432830334E0,-1.070805931E1,1.539255076E1
1.317737148E1,-1.219886017E1,2.893338203E0,-8.602970123E0,1.520508765E1
1.319418094E1,-1.383499432E1,3.010313034E0,-1.002397776E0,1.419414857E1
1.321099873E1,-1.130108643E1,8.165857792E-1,2.900135279E0,1.169581769E1
1.322779410E1,-7.861608028E0,-6.108229756E-1,7.530021667E-2,7.885661394E0
1.324459651E1,-5.107401848E0,-5.686283708E-1,6.967786789E0,8.657883378E0
1.326141481E1,1.435213089E0,2.359689772E-1,2.014416695E1,2.019660813E1
1.327821193E1,3.537751007E1,-2.818494320E0,1.830794907E1,3.993360900E1
1.329502814E1,1.161237411E2,3.303558826E-1,1.019881821E1,1.165712155E2
1.331183177E1,9.513810730E1,-5.281030655E0,1.371221352E1,9.626615992E1
1.332864440E1,3.676470947E1,-1.236615086E1,-4.012433243E1,5.580795286E1
1.334544761E1,-1.102741241E0,-4.937472343E0,-1.154739380E1,1.260702086E1
1.336225281E1,-1.257948685E1,6.889155388E0,-1.507161617E0,1.442135526E1
1.337906153E1,-8.879875183E0,4.076110840E0,-8.718391418E0,1.309493077E1
1.339586935E1,-8.767918587E0,8.400093317E-1,-7.964185715E0,1.187477436E1
1.341266572E1,-9.137115479E0,6.954082251E-1,-8.050444603E0,1.219754607E1
1.342947923E1,-9.790380478E0,1.160477638E0,-7.570383072E0,1.243016324E1
1.344629031E1,-9.967700958E0,1.389254332E0,-7.173557281E0,1.235900538E1
1.346309639E1,-1.012254524E1,1.970507741E0,-6.028237820E0,1.194522809E1
1.347991033E1,-1.079143047E1,1.335652113E0,-4.976911068E0,1.195861957E1
1.349671462E1,-1.203925896E1,1.052156448E0,-3.601222038E0,1.261029697E1
1.351352251E1,-1.332846642E1,7.631249428E-1,-1.326940060E0,1.341607791E1
1.353032763E1,-1.377667713E1,8.922387958E-1,1.939891815E0,1.394116577E1
1.354713735E1,-1.432391262E1,5.155595303E0,1.815058231E0,1.533131019E1
1.356394619E1,-1.462637901E1,6.526943207E0,-2.879382849E0,1.627337692E1
1.358075346E1,-1.423614407E1,6.749478340E0,-3.297290802E0,1.609644005E1
1.359755659E1,-1.308642769E1,6.256674290E0,-3.213739634E0,1.485694064E1
1.361436626E1,-1.137708855E1,5.135289192E0,-4.287118912E0,1.319805772E1
1.363117302E1,-1.002059937E1,3.840739965E0,-6.473592758E0,1.253280090E1
1.364797191E1,-9.111311913E0,3.091299534E0,-8.228546143E0,1.266021758E1
1.366479045E1,-8.750998497E0,3.253005505E0,-7.671772957E0,1.208379575E1
1.368159283E1,-7.120349407E0,1.657187343E0,-6.239145756E0,9.611065775E0
1.370469503E1,-5.233903885E0,6.524513960E-1,-1.991356850E0,5.637813832E0
1.372150416E1,-1.205051899E0,-1.361904263E0,6.622845173E0,6.867969968E0
1.373832119E1,1.406469250E1,3.124012470E0,2.072493362E1,2.524079838E1
1.375513040E1,7.022050476E1,1.439267921E1,3.416996765E1,7.940815571E1
1.377193591E1,1.082993240E2,-1.725300026E1,2.189205551E1,1.118287606E2
1.378874710E1,6.669828033E1,-1.113704967E1,1.188790131E1,6.865869699E1
1.380555399E1,2.468342590E1,-9.913764000E0,-4.754912186E1,5.448369683E1
1.382235863E1,-3.091674805E0,-7.096687794E0,4.824008465E0,9.120991635E0
1.383916600E1,-1.356234169E1,4.395304918E-1,4.888984203E0,1.442333060E1
1.385597507E1,-7.431936264E0,1.002614498E-1,-8.867588997E0,1.157056021E1
1.387278030E1,-8.382516861E0,-1.344757438E0,-9.753653526E0,1.293092103E1
1.388958915E1,-9.132570267E0,-1.585649848E0,-8.744354248E0,1.274291397E1
1.390639582E1,-9.260905266E0,-1.144842744E0,-7.210560799E0,1.179267647E1
1.392320477E1,-9.178997040E0,-5.520608425E-1,-5.147759438E0,1.053841473E1
1.394001076E1,-9.967763901E0,-6.389588118E-1,-2.437522411E0,1.028134724E1
1.395681854E1,-1.207146072E1,-1.507427692E0,-5.180833340E-1,1.217624378E1
1.397362732E1,-1.431760597E1,-2.251076221E0,-2.266877174E0,1.466969383E1
1.399043483E1,-1.426541901E1,-2.115535736E0,-5.571799278E-1,1.443219042E1
1.400724026E1,-1.397988892E1,-1.789474607E0,-4.457719326E-1,1.410100089E1
1.402405002E1,-1.361058807E1,-2.353733540E0,-5.838367939E-1,1.382494248E1
1.404084686E1,-1.361021805E1,-2.982105732E0,-1.302872777E0,1.399387249E1
1.405766349E1,-1.269050884E1,-1.698559999E0,-5.121548176E-1,1.281391522E1
1.407446940E1,-1.170533371E1,2.245365381E-1,-2.318986893E0,1.193494676E1
1.409127957E1,-1.077819633E1,5.367779136E-1,-2.358853817E0,1.104634954E1
1.410806682E1,-1.004477882E1,2.355207801E-1,-3.723823071E0,1.071540526E1
1.412489103E1,-8.879222870E0,9.911274910E-2,-3.931701660E0,9.711266656E0
1.414168611E1,-8.468242645E0,3.109590411E-1,-5.339916706E0,1.001611399E1
1.415850915E1,-8.501151085E0,5.060507059E-1,-6.738818645E0,1.085989566E1
1.417531611E1,-7.594074249E0,6.472396851E-1,-4.290234566E0,8.746141752E0
1.419212234E1,-6.974758148E0,6.410114765E-1,-3.634233475E0,7.890868133E0
1.420893072E1,-5.965569496E0,7.157195807E-1,-3.023650169E0,6.726271945E0
1.422573842E1,-3.094743729E0,1.704900414E-1,1.798162460E0,3.583279759E0
1.424254659E1,4.711335754E1,1.023534060E0,1.617547989E1,4.982331011E1
1.425934165E1,1.170840683E2,-1.885276794E1,2.470745468E1,1.211386157E2
1.427616149E1,7.769561768E1,-1.509463120E1,1.053920460E1,7.984692687E1
1.429296872E1,2.515645027E1,-4.420565605E0,-3.442144394E-1,2.554421410E1
1.430977644E1,-2.434405327E0,-4.300678253E0,-2.166843224E1,2.222483112E1
1.432658226E1,-1.289280224E1,-3.682930470E-1,-2.846673727E0,1.320846473E1
1.434339162E1,-1.268203926E1,4.247774124E0,-4.162304878E0,1.400722980E1
1.436019866E1,-9.163784981E0,3.586028576E0,-1.116313171E1,1.488119840E1
1.437700483E1,-8.793498993E0,2.013685942E0,-1.022911549E1,1.363874478E1
1.439381199E1,-8.598166466E0,2.444840670E0,-9.237731934E0,1.285462577E1
1.441062022E1,-8.072186470E0,2.951462984E0,-7.581959724E0,1.146112741E1
1.442742809E1,-7.713565826E0,3.529392242E0,-6.437479019E0,1.064879540E1
1.444423605E1,-7.798862934E0,4.283946991E0,-5.778405190E0,1.060963861E1
1.446104057E1,-8.763302803E0,5.764419556E0,-3.623156548E0,1.109735429E1
1.447784313E1,-1.039759064E1,6.742877007E0,-3.123874664E0,1.278025330E1
1.449465981E1,-1.036972618E1,6.107323647E0,-5.526763916E0,1.324295067E1
1.451147417E1,-1.101480484E1,6.326171875E0,-6.910772800E0,1.446046877E1
1.452825569E1,-1.181773281E1,6.836387634E0,-6.524050713E0,1.513136618E1
1.454507970E1,-1.191215897E1,7.060605049E0,-5.537867546E0,1.491374037E1
1.456187483E1,-1.119803429E1,6.607214928E0,-4.466496944E0,1.374775821E1
1.457869366E1,-1.058532810E1,6.089600563E0,-3.711838722E0,1.276362616E1
1.459550369E1,-9.314321518E0,4.926598549E0,-3.521671772E0,1.110991137E1
1.461231051E1,-8.153939247E0,3.667660952E0,-4.619483948E0,1.006370181E1
1.462911806E1,-7.231998920E0,2.649881363E0,-7.299115181E0,1.061135062E1
1.464592199E1,-6.656652451E0,2.076916695E0,-6.971503258E0,9.860347990E0
1.466273517E1,-5.406163692E0,1.845790386E0,-3.032037973E0,6.467364401E0
1.467954222E1,-3.685169220E-1,1.474941969E0,3.208286762E0,3.550262312E0
1.469634955E1,1.917657852E1,9.583767891E0,2.397105217E1,3.215899739E1
1.479088956E1,-4.791038513E0,-1.215967846E1,2.279374599E0,1.326677726E1
1.480768810E1,-1.541862202E1,-3.956894398E0,2.632659912E0,1.613449151E1
1.482450346E1,-1.330947685E1,-3.070887566E0,-9.623182297E0,1.670862538E1
1.484130192E1,-1.054533768E1,-3.523215294E0,-9.343481064E0,1.452301040E1
1.485811791E1,-1.024350166E1,-3.539777756E0,-8.517297745E0,1.378418346E1
1.487491340E1,-1.034436417E1,-3.016795635E0,-6.913743019E0,1.280260788E1
1.489174530E1,-1.084755707E1,-3.295555592E0,-5.233012199E0,1.248657670E1
1.490854305E1,-1.130281353E1,-3.637936115E0,-4.225403786E0,1.260326188E1
1.492534593E1,-1.198169136E1,-3.573857784E0,-3.535362720E0,1.299354366E1
1.494216068E1,-1.271045017E1,-3.486555338E0,5.487875938E-1,1.319139036E1
1.495896259E1,-1.341512299E1,-2.760733128E0,5.595518112E0,1.479516796E1
1.497577033E1,-1.365501022E1,-2.321966887E0,5.670535088E0,1.496682340E1
1.499258074E1,-1.249132156E1,-1.496886969E0,9.476811886E-1,1.261633404E1
1.500938601E1,-1.126667595E1,-8.745247126E-2,-2.207218409E0,1.148117799E1
1.502619197E1,-1.011425686E1,6.109255552E-1,-3.877639294E0,1.084930912E1
1.504932107E1,-9.532661438E0,1.168297648E0,-5.582174301E0,1.110843029E1
1.506611240E1,-9.476661682E0,1.557872653E0,-6.149586201E0,1.140401220E1
1.508289793E1,-9.591078758E0,1.976464748E0,-5.717066765E0,1.133931466E1
1.509972559E1,-9.805289268E0,1.987484574E0,-4.060424805E0,1.079726086E1
1.511653808E1,-1.009557343E1,2.164572954E0,-5.149922848E0,1.153809708E1
1.513334043E1,-9.315222740E0,3.247254372E0,-4.818531036E0,1.097890145E1
1.515014957E1,-7.300818443E0,1.841487646E0,-3.822379589E0,8.444146636E0
1.516695443E1,-4.964934349E0,6.803057194E-1,6.801218987E-1,5.057267519E0
1.518376551E1,3.963743210E0,-1.726199389E0,1.813758659E1,1.864572530E1
1.520057052E1,4.743686676E1,7.860166550E0,2.420547867E1,5.383255283E1
1.521738039E1,1.039375229E2,-1.411966228E1,1.131570816E1,1.055007999E2
1.523418700E1,7.846030426E1,-1.825244331E1,3.266657829E0,8.062159813E1
1.525099382E1,3.417168045E1,-4.492793083E0,5.896277428E-1,3.447080787E1
1.526779116E1,6.621929169E0,6.118688583E-1,-1.850831223E1,1.966677276E1
1.528460840E1,-5.540531158E0,2.783673525E0,-6.974110603E0,9.331909907E0
1.530141658E1,-9.193389893E0,3.671610117E0,-2.923642635E0,1.032215214E1
1.531822422E1,-8.846517563E0,3.422038555E0,-5.183985710E0,1.080948328E1
1.533503009E1,-8.664848328E0,2.329663754E0,-8.335565567E0,1.224698261E1
1.535184122E1,-8.845730782E0,1.870460510E0,-8.459762573E0,1.238196908E1
1.536864753E1,-1.001260281E1,1.996284842E0,-8.028367996E0,1.298815078E1
1.538545166E1,-1.199085712E1,2.508811951E0,-1.365641594E1,1.834591203E1
1.540226129E1,-1.312229443E1,2.737884998E0,-1.470555115E1,1.989833812E1
1.541906972E1,-1.166938972E1,2.342677593E0,-1.093685532E1,1.616408361E1
1.543586468E1,-1.026287460E1,2.344874620E0,-7.632023811E0,1.300280045E1
1.545268523E1,-1.001939487E1,2.338152885E0,-6.286170959E0,1.205699705E1
1.546948733E1,-1.088259411E1,2.747205734E0,-5.362408161E0,1.243918869E1
1.548629723E1,-1.075522137E1,2.691232204E0,-5.219388008E0,1.225395971E1
1.550310214E1,-9.417819977E0,2.228679419E0,-4.537325859E0,1.068876377E1
1.551991356E1,-8.502311707E0,2.333110332E0,-4.370258331E0,9.840318392E0
1.553670625E1,-8.195997238E0,2.577809811E0,-3.309445381E0,9.207165844E0
1.555352816E1,-8.475024223E0,2.870163679E0,-2.311778069E0,9.241655315E0
1.557033772E1,-8.804947853E0,3.152876139E0,-2.691136837E0,9.731903828E0
1.558714255E1,-9.213910103E0,3.440244198E0,-3.895050764E0,1.057841387E1
1.560394942E1,-1.040643597E1,3.014784813E0,-3.846666098E0,1.149694207E1
1.562075717E1,-1.002490139E1,2.003361940E0,-3.162374735E0,1.070106167E1
1.563756845E1,-7.859696388E0,8.363923430E-1,-2.036464691E0,8.162203618E0
1.565437077E1,-4.428088188E0,8.297920227E-2,5.730915070E0,7.242805954E0
1.567118172E1,1.243368435E1,2.351018429E0,2.160064316E1,2.503420818E1
1.568798694E1,6.995726013E1,1.578007984E1,4.042272568E1,8.232269381E1
1.570479808E1,1.039145126E2,-1.471718502E1,1.990954971E1,1.068232729E2
1.572160312E1,6.535852814E1,-9.511527061E0,8.507962227E0,6.659273060E1
1.573840913E1,3.228896332E1,-9.019683838E0,-3.102917290E1,4.568086491E1
1.575520584E1,-6.877064705E-1,-2.807171106E0,7.955816746E0,8.464524198E0
1.577202544E1,-1.222370148E1,1.906131268E0,-2.232267380E1,2.552163748E1
1.578883231E1,-1.201236153E1,1.160503626E0,-2.089355278E1,2.412849241E1
1.586236422E1,-9.867720604E0,2.173281908E-1,4.594526291E-1,9.880801495E0
1.587917629E1,-1.042797565E1,-1.325293779E-1,6.641802788E0,1.236421387E1
1.589596994E1,-1.165689468E1,1.319831610E-1,1.251949883E1,1.710667893E1
1.591278894E1,-1.195853806E1,-1.480224252E0,6.962962151E0,1.391691554E1
1.592959273E1,-1.173895454E1,-1.743463755E0,7.851672173E-1,1.189366248E1
1.594640358E1,-1.122876072E1,-1.815589666E0,-3.875446796E0,1.201667679E1
1.596320954E1,-1.054265785E1,-2.031754255E0,-6.180826664E0,1.238863504E1
1.598001965E1,-1.018706417E1,-1.840960026E0,-6.626179695E0,1.229112149E1
1.599682449E1,-9.751262665E0,-1.077132225E0,-5.497900486E0,1.124607697E1
1.601363622E1,-9.709630013E0,-3.292042017E-1,-4.101919174E0,1.054566410E1
1.603043755E1,-1.038521576E1,5.363631845E-1,-1.847434282E0,1.056188455E1
1.604724917E1,-9.928135872E0,1.259278178E0,-3.249218941E0,1.052193362E1
1.606405386E1,-7.362734318E0,5.884823799E-1,-8.799142838E0,1.148830200E1
1.608084969E1,-6.426966667E0,6.441838145E-1,-1.079251385E1,1.257772748E1
1.609767234E1,-6.383222580E0,1.227066994E0,-1.088729954E1,1.268008340E1
1.611446494E1,-6.152275562E0,1.196841478E0,-1.032060719E1,1.207467833E1
1.613128421E1,-5.789444923E0,1.407983780E0,-9.755578995E0,1.143115971E1
1.614810199E1,2.618299007E0,4.000761986E0,-3.805960655E0,6.111212864E0
1.616489987E1,6.597131348E1,1.304765129E1,2.776850891E1,7.275675565E1
1.618170847E1,1.077477341E2,-1.216816902E1,3.019916344E1,1.125594421E2
1.619851396E1,6.921075439E1,-8.494066238E0,9.898061752E0,7.042903742E1
1.621532238E1,2.526638985E1,-1.491984844E0,7.044930458E-1,2.532020508E1
1.623213352E1,2.072129250E0,-4.945031166E0,-3.737908936E1,3.776166540E1
1.624893281E1,-1.272867393E1,-2.856070518E0,-3.681759834E-1,1.305035756E1
1.626574749E1,-1.697494507E1,1.867615461E0,-6.835286617E-1,1.709104909E1
1.628255035E1,-1.090046692E1,-3.247056007E-1,-1.319411182E1,1.711754070E1
1.629935463E1,-9.424309731E0,-2.178138733E0,-1.279372406E1,1.603874302E1
1.631616995E1,-9.395669937E0,-1.831838965E0,-9.794828415E0,1.369572602E1
1.633296491E1,-9.201931000E0,-6.512771249E-1,-7.656164169E0,1.198818359E1
1.634980515E1,-9.193748474E0,-1.961064339E-2,-6.587440968E0,1.131016243E1
1.636659268E1,-9.427407265E0,2.238867283E-1,-4.957336903E0,1.065369993E1
1.638339560E1,-1.054394817E1,3.227231503E-1,-1.768327236E0,1.069607286E1
1.640020404E1,-1.188995647E1,4.328935146E-1,-4.029588699E-1,1.190465613E1
1.641701065E1,-1.133393764E1,-6.482365727E-2,-2.531734705E0,1.161344158E1
1.643381764E1,-1.070921230E1,-2.060602009E-1,-5.992325783E0,1.227345335E1
1.645062592E1,-1.057082081E1,3.467394114E-1,-7.365898132E0,1.288871352E1
1.646743455E1,-1.018022633E1,1.337091923E0,-7.331294060E0,1.261636617E1
1.648424673E1,-9.821992874E0,2.162595272E0,-6.226835728E0,1.182885648E1
1.650104794E1,-9.643659592E0,2.487051010E0,-4.849749088E0,1.107725865E1
1.651785601E1,-9.616224289E0,2.494532347E0,-3.964073181E0,1.069618331E1
1.653466377E1,-1.042769814E1,2.458231449E0,-3.428954363E0,1.124888965E1
1.655147250E1,-1.092128754E1,2.571652889E0,-1.794231415E0,1.136253433E1
1.656826538E1,-8.783666611E0,2.115778923E0,1.699846745E0,9.193410604E0
1.658508676E1,-5.814240932E0,6.542199850E-2,4.672543049E0,7.459379076E0
1.660188432E1,-2.953992844E0,-1.403063536E0,1.006322193E1,1.058126158E1
1.661870025E1,6.810210705E0,-2.449873924E0,1.490290642E1,1.656736164E1
1.663550050E1,7.572692871E1,-8.084468842E0,2.087937737E1,7.896755516E1
1.665231804E1,1.127144852E2,-2.372900391E1,1.029027176E1,1.156438952E2
1.666912130E1,6.358067322E1,-7.069997787E0,-2.242105865E1,6.778783627E1
1.668593279E1,1.988587189E1,-2.132323980E0,-9.483582497E0,2.213443117E1
1.670273842E1,-3.509516239E0,4.519113541E0,6.931876659E0,8.988326065E0
1.671954420E1,-7.408086777E0,7.100097179E0,-1.295766830E0,1.034263706E1
1.673635380E1,-8.332395554E0,5.239874840E0,-6.723117828E0,1.191995878E1
1.675315543E1,-9.546648979E0,4.313478470E0,-6.930955887E0,1.256116049E1
1.676996755E1,-1.071725273E1,4.319575787E0,-5.988100052E0,1.301443750E1
1.678676389E1,-1.024968052E1,3.635140657E0,-8.095730782E0,1.355769358E1
1.680357188E1,-1.045948982E1,3.368940115E0,-1.118069649E1,1.567669158E1
1.682039182E1,-1.180330086E1,5.228463173E0,-1.795171356E1,2.211150737E1
1.683719955E1,-1.072345734E1,5.458146572E0,-1.617560387E1,2.016020986E1
1.685400692E1,-9.271364212E0,4.992993355E0,-1.171658421E1,1.575330195E1
1.687081418E1,-1.100976181E1,5.976183891E0,-9.303660393E0,1.560409324E1
1.688761893E1,-1.264916134E1,6.381826401E0,-5.220996380E0,1.509926468E1
1.690442903E1,-1.187477303E1,5.614464760E0,2.145528793E-1,1.313691295E1
1.692123766E1,-9.562670708E0,4.038964748E0,-1.857099533E-1,1.038231166E1
1.693804293E1,-7.896798134E0,3.251918316E0,-1.172376156E0,8.620258659E0
1.695484827E1,-7.490678787E0,3.966653347E0,-1.459960938E-1,8.477377090E0
1.697165541E1,-7.653813839E0,5.065061569E0,1.275078297E0,9.266150206E0
1.698846739E1,-7.909987450E0,5.645612717E0,-8.709144592E-2,9.718458176E0
1.700527264E1,-8.267636299E0,5.039299011E0,-2.844144821E0,1.009145699E1
1.702206814E1,-7.958530903E0,3.730377674E0,-4.676743507E0,9.956197143E0
1.703887526E1,-7.056649685E0,2.677484512E0,-5.036980152E0,9.073940552E0
1.705570021E1,-6.237496853E0,2.283424854E0,-7.324960709E0,9.888146714E0
1.707250152E1,-4.762869358E0,1.779595375E0,-5.845584393E0,7.747434486E0
1.708929444E1,-3.791809082E-2,8.267545700E-1,2.152357578E0,2.305993071E0
1.710611818E1,2.101412201E1,1.030334187E1,2.225769615E1,3.229794445E1
1.712291327E1,7.947325897E1,1.363051414E1,3.639619446E1,8.846735431E1
1.713973686E1,9.575059509E1,-1.255669212E1,9.920065880E0,9.707860055E1
1.715653586E1,6.250491714E1,-6.584942818E0,1.993527412E-1,6.285114065E1
1.717334778E1,3.101670074E1,-8.049307823E0,-1.881489563E1,3.715948572E1
1.719015674E1,5.318951607E0,-7.592437744E0,8.801188469E-1,9.311872329E0
1.720696054E1,-8.697368622E0,-5.863507748E0,2.067023277E0,1.069100226E1
1.722377038E1,-1.102157402E1,-6.880181789E0,-2.595037937E0,1.324938554E1
1.724057864E1,-9.752832413E0,-8.259979248E0,-9.292695999E0,1.580187319E1
1.725738527E1,-9.777302742E0,-7.907246113E0,-8.192451477E0,1.500787964E1
1.727419108E1,-9.822091103E0,-5.184113503E0,-4.490759373E0,1.197979241E1
1.729097966E1,-1.009103394E1,-3.309469223E0,-2.865390778E0,1.099963712E1
1.730780702E1,-1.197756481E1,-3.498324156E0,-8.466057777E-1,1.250668110E1
1.732461426E1,-1.579186821E1,-3.483613968E0,1.275444508E0,1.622175781E1
1.734142132E1,-1.651376724E1,-4.004791737E0,1.274115324E0,1.704013601E1
1.735823263E1,-1.425291634E1,-3.805535793E0,-1.213171482E0,1.480201040E1
1.742965912E1,-1.013361168E1,-9.247905612E-1,-2.673249722E0,1.052100695E1
1.744647268E1,-9.630466461E0,-8.874665499E-1,-3.034390211E0,1.013612377E1
1.746327362E1,-9.028021812E0,-7.793278694E-1,-4.114577770E0,9.951998794E0
1.748637760E1,-8.551367760E0,-9.655423760E-1,-4.979705811E0,9.942616990E0
1.750319196E1,-8.328243256E0,-1.072477579E0,-5.864786148E0,1.024234155E1
1.752000298E1,-7.959454060E0,-1.001878381E0,-6.424042702E0,1.027740210E1
1.753680653E1,-7.590339184E0,-8.518262506E-1,-6.567975521E0,1.007358721E1
1.755361911E1,-7.135156155E0,-7.187676430E-1,-6.136696815E0,9.438544807E0
1.757042643E1,-6.236190319E0,-4.689070284E-1,-4.932054043E0,7.964615532E0
1.758722854E1,-4.644404411E0,5.030000210E-2,-4.355237961E0,6.367190913E0
1.760403817E1,5.161029339E0,1.593024492E0,1.558120728E0,5.621538141E0
1.762085517E1,7.764611816E1,-5.779817104E0,2.309523010E1,8.121401114E1
1.763765334E1,9.524777985E1,-4.612246990E0,2.242389679E1,9.796041821E1
1.765446053E1,5.476730347E1,-3.600516796E0,8.751314163E0,5.557883365E1
1.767126941E1,2.192756844E1,-2.592071056E0,-2.194521427E0,2.218902914E1
1.768807842E1,5.899199963E0,-1.323752761E0,-6.972923279E0,9.229005397E0
1.770489368E1,9.985351562E-2,1.172451854E0,-1.756741142E1,1.760677592E1
1.772169005E1,-2.858834267E-1,3.244133949E0,-1.124660110E1,1.170863659E1
1.773849922E1,-1.484993458E0,2.704173088E0,-2.993676662E0,4.298820492E0
1.775530526E1,-4.753096581E0,3.210287333E0,1.112835407E0,5.842625652E0
1.777211436E1,-7.787938118E0,4.340093613E0,3.100067616E0,9.439216700E0
1.778891830E1,-9.318325996E0,3.451524734E0,5.998463631E-1,9.955101106E0
1.780571659E1,-9.543173790E0,1.846541405E0,-2.743534565E0,1.009994372E1
1.783295576E1,-9.824199677E0,1.243664265E0,-4.655315399E0,1.094228320E1
1.784984435E1,-9.965943336E0,1.843013763E0,-3.115484715E0,1.060296993E1
1.786665843E1,-1.034840870E1,2.316266298E0,-2.146030426E0,1.081943154E1
1.788346359E1,-1.108295250E1,2.517732859E0,-2.294460773E0,1.159462656E1
1.790027073E1,-1.201483536E1,2.796034575E0,-1.580528259E0,1.243672576E1
1.791707921E1,-1.249892235E1,2.198879004E0,-2.043238640E0,1.285429706E1
1.793388432E1,-1.279124069E1,1.791687250E0,-3.186940432E0,1.330347966E1
1.795070076E1,-1.247651100E1,1.102407694E0,-4.975250244E0,1.347708219E1
1.796749889E1,-1.122393322E1,4.241244197E-1,-6.066938400E0,1.276574714E1
1.798430689E1,-1.022053051E1,6.277784705E-2,-6.155115604E0,1.193099464E1
1.800111629E1,-9.202311516E0,-1.583872139E-1,-5.866550922E0,1.091439616E1
1.801792586E1,-7.700706482E0,-2.634747624E-1,-5.603164673E0,9.527106256E0
1.803472868E1,-6.259508610E0,-6.106753945E-1,-7.051018715E0,9.448345749E0
1.805153710E1,-5.300024033E0,-7.196077108E-1,-8.400793076E0,9.958986610E0
1.806834443E1,-4.581832886E0,-5.763512254E-1,-8.981727600E0,1.009934671E1
1.808515417E1,-3.592782021E0,-9.001325369E-1,-9.706552505E0,1.038920030E1
1.810196196E1,-8.527059555E-1,-6.197376251E-1,-1.126157761E1,1.131080512E1
1.811875398E1,2.679185104E1,5.840574265E0,-1.291871548E1,3.031185906E1
1.813558295E1,1.118529968E2,-5.386860371E0,3.538818741E1,1.174411979E2
1.815236677E1,9.752113342E1,-1.177274036E1,2.978273392E1,1.026449225E2
1.816919083E1,4.581582260E1,-4.380105495E0,8.056248665E0,4.672449109E1
1.818600712E1,1.201000786E1,-2.892309666E0,-3.456476450E0,1.282782029E1
1.820280671E1,-2.200962543E0,-3.010035515E0,-6.735618114E0,7.698902604E0
1.821961088E1,-7.162281990E0,-3.317481279E0,-2.478829956E1,2.601468355E1
1.823641909E1,-7.403065205E0,-3.056943417E0,-7.694248199E0,1.110638253E1
1.825322868E1,-1.603866196E1,-2.826437950E0,3.682685375E0,1.669699375E1
1.827004045E1,-1.600201797E1,-1.757163286E0,1.505397797E0,1.616843915E1
1.828683722E1,-1.075056839E1,-7.052147985E-1,-4.588141918E0,1.170995708E1
1.830365266E1,-1.090347862E1,-5.746563673E-1,-7.245561600E0,1.310397798E1
1.832045573E1,-1.238605690E1,-1.767895937E0,-9.028186798E0,1.542880483E1
1.833726402E1,-1.392807198E1,-1.616016150E0,-7.752065659E0,1.602177328E1
1.835407103E1,-1.351676559E1,-7.319326997E-1,-5.594842911E0,1.464721628E1
1.837087884E1,-1.418832970E1,7.358167768E-1,-4.318467140E0,1.484921831E1
1.838768887E1,-1.451555634E1,2.246115923E0,-1.930628777E0,1.481464613E1
1.840449489E1,-1.283263588E1,2.614214659E0,-1.194069862E0,1.315053097E1
1.842130135E1,-1.091451073E1,2.001863003E0,-1.219125271E0,1.116334476E1
1.843810873E1,-9.893682480E0,1.685241938E0,-1.189481497E0,1.010642665E1
1.845491725E1,-9.395023346E0,1.603868842E0,-1.845733643E0,9.708016873E0
1.847172556E1,-9.199822426E0,1.369587541E0,-3.281529903E0,9.863110118E0
1.848853090E1,-9.222212791E0,8.653721809E-1,-4.193866730E0,1.016791994E1
1.850533965E1,-9.025382996E0,3.261533678E-1,-4.481455803E0,1.008203156E1
1.852214792E1,-8.560385704E0,3.505945206E-4,-4.410939693E0,9.629984034E0
1.853895502E1,-8.225165367E0,-3.184960485E-1,-5.004616261E0,9.633325955E0
1.855576465E1,-7.875315189E0,-1.721113473E-1,-4.039069176E0,8.852360784E0
1.857255730E1,-6.260509491E0,-3.461874723E-1,-5.488824844E0,8.333128046E0
1.858937609E1,-4.929103851E0,-5.023314953E-1,-5.454333782E0,7.368728433E0
1.860618512E1,-9.155125618E-1,-1.001466393E0,-2.672169685E0,2.996929932E0
1.862299382E1,4.789141083E1,2.496285915E0,2.026037788E1,5.206055692E1
1.863980300E1,1.103395157E2,-1.522047043E1,3.560528183E1,1.169367673E2
1.865660758E1,6.857298279E1,-8.807812691E0,1.307326031E1,7.036150700E1
1.867340461E1,2.773641205E1,-1.381839514E0,-8.219089508E-1,2.778297263E1
1.869021806E1,6.625955105E0,2.145995051E-1,-1.547632694E1,1.683644944E1
1.870703167E1,-1.261551857E0,4.600483775E-1,-2.528864861E1,2.532427503E1
1.872383512E1,-6.831348896E0,1.105208874E0,1.061777115E0,7.001155979E0
1.874064474E1,-7.866849422E0,4.801054001E0,-4.859356880E-1,9.228952966E0
1.875744976E1,-5.291135311E0,5.151919365E0,-8.172949791E0,1.101523919E1
1.877426034E1,-5.722172260E0,4.580497742E0,-9.898784637E0,1.231706752E1
1.879106462E1,-5.314566612E0,4.372523308E0,-9.182685852E0,1.147542147E1
1.880787764E1,-5.523871422E0,4.477941513E0,-8.049488068E0,1.074054812E1
1.882468578E1,-6.156220913E0,5.073268414E0,-6.783256054E0,1.047137388E1
1.884149182E1,-7.485736370E0,5.187324524E0,-4.919291496E0,1.035103925E1
1.885829309E1,-9.249344826E0,4.732225895E0,-3.288012505E0,1.089749365E1
1.887510243E1,-8.400130272E0,4.899815559E0,-4.685338974E0,1.079457190E1
1.889191253E1,-6.845983505E0,5.337107182E0,-7.186045647E0,1.126904855E1
1.890871761E1,-6.369241714E0,5.918991089E0,-8.116143227E0,1.189426233E1
1.892552714E1,-5.989922523E0,6.044754028E0,-8.166460037E0,1.179446025E1
1.894233193E1,-5.953707695E0,5.939730644E0,-7.542603493E0,1.129680941E1
1.895914083E1,-6.036922455E0,5.899655819E0,-6.898156643E0,1.090114382E1
1.897595604E1,-6.715569019E0,6.081817627E0,-6.684657574E0,1.125930814E1
1.899275529E1,-8.109319687E0,6.578009605E0,-6.207705975E0,1.214771129E1
1.900956215E1,-8.672023773E0,5.980247498E0,-4.835027218E0,1.159072235E1
1.902637540E1,-9.877173424E0,5.788098335E0,-2.584538698E0,1.173628891E1
1.904316601E1,-1.112789917E1,5.852005959E0,-1.580277920E0,1.267175568E1
1.905999307E1,-9.748869896E0,3.911696672E0,-1.530565739E0,1.061529399E1
1.907679312E1,-6.444806576E0,9.308648109E-1,2.339269161E0,6.919119980E0
1.909360119E1,1.932940483E-1,-3.903408527E0,1.291256523E1,1.349104524E1
1.911040918E1,1.269859695E1,-3.773597956E0,1.870024109E1,2.291709892E1
1.912721166E1,3.385471725E1,1.079702473E1,2.197921371E1,4.178281296E1
1.914402942E1,8.024811554E1,2.055389881E0,1.547143364E1,8.175175799E1
1.916081833E1,9.646237946E1,-1.989814186E1,7.777797699E0,9.879990302E1
1.917764035E1,5.759912872E1,-4.093213081E0,-3.912491989E1,6.975079483E1
1.919444578E1,2.440637970E1,-5.111859798E0,-1.156894684E1,2.748896163E1
1.921125411E1,-5.864419937E-1,-1.032939196E0,6.853930950E0,6.956094239E0
1.922806010E1,-6.901542664E0,1.277142763E-2,3.651350975E0,7.807933029E0
1.924486530E1,-7.888927460E0,-1.137434721E0,2.021899223E-1,7.973068103E0
1.926167741E1,-8.458155632E0,-1.704786539E0,-4.043479919E0,9.528715742E0
1.927847935E1,-9.214307785E0,-1.664463282E0,-6.732871056E0,1.153279925E1
1.929529418E1,-9.764668465E0,-1.670877695E0,-5.879562378E0,1.151997553E1
1.931209823E1,-1.017616272E1,-1.890815258E0,-3.020576715E0,1.078208485E1
1.941294542E1,-1.314528656E1,-1.564886332E0,-2.369400978E0,1.344847534E1
1.942975326E1,-1.188982582E1,-9.116034508E-1,-3.530093670E0,1.243625909E1
1.944655353E1,-1.036301136E1,-3.493289948E-1,-5.965720654E0,1.196260248E1
1.946336568E1,-9.051440239E0,1.415445209E-1,-7.204615116E0,1.156957580E1
1.948017695E1,-8.206093788E0,4.744087458E-1,-7.577387333E0,1.117952762E1
1.950328124E1,-7.349395275E0,5.834237337E-1,-7.814533710E0,1.074341339E1
1.952008936E1,-6.982766628E0,6.439692378E-1,-8.191180229E0,1.078281780E1
1.953690104E1,-6.284046173E0,5.735415816E-1,-8.767883301E0,1.080249804E1
1.955370475E1,-5.314951420E0,1.275813580E-1,-9.078922272E0,1.052101778E1
1.957051204E1,-4.768580437E0,-3.824719191E-1,-9.237813950E0,1.040302123E1
1.958731996E1,-4.472727776E0,-1.366985679E0,-1.019066715E1,1.121265538E1
1.960413032E1,-4.269484997E0,-1.862386465E0,-1.047225571E1,1.146146261E1
1.962093570E1,-2.629693747E0,-1.867182136E0,-1.166305161E1,1.210076159E1
1.963774201E1,4.756667709E1,-4.369268417E0,6.531887531E0,4.821145954E1
1.965455168E1,1.232087555E2,-8.005906105E0,3.904605484E1,1.294955071E2
1.967135805E1,8.115999603E1,-8.290542603E0,1.723739624E1,8.338348687E1
1.968816031E1,3.494052887E1,-6.429281235E0,1.474051476E-1,3.552742523E1
1.970497179E1,8.874925613E0,-4.819931030E0,-6.057777882E0,1.177678703E1
1.972178073E1,-1.987101555E0,-6.526883125E0,-2.443877792E1,2.537326629E1
1.973858916E1,-4.962143898E0,-3.100998640E0,-6.329821110E0,8.620075401E0
1.975540019E1,-8.638089180E0,-2.162731886E0,-5.222737789E-1,8.920020392E0
1.977220174E1,-1.096972752E1,-8.762874603E-1,2.051242828E0,1.119421273E1
1.978902385E1,-1.039637470E1,4.708108902E-1,-5.790646076E-1,1.042312744E1
1.980581567E1,-1.022199631E1,1.974382997E0,-1.391947985E0,1.050356682E1
1.982260516E1,-1.053755760E1,3.276275635E0,8.339920044E-1,1.106660042E1
1.983943325E1,-1.095804787E1,3.892515182E0,-2.147068262E0,1.182541287E1
1.985623180E1,-1.210149384E1,5.035724163E0,-1.433045149E0,1.318553333E1
1.987304867E1,-1.290411949E1,6.008726120E0,1.365169287E0,1.429981736E1
1.988985623E1,-1.182409286E1,4.825726032E0,1.080990314E0,1.281660423E1
1.990666320E1,-1.223863316E1,5.417984962E0,-4.395356178E-1,1.339148588E1
1.992347308E1,-1.211191368E1,6.187309265E0,-2.739017963E0,1.387384115E1
1.994027953E1,-1.089849281E1,3.985087872E0,-5.289317608E0,1.275284093E1
1.995708420E1,-9.963515282E0,2.380917788E0,-5.904367924E0,1.182378818E1
1.997389660E1,-9.203660011E0,1.475569844E0,-5.432933807E0,1.078894961E1
1.999070169E1,-8.692916870E0,1.080930710E0,-5.159399986E0,1.016634758E1
2.000750487E1,-8.191670418E0,1.153631687E0,-6.310112000E0,1.040441463E1
2.002431530E1,-7.902239799E0,1.122651219E0,-7.700867653E0,1.109094686E1
2.004111191E1,-8.130849838E0,7.077358365E-1,-8.683709145E0,1.191714788E1
2.005793075E1,-8.547957420E0,6.745538116E-1,-8.801531792E0,1.228778095E1
2.007473615E1,-7.569476604E0,6.644948721E-1,-9.153180122E0,1.189618577E1
2.009154404E1,-6.522646904E0,5.704541206E-1,-9.211095810E0,1.130108962E1
2.010835296E1,-6.051543713E0,5.334870219E-1,-8.905315399E0,1.078009425E1
2.012515878E1,-3.940647364E0,3.697978556E-1,-4.200687408E0,5.771587893E0
2.014196731E1,2.261607361E1,7.307384491E0,2.392193413E1,3.372155966E1
2.015877394E1,1.052715454E2,5.141920567E0,3.687534714E1,1.116616713E2
2.017558382E1,1.050518112E2,-1.092251015E1,1.437852669E1,1.065923370E2
2.019237194E1,5.088355637E1,-2.336668253E0,4.315378189E0,5.111965195E1
2.020919544E1,1.478215408E1,-7.516761780E0,-7.339373016E1,7.524395932E1
2.022600372E1,-1.181117821E1,-2.429430246E0,-1.126544714E0,1.211095227E1
2.024281818E1,-1.624570274E1,6.801766396E0,3.796363354E0,1.801663838E1
2.025962000E1,-1.146709061E1,2.471875668E0,-1.252858543E1,1.716303555E1
2.027641574E1,-1.058857441E1,-1.150874615E0,-1.268750668E1,1.656548357E1
2.029323418E1,-1.001599598E1,-1.382933617E0,-1.054513645E1,1.460933207E1
2.031002930E1,-9.764422417E0,-6.573283672E-1,-8.441892624E0,1.292445654E1
2.032684392E1,-1.014474583E1,-1.191149116E0,-6.294334412E0,1.199805608E1
2.034364803E1,-1.141720009E1,-1.474572182E0,-1.689457417E0,1.163533787E1
2.036046540E1,-1.251672554E1,-1.434317470E0,2.183869362E0,1.278651517E1
2.037727044E1,-1.302714825E1,-1.132061958E0,2.557928562E0,1.332408174E1
2.039408064E1,-1.279900169E1,-8.385258913E-2,-3.150374889E-1,1.280315290E1
2.041089443E1,-1.137333679E1,8.440178633E-1,-2.631772757E0,1.170433184E1
2.042770783E1,-1.000129128E1,1.339335442E0,-3.789894104E0,1.077881923E1
2.044450201E1,-9.275204659E0,1.801465511E0,-4.623320103E0,1.051902031E1
2.046130722E1,-8.824975967E0,2.115093470E0,-5.078665733E0,1.039935896E1
2.047811776E1,-8.572059631E0,2.415158987E0,-5.380379677E0,1.040488754E1
2.049492349E1,-8.429469109E0,2.634632111E0,-5.446115494E0,1.037580887E1
2.051173180E1,-8.142701149E0,2.923816681E0,-5.114022255E0,1.005014973E1
2.052853834E1,-7.789360046E0,3.155454397E0,-4.445285320E0,9.507448867E0
2.054534567E1,-6.297087669E0,1.929871202E0,-6.014914989E0,8.919468499E0
2.056214120E1,-5.320141315E0,8.322031498E-1,-6.214918137E0,8.223239820E0
2.057896210E1,-3.111372232E0,-3.067184687E-1,-1.086337566E0,3.309810069E0
2.059576774E1,1.459593582E1,4.632660389E0,1.553133011E1,2.181112330E1
2.061257816E1,7.182560730E1,4.424590588E0,3.163200188E1,7.860711424E1
2.062938482E1,8.849499512E1,-1.421451283E1,1.435186768E1,9.077110025E1
2.064619020E1,5.568404770E1,-6.479186535E0,6.242048740E0,5.640617164E1
2.066299761E1,2.588668442E1,-1.700945377E0,-1.180408001E0,2.596934748E1
2.067980699E1,7.113632202E0,-4.715285778E0,-4.166081619E1,4.252600721E1
2.069660340E1,-6.506171227E-1,-4.811827183E0,-8.328848839E0,9.640887224E0
2.071342191E1,-1.341260338E1,-2.571525097E0,5.186402798E0,1.460854013E1
2.073022159E1,-1.099103737E1,4.164561629E-2,-1.006666660E0,1.103711985E1
2.074703537E1,-8.168712616E0,-2.548834682E-1,-6.919812679E0,1.070871789E1
2.076383512E1,-8.592234612E0,-1.495542049E0,-1.002164841E1,1.328520148E1
2.078065174E1,-8.853925705E0,-1.211256146E0,-8.340027809E0,1.222355127E1
2.079745744E1,-9.090641022E0,-8.973935246E-1,-6.415418148E0,1.116255613E1
2.081425411E1,-1.030162334E1,-8.343461156E-1,-4.253629684E0,1.117644588E1
2.083106240E1,-1.158280659E1,-9.158039093E-1,-3.007490158E0,1.200187911E1
2.084789194E1,-1.170396137E1,-9.013516903E-1,-3.567775726E0,1.226882922E1
2.086468840E1,-1.195246696E1,-5.902827382E-1,-4.424739838E0,1.275884881E1
2.088148353E1,-1.183171082E1,-4.572183490E-1,-4.277248859E0,1.258941171E1
2.089830415E1,-1.159498787E1,-4.506425858E-1,-2.882351160E0,1.195636946E1
2.091511091E1,-1.099536705E1,-6.232859492E-1,-1.836847305E0,1.116515069E1
2.093192053E1,-1.028266335E1,-7.196497917E-1,-1.536052704E0,1.042163707E1
2.094872478E1,-9.700691223E0,-6.984268427E-1,-2.319138527E0,9.998480573E0
2.096553794E1,-9.282085419E0,-6.627755761E-1,-3.458850384E0,9.927740285E0
2.098233974E1,-8.988571167E0,-3.893097639E-1,-4.274634838E0,9.960847189E0
2.107686860E1,1.013201332E1,3.188265324E0,6.305510998E0,1.235241671E1
2.109369241E1,8.184571838E1,2.270706654E0,2.655861664E1,8.607692980E1
2.111049467E1,9.489159393E1,-2.976887465E0,1.876727486E1,9.677544660E1
2.112729827E1,5.285385895E1,1.505904198E0,8.700424194E0,5.358633720E1
2.114411697E1,2.357025528E1,1.174586296E0,-1.140233994E0,2.362703368E1
2.116091726E1,5.554444790E0,1.408754468E0,-6.483532906E0,8.652898070E0
2.117772879E1,1.583896160E0,7.813457847E-1,-5.491852188E1,5.494691323E1
2.119453167E1,-5.250387669E0,-2.026535988E0,1.190445709E1,1.316774534E1
2.121134530E1,-1.728449440E1,5.990513802E0,5.664184570E0,1.915001277E1
2.122814785E1,-9.276246071E0,8.484781265E0,-3.407282829E0,1.302496950E1
2.124495882E1,-8.772789001E0,7.159199715E0,-7.982219219E0,1.385394496E1
2.126176418E1,-1.017516327E1,5.656742096E0,-6.889667511E0,1.352775654E1
2.127857110E1,-1.067391777E1,4.862831593E0,-6.234143257E0,1.328322980E1
2.129537929E1,-9.277369499E0,3.785471439E0,-6.649450779E0,1.202558001E1
2.131218626E1,-8.160918236E0,2.025950909E0,-8.367014885E0,1.186220897E1
2.132899874E1,-7.840412140E0,1.486197591E0,-8.463967323E0,1.163269481E1
2.134580395E1,-8.000169754E0,9.461925030E-1,-8.277496338E0,1.155053860E1
2.136260723E1,-7.901479721E0,7.161133289E-1,-7.988032341E0,1.125854612E1
2.137941626E1,-7.300151348E0,8.285224438E-1,-7.860935211E0,1.075978446E1
2.139622388E1,-6.705030918E0,9.403092265E-1,-7.878155708E0,1.038782742E1
2.140883092E1,-6.393728256E0,9.513911009E-1,-8.135829926E0,1.039118062E1
2.142563728E1,-6.143788815E0,8.704795241E-1,-8.475265503E0,1.050399928E1
2.144243353E1,-5.926421642E0,7.706612349E-1,-8.657808304E0,1.052017285E1
2.145925142E1,-5.724319935E0,8.794755936E-1,-9.262755394E0,1.092428275E1
2.147606134E1,-5.793990135E0,7.104977369E-1,-9.527047157E0,1.117317127E1
2.149286464E1,-6.095039845E0,1.101242781E0,-8.621410370E0,1.061559999E1
2.150968057E1,-6.689278603E0,2.085140944E0,-7.127347946E0,9.994666064E0
2.152648367E1,-6.541180134E0,2.061973572E0,-6.006518364E0,9.116854469E0
2.154327700E1,-3.499186516E0,3.159040213E-1,-3.025280476E0,4.636423576E0
2.156009672E1,8.968954086E0,2.955682516E0,9.070531845E0,1.309399651E1
2.157690780E1,6.168078232E1,2.306659126E1,4.038934708E1,7.725209316E1
2.159371295E1,1.050928345E2,-2.007992744E0,2.638596916E1,1.083732221E2
2.161052108E1,6.014374161E1,-3.881896257E0,1.417688370E0,6.028555891E1
2.162732513E1,2.821790314E1,-3.988233805E0,-5.529572678E1,6.220750329E1
2.164413553E1,7.626394272E0,-9.103899956E0,-1.798699188E1,2.155399640E1
2.166094842E1,-1.199056911E1,-2.806375027E-1,5.877979279E0,1.335676404E1
2.167774948E1,-1.496775436E1,3.280814648E0,1.291337013E-1,1.532364483E1
2.169455600E1,-1.032340240E1,-6.792085171E-1,-1.680187607E1,1.973162438E1
2.171136586E1,-8.364780426E0,-9.720609188E-1,-1.656532669E1,1.858290888E1
2.172817580E1,-8.245715141E0,-3.414607048E-2,-1.010241508E1,1.304039013E1
2.174496707E1,-8.174152374E0,8.245854378E-1,-8.140592575E0,1.156572331E1
2.176178929E1,-8.579771996E0,1.860151172E0,-7.202337265E0,1.135545296E1
2.177859183E1,-9.169672012E0,2.460380554E0,-5.964251995E0,1.121198730E1
2.179540025E1,-9.610046387E0,2.461554289E0,-6.068595886E0,1.162927758E1
2.181221054E1,-9.174366951E0,1.614353180E0,-6.679195404E0,1.146240797E1
2.190044950E1,-7.232181549E0,1.692023993E0,-9.023670197E0,1.168734439E1
2.191725572E1,-7.389940262E0,1.728376508E0,-9.120583534E0,1.186522425E1
2.193406293E1,-7.164687157E0,1.596179962E0,-8.822535515E0,1.147683168E1
2.195087083E1,-7.295347214E0,1.644384861E0,-8.557647705E0,1.136483290E1
2.196768108E1,-7.357378483E0,1.627219915E0,-7.275618076E0,1.047442033E1
2.198447703E1,-6.297595978E0,1.068610191E0,-5.043506622E0,8.138710088E0
2.200128998E1,-1.701988697E0,1.225785971E0,5.872328281E0,6.235668065E0
2.201809096E1,1.502549076E1,3.343685627E0,2.366751289E1,2.823290231E1
2.203490863E1,9.143740082E1,1.647314262E1,3.354115677E1,9.877839791E1
2.205172478E1,1.144021378E2,-1.506200600E1,1.642712021E1,1.165528353E2
2.206852140E1,5.429208755E1,-4.642411232E0,5.593317032E0,5.477652735E1
2.208531291E1,2.007171249E1,-1.343321991E1,-3.996199799E1,4.669353620E1
2.210213881E1,-7.882797241E0,1.531497121E0,7.809859276E0,1.120169084E1
2.211895258E1,-1.701393890E1,9.108655930E0,8.467745781E-1,1.931731754E1
2.213575229E1,-1.218413544E1,5.468025208E0,-9.473982811E0,1.637402841E1
2.215256272E1,-9.797046661E0,4.209321976E0,-1.807912445E1,2.098940818E1
2.216936368E1,-1.074465466E1,5.323169708E0,-1.755973816E1,2.126330510E1
2.218618239E1,-8.821861267E0,5.533740044E0,-1.301821518E1,1.667097602E1
2.220299222E1,-6.989206314E0,6.621782303E0,-1.006383801E1,1.392759280E1
2.221981106E1,-5.847062111E0,6.991498470E0,-9.197982788E0,1.294882518E1
2.223659692E1,-4.810837746E0,6.668285370E0,-8.781841278E0,1.203041669E1
2.225340665E1,-4.748123646E0,6.540868759E0,-8.758561134E0,1.191805502E1
2.227021229E1,-5.299374580E0,6.211410999E0,-9.449627876E0,1.248841321E1
2.228702110E1,-6.594283104E0,7.337648392E0,-9.934547424E0,1.400074591E1
2.230382985E1,-5.977975845E0,6.503092766E0,-8.945952415E0,1.257205136E1
2.232063513E1,-6.069540024E0,6.395292282E0,-7.315917969E0,1.145695139E1
2.233743900E1,-5.839591026E0,6.359729290E0,-6.429759502E0,1.076516545E1
2.235425317E1,-5.599423885E0,5.582684040E0,-7.005789757E0,1.056413740E1
2.237105847E1,-5.372797012E0,4.774168491E0,-8.384629250E0,1.104362441E1
2.238786511E1,-4.927898407E0,3.804742336E0,-9.003796577E0,1.094662504E1
2.240887680E1,-4.877252579E0,3.402237415E0,-6.938563824E0,9.138188009E0
2.242568487E1,-4.982530117E0,3.442143679E0,-5.736868858E0,8.341799792E0
2.244249116E1,-4.257126331E0,2.474899769E0,-4.042369366E0,6.370949973E0
2.245929726E1,-3.588466644E-1,3.830647469E-1,8.470455170E0,8.486702558E0
2.247610638E1,1.822363091E1,2.554521084E0,2.362655449E1,2.994729334E1
2.249291039E1,6.015525055E1,1.720345688E1,4.447154999E1,7.676152588E1
2.250972483E1,9.632951355E1,-1.091192245E1,2.643028259E1,1.004838548E2
2.252652791E1,6.683309174E1,-1.331463623E1,2.702466011E0,6.820003674E1
2.254332281E1,3.936766815E1,-8.143247604E0,-5.288882828E1,6.643307861E1
2.256013362E1,1.303409576E1,-1.516539383E1,-1.379609489E1,2.429421859E1
2.257695114E1,-6.249557018E0,2.602626801E0,1.786313057E-1,6.772188592E0
2.259374706E1,-5.348365307E0,2.134540796E0,-2.077702141E1,2.156028512E1
2.261056161E1,-6.572467327E0,1.019541502E0,-1.262091446E1,1.426619338E1
2.262736346E1,-7.644119740E0,2.311225891E0,-8.540616989E0,1.169258185E1
2.264417878E1,-8.288859367E0,2.398406744E0,-7.403549194E0,1.136970031E1
2.266099976E1,-8.982121468E0,2.482794762E0,-4.259950638E0,1.024646062E1
2.267779662E1,-1.218371677E1,3.150421143E0,6.000752449E-1,1.259873796E1
2.269458743E1,-1.365864658E1,2.512959242E0,6.608519554E-1,1.390360802E1
2.271140576E1,-1.350664425E1,1.003316164E0,-1.995775223E0,1.369011325E1
2.272822359E1,-1.190463066E1,2.929719687E-1,-1.100815773E0,1.195900745E1
2.274502565E1,-1.091250420E1,-5.226725340E-2,8.578667641E-1,1.094629687E1
2.276183594E1,-1.091983128E1,2.258246541E-1,3.880970478E0,1.159118819E1
2.277863899E1,-1.156042290E1,5.125642419E-1,-2.437155247E0,1.182564270E1
2.279544950E1,-1.063606930E1,6.131290197E-1,-6.555126667E0,1.250886018E1
2.281225524E1,-9.682559013E0,5.549870729E-1,-5.754442215E0,1.127712574E1
2.282904975E1,-9.312923431E0,4.585817456E-1,-4.674895763E0,1.043050768E1
2.290889573E1,-7.935373306E0,2.812474728E0,-5.569050789E0,1.009428008E1
2.292571756E1,-5.806407452E0,1.749911070E0,-2.404250145E0,6.523570725E0
2.294251399E1,-6.281342506E-1,3.119569421E-1,9.788410187E0,9.813503134E0
2.295930323E1,1.792831612E1,7.277593017E-1,2.371462822E1,2.973781673E1
2.297612556E1,8.363232422E1,2.701028252E1,3.579484940E1,9.489569147E1
2.299292234E1,1.133149567E2,-6.296639919E0,2.701794052E1,1.166614597E2
2.300974680E1,6.601393890E1,-1.538294601E1,-4.246006775E1,7.998332646E1
2.302654473E1,2.522534370E1,-1.656612015E1,-5.427848816E0,3.066293927E1
2.304334385E1,-4.429636002E0,-2.883145809E0,-7.686671257E0,9.328403930E0
2.306016837E1,-2.163766289E1,3.199094534E0,-1.264913940E1,2.526704155E1
2.307695947E1,-1.388911915E1,1.319018364E0,-1.678422546E1,2.182561945E1
2.309378242E1,-9.686030388E0,-1.702780485E0,-1.163975906E1,1.523819665E1
2.311058259E1,-1.030275917E1,-1.612290859E0,-9.522215843E0,1.412157650E1
2.312739698E1,-1.189678001E1,-1.469880819E0,-8.305540085E0,1.458341251E1
2.314420031E1,-1.374782181E1,2.374426126E0,-4.090422630E0,1.453864028E1
2.316100852E1,-1.584941006E1,2.973913431E0,2.264878750E0,1.628427573E1
2.317781349E1,-1.418648338E1,1.775960922E0,3.164224625E0,1.464317812E1
2.319462712E1,-1.206623650E1,1.185495853E0,-2.925529480E-1,1.212786258E1
2.321143308E1,-1.056243038E1,2.850593805E0,-3.255481482E0,1.141441984E1
2.322823686E1,-1.104799652E1,5.320115566E0,-5.954460144E0,1.363148753E1
2.324504662E1,-1.001791286E1,5.473854542E0,-8.423244476E0,1.418706133E1
2.326185532E1,-8.615367889E0,4.671372890E0,-8.759251595E0,1.314422980E1
2.327866010E1,-7.357339382E0,3.380320549E0,-7.995540142E0,1.137917712E1
2.329546827E1,-6.716795921E0,2.979385376E0,-4.591021538E0,8.664269353E0
2.331227688E1,-5.020300388E0,2.229759693E0,-5.347910881E0,7.666511271E0
2.332908352E1,-3.935019970E0,1.486857295E0,-9.312965393E0,1.021892613E1
2.334588706E1,-3.532793522E0,1.000937581E0,-1.010392857E1,1.075043620E1
2.336269926E1,-3.068130493E0,6.685590744E-1,-9.328210831E0,9.842556236E0
2.337740734E1,-2.821460724E0,6.591247320E-1,-9.813918114E0,1.023269636E1
2.339421328E1,-2.524147034E0,3.902274966E-1,-1.273846626E1,1.299200210E1
2.341102208E1,1.904584885E1,1.073273563E1,-5.848039627E0,2.263041184E1
2.342783063E1,1.114753571E2,6.003201962E0,4.064378357E1,1.188053484E2
2.344462492E1,1.022270584E2,-1.446890640E1,2.443553543E1,1.060981438E2
2.346144277E1,4.706793594E1,-1.494999647E0,5.943506718E0,4.746525982E1
2.347825142E1,1.675257492E1,2.042937756E0,-1.407980919E0,1.693531138E1
2.349505824E1,3.763546944E-1,1.867023468E0,-5.692844391E0,6.002990650E0
2.351186486E1,-6.315259457E0,-1.269312859E0,-4.335701752E1,4.383291714E1
2.352867249E1,-1.822245979E1,-9.621143341E-3,-1.344060326E1,2.264305521E1
2.354548380E1,-1.978845978E1,2.104901314E0,-4.212788105E0,2.034112420E1
2.356228779E1,-1.234917927E1,-1.111252546E0,-8.213938713E0,1.487299230E1
2.357909674E1,-1.009709835E1,-1.882432699E0,-1.049962711E1,1.468799229E1
2.359590484E1,-1.052885342E1,-1.419771314E0,-8.975267410E0,1.390783700E1
2.361271092E1,-1.103641319E1,2.324389219E-1,-6.773692131E0,1.295142267E1
2.362951838E1,-1.074214935E1,1.258676171E0,-5.164130688E0,1.198525278E1
2.364632655E1,-1.075990677E1,1.399027824E0,-3.570936203E0,1.142297938E1
2.366313242E1,-1.073995590E1,1.872311354E0,-2.535443783E0,1.119288514E1
2.367993987E1,-1.089197540E1,1.681149244E0,-2.560996532E0,1.131459651E1
2.369674780E1,-1.099541283E1,1.686110616E0,-2.440964699E0,1.138860750E1
2.371355541E1,-1.077113724E1,1.808346987E0,-2.981335640E0,1.132147863E1
2.373036265E1,-1.051653576E1,2.011134863E0,-3.370402336E0,1.122505233E1
2.374716988E1,-9.838106155E0,1.707751989E0,-3.682210684E0,1.064252907E1
2.376397898E1,-9.074756622E0,1.254950762E0,-4.348324776E0,1.014071188E1
2.378078633E1,-8.431171417E0,1.104218364E0,-4.589267731E0,9.662573568E0
2.379759407E1,-7.843632221E0,6.484379768E-1,-5.706911087E0,9.721721678E0
2.381440138E1,-6.705728054E0,-4.813535139E-2,-7.609981537E0,1.014302345E1
2.383119978E1,-5.581438541E0,7.035753131E-2,-8.403600693E0,1.008850390E1
2.384801511E1,-4.662041187E0,5.963382125E-2,-8.175381660E0,9.411431853E0
2.386482578E1,-1.669309855E0,4.858432710E-2,-3.625216484E0,3.991384520E0
2.388163159E1,1.889768982E1,9.140422344E-1,8.692747116E0,2.082119128E1
2.389842352E1,1.042765961E2,6.384825706E0,3.004239655E1,1.087056580E2
2.391524462E1,1.076531830E2,-1.315645099E0,2.274715805E1,1.100380476E2
2.393204080E1,5.289134216E1,-1.575448036E0,7.443810940E0,5.343581602E1
2.394886393E1,1.491933823E1,-5.443475723E0,-2.666463661E1,3.103580073E1
2.396566690E1,-1.151821613E0,-5.770657063E0,-1.677083206E1,1.777323786E1
2.398247267E1,-1.208299255E1,-3.186774731E0,7.751984596E-1,1.252019069E1
2.399928482E1,-2.301322937E1,4.745236397E0,4.901751518E0,2.400319067E1
2.401608959E1,-1.439048576E1,8.130225182E0,-1.374122810E1,2.149437117E1
2.403289811E1,-1.176317024E1,6.737421036E0,-3.459699631E1,3.715800277E1
2.404970474E1,-9.475195885E0,5.089439392E0,-1.274901199E1,1.667989920E1
2.406651467E1,-7.892768860E0,3.619157076E0,-8.576268196E0,1.220436292E1
2.408332097E1,-7.262145519E0,3.521045923E0,-7.059408665E0,1.072248911E1
2.410013062E1,-7.406712055E0,3.562935352E0,-5.179464817E0,9.714975429E0
2.411693439E1,-7.954688549E0,3.088021994E0,-1.276351213E0,8.627979031E0
2.413374380E1,-8.877553940E0,2.153444290E0,5.248194695E0,1.053526620E1
2.415054114E1,-9.246047974E0,1.550473928E0,7.615978241E0,1.207876223E1
2.416735683E1,-9.169905663E0,1.543230891E0,4.612414837E0,1.037993748E1
2.418416448E1,-8.558043480E0,1.706393957E0,1.970973015E-1,8.728730485E0
2.420097358E1,-8.135782242E0,1.971449614E0,-3.838167906E0,9.209185585E0
2.421778113E1,-7.852230549E0,2.239559889E0,-5.587704659E0,9.894220355E0
2.423459069E1,-7.457109451E0,2.306904793E0,-6.916645527E0,1.042929894E1
2.425139443E1,-6.826288223E0,1.998167992E0,-7.719239712E0,1.049654934E1
2.426820389E1,-6.199902534E0,1.639876485E0,-8.014892578E0,1.026481804E1
2.428500789E1,-5.692070484E0,1.615468264E0,-8.202799797E0,1.011411532E1
2.430181817E1,-5.450048447E0,1.785858750E0,-8.261644363E0,1.005719082E1
2.431862812E1,-4.934998512E0,2.217803717E0,-7.318958282E0,9.101648971E0
2.433543507E1,-3.478521347E0,1.923366427E0,-6.231938839E0,7.391651430E0
2.435224642E1,1.396549225E0,3.683014870E0,-2.503247261E0,4.667032796E0
2.436904530E1,3.075496674E1,1.826260948E1,1.776601791E1,3.993772999E1
2.438584186E1,9.365430450E1,2.260573959E1,2.261162758E1,9.896178008E1
2.440266250E1,1.064649200E2,-1.563495541E1,1.228030777E1,1.083052953E2
2.441947136E1,5.648200226E1,1.913029432E0,7.181748867E0,5.696888429E1
2.443627652E1,2.070148087E1,-9.767149389E-2,-2.229619026E-1,2.070291191E1
2.445308662E1,2.137131214E0,-1.270994282E1,-5.659190369E1,5.804096432E1
2.446989821E1,-2.934297085E0,-4.369848728E0,-5.595996857E0,7.682503375E0
2.448669976E1,-7.475974560E0,-4.889250755E0,4.893631935E-1,8.946197231E0
2.450350525E1,-1.093556595E1,-6.391790390E0,1.407420635E0,1.274450548E1
2.452031655E1,-1.437935543E1,-7.547558308E0,4.102767944E0,1.675005086E1
2.453712295E1,-1.807697296E1,-4.133764744E0,7.293668747E0,1.992642884E1
2.455393169E1,-1.793815041E1,-1.646214843E0,7.500279903E0,1.951259752E1
2.457073655E1,-1.744200134E1,2.765686810E-1,3.890355110E0,1.787273801E1
2.458754665E1,-1.654238892E1,1.340348601E0,1.117529869E-1,1.659697726E1
2.460434519E1,-1.567748260E1,1.847632289E0,-2.347501755E0,1.595957300E1
2.462116070E1,-1.419407082E1,4.032356262E0,-1.662361145E0,1.484907364E1
2.463796641E1,-1.145682716E1,4.428597450E0,-2.195034742E0,1.247756152E1
2.465477668E1,-9.299153328E0,3.001495361E0,-4.404688358E0,1.071841903E1
2.467158406E1,-8.167492867E0,2.060436487E0,-5.957749367E0,1.031736961E1
2.468838738E1,-7.662127972E0,1.788591862E0,-6.500371933E0,1.020598360E1
2.470519809E1,-7.277913094E0,1.581966996E0,-6.634319305E0,9.974208300E0
2.472199229E1,-6.751670837E0,1.298401833E0,-6.925769806E0,9.758954545E0
2.473880011E1,-6.202329159E0,9.213637114E-1,-7.512871265E0,9.785756625E0
2.475562040E1,-5.694563866E0,8.155968785E-1,-7.944245815E0,9.808378942E0
2.477242433E1,-5.128479958E0,7.745699286E-1,-8.194636345E0,9.698109613E0
2.478923563E1,-4.415518761E0,8.504715562E-1,-8.579325676E0,9.686327315E0
2.480604160E1,-3.213314056E0,9.586588144E-1,-9.804686546E0,1.036225324E1
2.482285209E1,1.335937977E0,3.027567387E0,-1.220827866E1,1.264883245E1
2.490900367E1,5.794487000E-1,5.682011604E0,-4.269808960E1,4.307839217E1
2.492579421E1,-3.697257519E0,2.487924099E0,-1.041165066E1,1.132527920E1
2.494260435E1,-1.268997955E1,7.757303715E-1,2.377995491E0,1.293414865E1
2.495941302E1,-1.881048965E1,3.134433270E0,1.239880562E0,1.911011504E1
2.497621538E1,-1.192612743E1,7.213808060E0,-5.041660309E0,1.482193918E1
2.499301417E1,-1.015959454E1,7.479880333E0,-9.463621140E0,1.577105247E1
2.500982992E1,-1.022944832E1,5.943656445E0,-9.924209595E0,1.544210481E1
2.502663972E1,-9.755993843E0,6.987903118E0,-1.048030090E1,1.593257396E1
2.504344770E1,-8.062427521E0,7.691310883E0,-7.614842892E0,1.349610436E1
2.506024262E1,-6.921350002E0,7.359246254E0,-6.549068928E0,1.203968002E1
2.507706092E1,-6.570506096E0,7.348350525E0,-6.227837086E0,1.166000689E1
2.509387080E1,-6.101175785E0,6.981976986E0,-6.726609230E0,1.145511328E1
2.511067897E1,-5.439196587E0,6.204494476E0,-7.312875271E0,1.102536874E1
2.512748478E1,-6.408798218E0,7.503808975E0,-4.919689178E0,1.102647656E1
2.514429055E1,-8.342457771E0,9.872686386E0,-3.064728260E0,1.328379078E1
2.516110102E1,-7.396784306E0,9.081916809E0,-4.056926727E0,1.239565591E1
2.517790598E1,-6.136286259E0,7.923505783E0,-4.915657997E0,1.116242117E1
2.519471540E1,-6.002751827E0,8.157706261E0,-5.195613861E0,1.138312806E1
2.521152124E1,-5.870031357E0,7.864962101E0,-4.594764709E0,1.083636285E1
2.522832369E1,-4.663843632E0,6.099690437E0,-3.913661480E0,8.618260093E0
2.524511744E1,-2.758196831E0,4.502098560E0,1.331202030E0,5.445056478E0
2.526195146E1,6.799738407E0,3.670077801E0,1.134137535E1,1.372343646E1
2.527875171E1,2.897565460E1,1.692041206E1,1.647141647E1,3.737909128E1
2.529556032E1,6.369586182E1,2.511893082E1,1.650686073E1,7.043152667E1
2.531236684E1,1.116836548E2,-2.614388466E1,5.297312737E0,1.148250973E2
2.532918034E1,6.847582245E1,-5.298736095E0,-2.003122330E1,7.154204897E1
2.534599414E1,2.589622498E1,-9.699643135E0,-2.454645538E1,3.697601948E1
2.536279019E1,1.696047306E0,-6.626751900E0,-1.499666786E1,1.648303565E1
2.537959211E1,-8.554848671E0,-3.884940386E0,-4.473262787E0,1.040616536E1
2.539640724E1,-1.739389801E1,-1.595725298E0,-2.719098330E0,1.767731662E1
2.541321209E1,-1.796411324E1,-2.363722563E0,-7.319161892E0,1.954140935E1
2.543002951E1,-1.428596592E1,-3.107697487E0,-9.422887802E0,1.739360286E1
2.544682184E1,-1.595418358E1,-1.847147942E0,-7.087737560E0,1.755516884E1
2.546363862E1,-1.499671841E1,-1.015084028E0,-1.602107525E0,1.511617369E1
2.548044299E1,-1.419137955E1,-2.319103718E0,1.007808685E0,1.441489417E1
2.549724208E1,-1.314899063E1,-2.092932701E0,1.976981163E-1,1.331598312E1
2.551405656E1,-1.259270859E1,-1.892006397E0,-2.067054272E0,1.290072522E1
2.553086440E1,-1.122670555E1,-3.456503749E-1,-3.787022114E0,1.185326656E1
2.554767373E1,-9.871762276E0,3.193920255E-1,-6.528792381E0,1.183971417E1
2.556448062E1,-8.954998016E0,4.981127977E-1,-7.886889458E0,1.194332999E1
2.558128624E1,-7.754857063E0,3.304575086E-1,-8.379326820E0,1.142191438E1
2.559809396E1,-7.037619591E0,2.248961627E-1,-8.387960434E0,1.095155459E1
2.562120471E1,-6.231116772E0,3.527478278E-1,-8.095232010E0,1.022174293E1
2.563801687E1,-6.066152096E0,5.321260095E-1,-8.512544632E0,1.046636400E1
2.565481929E1,-5.775524139E0,5.661188364E-1,-8.760983467E0,1.050866314E1
2.567163006E1,-5.439665318E0,4.226746559E-1,-7.812351227E0,9.528979186E0
2.568843691E1,-3.344488859E0,-8.116008639E-1,-3.896596432E0,5.198823467E0
2.570524265E1,3.839917374E1,7.891841412E0,2.963906288E0,3.931364197E1
2.572205002E1,1.274912643E2,-8.328391075E0,1.949547195E1,1.292418586E2
2.573886212E1,1.013137054E2,-1.782349014E1,3.608549118E0,1.029328195E2
2.575566252E1,3.566255951E1,3.360822678E0,-9.591991425E0,3.708260481E1
2.577247429E1,8.099121094E0,1.012995338E1,-3.390369034E1,3.629975119E1
2.578928015E1,-2.843842506E0,7.345195770E0,5.914635658E-1,7.898681552E0
2.580608839E1,-2.548657990E1,8.422669411E0,8.310434341E0,2.809929596E1
2.582289786E1,-1.884670830E1,1.387576485E1,-3.273177385E0,2.363152458E1
2.583970245E1,-5.653971672E0,1.064676476E1,-1.505819702E1,1.928912370E1
2.585651038E1,-4.025365353E0,3.649893761E0,-1.744835472E1,1.827485631E1
2.587331893E1,-6.056849480E0,-9.689998627E-2,-1.132682800E1,1.284491525E1
2.589012890E1,-8.880594254E0,1.109739423E0,-5.498681545E0,1.050390283E1
2.590693135E1,-1.161186886E1,4.346670628E0,-7.309969902E0,1.439321729E1
2.592372790E1,-1.284192848E1,4.763818741E0,-7.776471615E0,1.575063830E1
2.600147396E1,-1.463334656E1,4.098635912E-1,-1.019499779E1,1.783930491E1
2.601828075E1,-1.410210037E1,-6.295709014E-1,-1.312171364E1,1.927290749E1
2.603508667E1,-1.351804447E1,-1.763662934E0,-1.057715702E1,1.725468875E1
2.605189570E1,-1.141019154E1,-2.498124599E0,-5.037089348E0,1.272027384E1
2.606870228E1,-8.840749741E0,-2.629284382E0,-1.059401989E0,9.284089881E0
2.608550279E1,-9.053893089E0,-1.501995325E0,-2.375487328E0,9.480079645E0
2.610231629E1,-7.702246189E0,2.274090052E-1,-6.110828876E0,9.834558494E0
2.611912603E1,3.418588638E-2,-2.684321404E0,-1.863318443E0,3.267828896E0
2.613592600E1,5.596121311E0,-4.441434860E0,6.508413315E0,9.664489703E0
2.615274263E1,1.139361382E1,-2.852005959E0,1.727618790E1,2.089054911E1
2.616954619E1,5.182074738E1,9.106365204E0,2.101516533E1,5.665644641E1
2.618635694E1,1.000453491E2,7.998653412E0,2.761800766E1,1.040951713E2
2.620315423E1,6.950693512E1,-1.593677902E1,-6.013275146E1,9.327991613E1
2.621996695E1,3.118585777E1,-5.310411930E0,-1.136324692E1,3.361371120E1
2.623677554E1,1.709424400E1,-6.606518030E-1,2.838145256E0,1.734083929E1
2.625358955E1,5.491102695E0,-9.448988438E-1,6.565531731E0,8.611111981E0
2.627038092E1,-5.437676430E0,-1.966316462E0,4.738864899E-1,5.801663019E0
2.628719841E1,-9.149793625E0,-2.277623415E0,-5.997827053E0,1.117498193E1
2.630400997E1,-1.022330284E1,-2.887223244E0,-1.344227886E1,1.713320869E1
2.632081696E1,-1.042073250E1,-4.912814140E0,-1.570583344E1,1.947820866E1
2.633762297E1,-1.012134647E1,-6.426145554E0,-1.241961765E1,1.726221028E1
2.635443088E1,-9.857368469E0,-6.099349022E0,-7.286067009E0,1.369147706E1
2.637123618E1,-1.112739849E1,-6.323984623E0,-2.769441843E0,1.309509782E1
2.638804178E1,-1.128389645E1,-6.582030296E0,3.442945480E-1,1.306782233E1
2.640485619E1,-1.075682259E1,-5.070732117E0,-9.900321960E-1,1.193321918E1
2.642166146E1,-9.883723259E0,-4.003697395E0,-4.254095078E0,1.148106716E1
2.643846744E1,-9.527605057E0,-3.081194639E0,-5.640005112E0,1.149254872E1
2.645527587E1,-8.987685204E0,-1.805647850E0,-5.860105515E0,1.088024293E1
2.647208349E1,-8.314367294E0,-1.345112324E0,-4.949093819E0,9.768907835E0
2.649309252E1,-8.205604553E0,-1.227508187E0,-6.295182705E0,1.041479946E1
2.650989885E1,-8.659212112E0,-1.117195845E0,-7.781537056E0,1.169540080E1
2.652671444E1,-9.677240372E0,-1.094490290E0,-5.192777634E0,1.103683966E1
2.654351619E1,-1.021327972E1,-1.097328901E0,-1.049375534E0,1.032552190E1
2.656032352E1,-1.059096718E1,-8.130350113E-1,2.442669868E-1,1.062493661E1
2.657713037E1,-9.930405617E0,-2.282202244E-1,-3.761119843E0,1.062125523E1
2.659394186E1,-5.591845512E0,-2.031779766E0,-8.917839050E0,1.072029471E1
2.661074582E1,-2.015117645E0,-2.516379356E0,-4.539569378E0,5.567814143E0
2.662755315E1,2.997907162E0,-3.013502121E0,8.741010666E0,9.719769022E0
2.664436093E1,3.139811897E1,-3.714173794E0,6.488512516E0,3.227596252E1
2.666117404E1,6.664143372E1,-1.205158424E1,-3.477585793E0,6.781161385E1
2.667796294E1,7.627279663E1,-1.214793491E1,2.878850460E0,7.728777140E1
2.669477045E1,5.690982056E1,-1.029412079E1,-3.851517200E0,5.796145947E1
2.671159480E1,1.892608261E1,-8.437149048E0,-2.223460770E1,3.039341814E1
2.672839738E1,4.425587654E0,-4.162504077E-1,-8.819431305E0,9.876307965E0
2.674520612E1,-1.804174900E0,1.755631566E-1,-1.137363815E1,1.151718344E1
2.676201702E1,-5.473061085E0,7.333722711E-1,-7.051445007E0,8.956288808E0
2.677881253E1,-6.874415874E0,1.281678438E0,-4.802123547E0,8.482964328E0
2.679562856E1,-7.562623024E0,1.513287425E0,-5.658627510E0,9.565739445E0
2.681242290E1,-9.147497177E0,3.131401300E0,-8.521096230E0,1.288764756E1
2.682924466E1,-1.008228493E1,3.100172520E0,-1.189791775E1,1.590043980E1
2.684604032E1,-1.180167294E1,2.827180862E0,-1.204889679E1,1.710112130E1
2.686285832E1,-1.397575569E1,2.624074697E0,-8.887414932E0,1.676882999E1
2.687966593E1,-1.481603718E1,1.255419374E0,-6.597846031E0,1.626722495E1
2.689647290E1,-1.545433426E1,-3.421334028E-1,-4.664575577E0,1.614657140E1
2.691326463E1,-1.499823380E1,-1.390371799E0,-4.992139816E0,1.586825796E1
2.699311378E1,-3.848303318E0,-1.978608370E0,-3.740758896E0,5.719930649E0
2.700992113E1,-3.216807365E0,-1.618177176E0,-3.318703651E0,4.896952208E0
2.702673631E1,-1.200359344E0,-1.733085990E0,-1.325109959E0,2.490053414E0
2.704353728E1,9.364480019E0,-3.892442942E0,9.937783241E0,1.419873705E1
2.706034432E1,6.592999268E1,3.470107079E0,1.316079044E1,6.732021971E1
2.707715274E1,8.021950531E1,8.154946327E0,9.601005554E0,8.120253376E1
2.709396304E1,7.268916321E1,-4.843935966E0,9.644383430E0,7.348600068E1
2.711075879E1,3.675537491E1,-6.350721359E0,-1.529531479E-1,3.730030350E1
2.712757647E1,-6.761550903E-1,-1.401212025E1,-3.314518929E0,1.441467083E1
2.714438975E1,9.407420158E-1,3.020239115E0,-2.005520248E1,2.030315213E1
2.716119083E1,-1.921067953E0,-1.810349345E0,-2.250056839E1,2.265487684E1
2.717800592E1,-5.078812599E0,-3.102586269E0,-1.092895699E1,1.244437543E1
2.719480571E1,-7.559329510E0,-2.445715189E0,-6.673991680E0,1.037627825E1
2.721160434E1,-8.532311440E0,-2.230629206E0,-4.105395794E0,9.727811664E0
2.722841710E1,-8.232310295E0,-1.372285485E0,-4.022423744E0,9.264663676E0
2.724523170E1,-8.370861053E0,-1.327749729E0,-5.074703217E0,9.878605512E0
2.726203142E1,-8.727915764E0,-1.593623877E0,-4.624970436E0,1.000532369E1
2.727884472E1,-8.823060036E0,-1.580971360E0,-5.382037163E0,1.045524667E1
2.729565134E1,-1.012951088E1,-1.538266182E0,-4.754774570E0,1.129518193E1
2.731245624E1,-1.194681263E1,-3.119683266E0,-4.287515640E0,1.307063679E1
2.732925972E1,-1.134914589E1,-2.374542952E0,-8.096368790E0,1.414187944E1
2.734607710E1,-1.052044392E1,-7.837271690E-1,-1.283094215E1,1.661105189E1
2.736288252E1,-1.015273285E1,-7.641620040E-1,-1.220772552E1,1.589624139E1
2.737968416E1,-1.052422523E1,-2.031798601E0,-5.204068184E0,1.191511007E1
2.739649464E1,-1.176098824E1,-3.830147743E0,-1.874790668E0,1.251022446E1
2.741330207E1,-1.229666519E1,-3.496312141E0,-1.397991180E-1,1.278482371E1
2.743011088E1,-1.010412788E1,1.016398668E0,-1.051119804E0,1.020937409E1
2.744691594E1,-5.111310959E0,3.265011787E0,-3.285461426E0,6.897829983E0
2.746372548E1,-2.693689108E0,3.710847616E0,-3.616528034E0,5.840002231E0
2.748053326E1,3.844976425E-2,3.809009075E0,-6.700463295E-1,3.867685432E0
2.749733925E1,1.234078217E1,-1.794353962E0,1.182630444E1,1.718650887E1
2.751414362E1,8.188821411E1,-1.167356968E0,9.743758202E0,8.247413629E1
2.753096108E1,8.666928864E1,-7.550001144E-1,7.775611877E0,8.702066282E1
2.754776096E1,6.637512207E1,-1.154306889E1,4.252019882E0,6.750539936E1
2.756457026E1,2.718690300E1,-7.583449364E0,-2.181577682E-1,2.822559108E1
2.758137308E1,4.553790569E0,1.914445043E0,-3.194734192E1,3.232699745E1
2.759818751E1,3.053959370E0,4.546591282E0,-1.268808556E1,1.381975670E1
2.761499950E1,-5.368421078E-1,3.470880032E0,-1.250817871E1,1.299191065E1
2.763180042E1,-4.840053082E0,2.414948463E0,-6.866809845E0,8.741348143E0
2.764860639E1,-6.916985035E0,2.212295771E0,-5.197440624E0,8.930415645E0
2.766540174E1,-7.868374825E0,2.284725904E0,-7.026306152E0,1.079352922E1
2.768222526E1,-7.989325523E0,2.639679670E0,-8.750972748E0,1.213988283E1
2.769902121E1,-9.464492798E0,3.815659761E0,-8.016732216E0,1.297705201E1
2.771583471E1,-1.082513428E1,5.154474735E0,-5.520598412E0,1.319958896E1
2.773265030E1,-1.389945984E1,6.703851700E0,-3.071323872E0,1.573434593E1
2.774945120E1,-1.376426125E1,4.542786598E0,-2.995133400E0,1.480076423E1
2.776625564E1,-1.307380295E1,2.047435284E0,-5.050716400E0,1.416425257E1
2.778306579E1,-1.012901592E1,-1.100097418E0,-8.894307137E0,1.352463964E1
2.779988021E1,-7.867153168E0,-2.021183014E0,-1.011810875E1,1.297510711E1
2.781668157E1,-6.255788803E0,-1.739621878E0,-9.750596046E0,1.171474716E1
2.783349098E1,-5.291723251E0,-1.630821943E0,-9.609002113E0,1.109030373E1
2.785029781E1,-4.331280231E0,-1.220556974E0,-9.080314636E0,1.013419270E1
2.786710355E1,-3.853661537E0,-9.045376182E-1,-8.782778740E0,9.633592162E0
2.788391015E1,-3.857939243E0,-8.533478379E-1,-8.454073906E0,9.331841369E0
2.790072092E1,-4.318496227E0,-9.106964469E-1,-8.046225548E0,9.177174034E0
2.791752624E1,-5.552073956E0,-2.333617508E-1,-8.311388016E0,9.997957475E0
2.794062962E1,-1.730323315E0,1.678897738E0,-4.148906231E0,4.798555960E0
2.795744451E1,-5.683588982E-1,2.671621561E0,-8.675436974E-1,2.865872584E0
2.797425418E1,2.250761032E0,3.301979780E0,3.292043686E0,5.177503966E0
2.799106062E1,2.682077026E1,5.372017384E0,1.402493191E1,3.073940473E1
2.800786787E1,6.224425888E1,6.685172081E0,1.241438580E1,6.382128379E1
2.802467277E1,6.760926056E1,-4.320391655E0,5.529434204E0,6.797243956E1
2.804148502E1,5.147561646E1,-6.345866203E0,-2.010279655E0,5.190424194E1
2.805829158E1,2.633501053E1,-4.660947323E0,-4.618365288E0,2.714012725E1
2.807509833E1,1.249862862E1,-5.138147354E0,-4.022378922E0,1.409949672E1
2.809190505E1,8.836041451E0,-5.766211987E0,-2.163246155E0,1.077053681E1
2.810871413E1,7.985428333E0,-4.841489792E0,-3.230742455E0,9.881537627E0
2.812551207E1,4.264360428E0,-2.900234461E0,-5.809623718E0,7.768388349E0
2.814232717E1,-1.024684429E0,-1.071841598E0,-7.419421196E0,7.566150506E0
2.815913479E1,-5.577062607E0,-9.953805059E-2,-7.022365093E0,8.968118345E0
2.817594229E1,-7.931625366E0,-1.085856110E-1,-7.331083298E0,1.080126169E1
2.819275074E1,-8.793678284E0,2.876959443E-1,-6.769215584E0,1.110107321E1
2.820955829E1,-9.855471611E0,3.259868026E-1,-6.266284943E0,1.168344620E1
2.822636510E1,-1.054740143E1,5.153031945E-1,-8.708102226E0,1.368737589E1
2.824317323E1,-1.224807358E1,1.482364774E0,-1.874649811E1,2.244201201E1
2.825996828E1,-1.137600803E1,1.516921282E0,-2.486670685E1,2.738736421E1
2.827678716E1,-8.077442169E0,1.420937896E0,-1.547565937E1,1.751457020E1
2.829359564E1,-5.768825054E0,7.890090942E-1,-8.252469063E0,1.009975859E1
2.831040408E1,-4.315048218E0,1.472949386E-1,-2.875134945E0,5.187266898E0
2.832720939E1,-3.549914122E0,-6.121649146E-1,1.314201832E0,3.834548553E0
2.834401688E1,-3.990026951E0,-8.201555014E-1,9.393339157E-1,4.180349067E0
2.836082603E1,-4.786252975E0,-1.072832465E0,-2.656198025E0,5.578044011E0
2.837763545E1,-6.055556774E0,-1.549782157E0,-5.256878853E0,8.167396639E0
2.839443234E1,-9.111330032E0,-2.793081284E0,-6.852377892E0,1.173766249E1
2.841124572E1,-1.011434555E1,-3.138212919E0,-5.270814419E0,1.182919485E1
2.842805911E1,-1.044351959E1,-3.695763350E0,-8.860197067E-1,1.111354125E1
2.844486237E1,-9.099724770E0,-5.283211231E0,3.789010048E-1,1.052904923E1
2.846166975E1,-4.552375317E0,-3.681983471E0,-4.986425400E0,7.690615162E0
2.847847595E1,1.027197361E0,-1.441255093E0,-3.045218468E0,3.522173502E0
2.849528701E1,4.640402222E1,-1.673438311E0,1.110476017E1,4.774357938E1
2.851209094E1,6.780861664E1,2.550089598E0,1.523389053E1,6.954554528E1
2.852889066E1,5.827807236E1,8.037211418E0,2.125229836E0,5.886804810E1
2.854570712E1,3.311774826E1,6.574368000E0,-8.938140869E-1,3.377582668E1
2.856251614E1,2.239117050E1,-1.562811852E0,-2.622840691E1,3.452153279E1
2.857932387E1,1.835982895E1,-1.650131822E0,-8.942083359E0,2.048821878E1
2.859612910E1,1.614182281E1,-5.889777184E0,-1.702469826E0,1.726691410E1
2.861293778E1,1.112137222E1,-7.204011440E0,-2.078891277E0,1.341284794E1
2.862974533E1,3.582480431E0,-5.544158459E0,-3.588083267E0,7.513068653E0
2.864655329E1,-3.335714817E0,-3.041593552E0,-3.927661896E0,5.983712279E0
2.866335941E1,-7.625452042E0,-1.983303785E0,-3.549804449E0,8.641881992E0
2.868016859E1,-9.243880272E0,-1.623391628E0,-5.157215118E0,1.070894909E1
2.869697476E1,-1.042988396E1,-1.583842754E0,-5.434827328E0,1.186711360E1
2.871378313E1,-1.190352058E1,-1.398876190E0,-6.057549477E0,1.342924281E1
2.873058976E1,-1.295184517E1,-1.054819822E-1,-7.284881115E0,1.486038063E1
2.874739660E1,-1.265476799E1,7.770944834E-1,-7.089425087E0,1.452607920E1
2.876420606E1,-1.235773087E1,7.522288561E-1,-8.650347710E0,1.510324058E1
2.878101320E1,-1.175151157E1,1.521064043E-1,-9.068166733E0,1.484428538E1
2.879781940E1,-1.029341316E1,-4.080820084E-1,-7.836759090E0,1.294355741E1
2.881461592E1,-8.389794350E0,-9.188047051E-1,-7.042932034E0,1.099253123E1
2.883143550E1,-7.112976074E0,-2.002273321E0,-7.313808441E0,1.039688997E1
2.884823063E1,-6.335904598E0,-2.569520712E0,-6.313187122E0,9.306044026E0
2.886504990E1,-5.407773495E0,-2.609258413E0,-5.448616982E0,8.108000410E0
2.888184869E1,-4.447865009E0,-2.375931740E0,-5.129520416E0,7.193089355E0
2.889866534E1,-3.780630589E0,-1.700649738E0,-6.574683189E0,7.772505144E0
2.891547115E1,-4.403666019E0,-1.898976803E0,-7.911927223E0,9.251863580E0
2.893228081E1,-6.322731972E0,-2.478725672E0,-6.166910172E0,9.173429108E0
2.894907442E1,-5.738600731E0,-2.896701813E0,-4.492108345E0,7.842286473E0
2.896589882E1,-3.960806370E0,-2.179765940E0,-4.023655415E0,6.052203693E0
2.898270397E1,5.984106541E0,-6.432125568E0,4.006450176E0,9.655745100E0
2.899950939E1,6.660459137E1,-9.092234612E0,1.259926414E1,6.839284889E1
2.901631858E1,8.070764160E1,4.270564079E0,8.098594666E0,8.122529388E1
2.903312601E1,6.126621246E1,-1.036633611E0,2.383047104E0,6.132130390E1
2.904993170E1,2.945153236E1,-1.757885814E0,-3.608929157E0,2.972385054E1
2.906673940E1,9.043560028E0,-2.241741419E0,-2.430477524E1,2.602947333E1
2.908354689E1,3.933052540E0,3.179475784E0,-1.272896004E1,1.369687527E1
2.910035797E1,1.657079220E0,3.926862717E0,-1.041548061E1,1.125381707E1
2.911716162E1,-2.413759708E0,1.260630131E0,-9.824479103E0,1.019489156E1
2.913397089E1,-5.386440277E0,-4.766455293E-1,-1.010378838E1,1.145981978E1
2.915077803E1,-7.077629566E0,-1.650171280E-1,-1.601712418E1,1.751194843E1
2.916758412E1,-8.478586197E0,3.441450894E-1,-1.527568913E1,1.747431080E1
2.918439228E1,-8.912385941E0,2.781530917E-1,-1.037777424E1,1.368233132E1
2.920120041E1,-9.235288620E0,6.794111729E-1,-9.035531044E0,1.293804377E1
