"Time (s)","Linear Acceleration x (m/s^2)","Linear Acceleration y (m/s^2)","Linear Acceleration z (m/s^2)","Absolute acceleration (m/s^2)"
2.674585300E-2,-8.814037323E0,-3.525924921E0,3.669631958E0,1.017770108E1
3.166810300E-2,-8.814037323E0,-3.525924921E0,3.669631958E0,1.017770108E1
3.659056300E-2,-8.814037323E0,-3.525924921E0,3.669631958E0,1.017770108E1
4.151302400E-2,-8.814037323E0,-3.525924921E0,3.669631958E0,1.017770108E1
4.643545200E-2,-8.814037323E0,-3.525924921E0,3.669631958E0,1.017770108E1
5.135791300E-2,-8.814037323E0,-3.525924921E0,3.669631958E0,1.017770108E1
5.628030000E-2,-8.814037323E0,-3.525924921E0,3.669631958E0,1.017770108E1
6.120272600E-2,-8.814037323E0,-3.525924921E0,3.669631958E0,1.017770108E1
6.612495800E-2,-8.814037323E0,-3.525924921E0,3.669631958E0,1.017770108E1
7.104737000E-2,-8.814037323E0,-3.525924921E0,3.669631958E0,1.017770108E1
7.596975700E-2,-8.814037323E0,-3.525924921E0,3.669631958E0,1.017770108E1
8.089221600E-2,-8.814037323E0,-3.525924921E0,3.669631958E0,1.017770108E1
8.581444900E-2,-8.814037323E0,-3.525924921E0,3.669631958E0,1.017770108E1
9.073690800E-2,-8.814037323E0,-3.525924921E0,3.669631958E0,1.017770108E1
9.565928000E-2,-8.814037323E0,-3.525924921E0,3.669631958E0,1.017770108E1
1.005817400E-1,-8.814037323E0,-3.525924921E0,3.669631958E0,1.017770108E1
1.055042780E-1,1.992199942E-2,5.714900047E-2,1.749520004E-1,1.851245439E-1
1.104266320E-1,4.427900165E-2,-1.533299964E-2,1.398659945E-1,1.475067025E-1
1.153490910E-1,5.172400177E-2,-1.024670005E-1,6.463500112E-2,1.317290474E-1
1.202715530E-1,6.142200157E-2,-1.967860013E-1,-6.200000062E-4,2.061498896E-1
1.251937810E-1,7.574100047E-2,-2.914760113E-1,-1.179590002E-1,3.234335945E-1
1.301161630E-1,9.462399781E-2,-3.723919988E-1,-2.274090052E-1,4.464799630E-1
1.350386290E-1,5.218299851E-2,-4.297049940E-1,-2.765969932E-1,5.136879829E-1
1.399608620E-1,-1.755099930E-2,-4.093869925E-1,-3.009630144E-1,5.084136930E-1
1.448833210E-1,-6.730800122E-2,-4.371820092E-1,-3.201789856E-1,5.460522494E-1
1.498058070E-1,-1.048649997E-1,-4.560529888E-1,-3.913919926E-1,6.100562995E-1
1.547282680E-1,-1.261290014E-1,-4.945240021E-1,-4.882650077E-1,7.063039228E-1
1.596507300E-1,-1.460600048E-1,-5.232499838E-1,-5.977749825E-1,8.077493424E-1
1.645731450E-1,-2.403690070E-1,-5.526700020E-1,-7.567690015E-1,9.674299521E-1
1.694956050E-1,-3.039860129E-1,-5.711420178E-1,-9.003729820E-1,1.108729998E0
1.744180660E-1,-3.084219992E-1,-6.427869797E-1,-1.007264018E0,1.234050255E0
1.793403140E-1,-2.729069889E-1,-7.198730111E-1,-1.096469045E0,1.339753613E0
1.842627740E-1,-2.661379874E-1,-7.971249819E-1,-1.079761982E0,1.368255679E0
1.891849390E-1,-2.423360050E-1,-8.691899776E-1,-9.502869844E-1,1.310443936E0
1.941073980E-1,-2.247170061E-1,-8.950729966E-1,-7.538009882E-1,1.191582700E0
1.990300850E-1,-2.000620067E-1,-8.912739754E-1,-4.523549974E-1,1.019322888E0
2.039523180E-1,-1.221939996E-1,-9.127280116E-1,-2.281049937E-1,9.487021054E-1
2.088747590E-1,3.729299828E-2,-9.690880179E-1,-1.743399948E-1,9.853510989E-1
2.137971450E-1,2.066099942E-1,-1.093050957E0,-1.406839937E-1,1.121267171E0
2.187193760E-1,3.287540078E-1,-1.188881993E0,-1.415809989E-1,1.241597669E0
2.236419140E-1,4.064710140E-1,-1.247115016E0,-1.507070065E-1,1.320313277E0
2.285643750E-1,4.306969941E-1,-1.253489971E0,-1.561489999E-1,1.334585898E0
2.334867620E-1,4.161539972E-1,-1.296077967E0,-1.822160035E-1,1.373391757E0
2.384092980E-1,3.393900096E-1,-1.334344029E0,-2.935769856E-1,1.407780883E0
2.433316850E-1,2.388879955E-1,-1.337528944E0,-4.565559924E-1,1.433350803E0
2.482541350E-1,1.076949984E-1,-1.294348955E0,-6.588630080E-1,1.456378348E0
2.531763670E-1,-4.011600092E-2,-1.278921008E0,-8.837469816E-1,1.555074585E0
2.580987550E-1,-2.072310001E-1,-1.226799011E0,-1.071190953E0,1.641776647E0
2.630212930E-1,-3.630729914E-1,-1.161707044E0,-1.170920014E0,1.688916497E0
2.679436800E-1,-4.843159914E-1,-1.109200001E0,-1.171262980E0,1.684263515E0
2.728659290E-1,-5.791059732E-1,-1.102319002E0,-1.215932012E0,1.740391211E0
2.777883880E-1,-6.456969976E-1,-1.110067010E0,-1.326251030E0,1.846108115E0
2.827107420E-1,-6.948919892E-1,-1.173275948E0,-1.547374964E0,2.062479237E0
2.876332020E-1,-7.346019745E-1,-1.272992015E0,-1.840713978E0,2.355499242E0
2.925556440E-1,-7.511150241E-1,-1.319502950E0,-2.198245049E0,2.671618069E0
2.974781060E-1,-7.758089900E-1,-1.401831031E0,-2.552629948E0,3.013789886E0
3.024005670E-1,-7.923700213E-1,-1.494014025E0,-2.886791945E0,3.345668227E0
3.073228050E-1,-7.942770123E-1,-1.591820002E0,-3.229005098E0,3.686630008E0
3.122452650E-1,-7.818390131E-1,-1.697965980E0,-3.562238932E0,4.022922683E0
3.171676510E-1,-7.442430258E-1,-1.848253012E0,-3.895819902E0,4.375768457E0
3.220898720E-1,-7.224280238E-1,-1.978497982E0,-4.212627888E0,4.709839725E0
3.270123320E-1,-7.685070038E-1,-2.117677927E0,-4.524555206E0,5.054380539E0
3.319347690E-1,-7.969899774E-1,-2.258208990E0,-4.795623779E0,5.360289945E0
3.368571560E-1,-8.345739841E-1,-2.357867002E0,-5.068280220E0,5.651859422E0
3.417796150E-1,-9.285380244E-1,-2.457345963E0,-5.316192150E0,5.929808683E0
3.467020670E-1,-1.029093981E0,-2.568595886E0,-5.572604179E0,6.221787250E0
3.516245280E-1,-1.155351996E0,-2.674844027E0,-5.811015129E0,6.500578869E0
3.565467610E-1,-1.299466014E0,-2.757631063E0,-6.040612221E0,6.766249848E0
3.614694380E-1,-1.452011943E0,-2.839248896E0,-6.276646137E0,7.040309631E0
3.663916700E-1,-1.562708974E0,-2.940932989E0,-6.461618900E0,7.269364828E0
3.713141300E-1,-1.681578994E0,-3.055345058E0,-6.597880840E0,7.462899766E0
3.762365250E-1,-1.789504051E0,-3.141361952E0,-6.694986820E0,7.608766535E0
3.811587560E-1,-1.855396032E0,-3.322699070E0,-6.767465115E0,7.764110227E0
3.860812160E-1,-1.893636942E0,-3.474509001E0,-6.798467159E0,7.866208069E0
3.910036770E-1,-1.851518989E0,-3.679809093E0,-6.776163101E0,7.930038077E0
3.959260640E-1,-1.769526958E0,-3.916467905E0,-6.726991177E0,7.982628439E0
4.008485290E-1,-1.697615981E0,-4.207706928E0,-6.629611015E0,8.033582005E0
4.057709900E-1,-1.597260952E0,-4.464375973E0,-6.536774158E0,8.075352115E0
4.106934520E-1,-1.550030947E0,-4.664054871E0,-6.460349083E0,8.117395767E0
4.156156070E-1,-1.538987041E0,-4.811570168E0,-6.407502174E0,8.159397815E0
4.205381440E-1,-1.523270011E0,-4.944789886E0,-6.371004105E0,8.207374236E0
4.254605310E-1,-1.545778990E0,-5.096704006E0,-6.259874821E0,8.218993684E0
4.303829850E-1,-1.546496034E0,-5.259709835E0,-6.131494999E0,8.225048842E0
4.353054470E-1,-1.518262029E0,-5.416536808E0,-5.976108074E0,8.207183335E0
4.402279080E-1,-1.537732005E0,-5.545168877E0,-5.762353897E0,8.143601171E0
4.451501120E-1,-1.530591011E0,-5.640396118E0,-5.528296947E0,8.044802319E0
4.500725720E-1,-1.518192053E0,-5.682590008E0,-5.247410774E0,7.882388987E0
4.549949490E-1,-1.466650963E0,-5.697697163E0,-4.886010170E0,7.647739103E0
4.599171800E-1,-1.409059048E0,-5.699678898E0,-4.451142788E0,7.367798793E0
4.648398940E-1,-1.359264970E0,-5.711905003E0,-3.985903978E0,7.096540745E0
4.697621270E-1,-1.242496967E0,-5.784171104E0,-3.475883007E0,6.861646796E0
4.746845870E-1,-1.060842991E0,-5.880084038E0,-2.990250111E0,6.681494733E0
4.796070430E-1,-8.786050081E-1,-6.042130947E0,-2.512012005E0,6.602234277E0
4.845294300E-1,-7.216709852E-1,-6.185959816E0,-2.143888950E0,6.586589989E0
4.894518890E-1,-6.328700185E-1,-6.282568932E0,-2.038507938E0,6.635262727E0
4.943741360E-1,-4.993009865E-1,-6.365584850E0,-2.075387955E0,6.713956146E0
4.992965960E-1,-3.061699867E-1,-6.504872799E0,-2.318243980E0,6.912406625E0
5.042190570E-1,-8.632300049E-2,-6.696191788E0,-2.617885113E0,7.190254417E0
5.091414300E-1,1.133460030E-1,-6.858638763E0,-2.859000921E0,7.431531422E0
5.140638890E-1,2.152740061E-1,-7.021524906E0,-3.080118895E0,7.670416371E0
5.189863320E-1,2.059630007E-1,-7.188029766E0,-3.331119061E0,7.925058162E0
5.239085650E-1,2.729319930E-1,-7.311328888E0,-3.587560892E0,8.148657260E0
5.288310430E-1,5.603389740E-1,-7.363828182E0,-3.784001112E0,8.298108801E0
5.337534300E-1,1.051594019E0,-7.384354115E0,-3.893038988E0,8.413696467E0
5.386756610E-1,1.627347946E0,-7.291718006E0,-3.789340019E0,8.377142150E0
5.435981290E-1,2.247878075E0,-7.184083939E0,-3.444241047E0,8.278092429E0
5.485205910E-1,3.072510004E0,-7.152288914E0,-2.796163082E0,8.271280579E0
5.534430520E-1,4.188858032E0,-7.262848854E0,-1.755166054E0,8.565985814E0
5.583655190E-1,5.454814911E0,-7.524055004E0,-4.065459967E-1,9.302241078E0
5.632879060E-1,6.606308937E0,-7.814620972E0,1.192801952E0,1.030215488E1
5.682103650E-1,7.443798065E0,-7.970625877E0,2.804172993E0,1.126074565E1
5.731326080E-1,8.011718750E0,-8.027686119E0,4.038442135E0,1.203911943E1
5.780550670E-1,8.382718086E0,-7.953148842E0,4.756452084E0,1.249585433E1
5.829774400E-1,8.581494331E0,-7.830078125E0,4.991160870E0,1.264372790E1
5.878999000E-1,8.616284370E0,-7.624557972E0,4.852798939E0,1.248694911E1
5.928221360E-1,8.452055931E0,-7.432525158E0,4.428741932E0,1.209518230E1
5.977445960E-1,8.247212410E0,-7.235019207E0,3.872904062E0,1.163449188E1
6.026670570E-1,7.970372200E0,-7.151681900E0,3.341819048E0,1.121789381E1
6.075894160E-1,7.706925869E0,-7.141372204E0,2.844042063E0,1.088505758E1
6.125118760E-1,7.486623764E0,-7.124429226E0,2.468362093E0,1.062543357E1
6.174344140E-1,7.374927044E0,-7.140478134E0,2.308888912E0,1.052173678E1
6.223568150E-1,7.454076767E0,-7.276552200E0,2.433506012E0,1.069735593E1
6.272792740E-1,7.784985065E0,-7.597264767E0,2.681026936E0,1.120322855E1
6.322014440E-1,8.263604164E0,-8.006142616E0,2.855911970E0,1.185502875E1
6.371238270E-1,8.721591949E0,-8.286545753E0,3.005938053E0,1.240034960E1
6.420462880E-1,9.124877930E0,-8.535764694E0,3.220088005E0,1.290316407E1
6.469685300E-1,9.477879524E0,-8.757955551E0,3.348048925E0,1.333196975E1
6.518909900E-1,9.833087921E0,-9.010077477E0,3.380835056E0,1.375867580E1
6.568134650E-1,1.022394753E1,-9.210418701E0,3.352396011E0,1.416331440E1
6.617359270E-1,1.064090443E1,-9.272609711E0,3.322901011E0,1.450006238E1
6.666583130E-1,1.110313034E1,-9.297290802E0,3.136591911E0,1.481746700E1
6.715807590E-1,1.156752396E1,-9.205682755E0,2.812546015E0,1.504867504E1
6.765029920E-1,1.180416298E1,-9.005407333E0,2.477080107E0,1.505229387E1
6.814256820E-1,1.187031269E1,-8.663616180E0,2.226717949E0,1.486340612E1
6.863481460E-1,1.170793056E1,-8.200512886E0,2.140511036E0,1.445357524E1
6.912703760E-1,1.145493317E1,-7.682013988E0,2.117211103E0,1.395390324E1
6.961927690E-1,1.115800190E1,-7.150063992E0,2.136831045E0,1.342350433E1
7.011152300E-1,1.086130905E1,-6.550669193E0,2.186665058E0,1.287092869E1
7.060374820E-1,1.054903221E1,-5.891933918E0,2.354572058E0,1.231019803E1
7.109599420E-1,1.015030003E1,-5.152970791E0,2.570497036E0,1.167001087E1
7.158823280E-1,1.012828541E1,-4.633437157E0,2.941544056E0,1.151970428E1
7.208047880E-1,1.019472313E1,-4.086669922E0,3.406773090E0,1.149953710E1
7.257272500E-1,1.006393433E1,-3.435827971E0,3.784048080E0,1.128745799E1
7.306497250E-1,9.871674538E0,-2.781215906E0,4.188516140E0,1.107830256E1
7.355719580E-1,9.647990227E0,-2.096415043E0,4.658551216E0,1.091699459E1
7.404944170E-1,9.463741302E0,-1.488963008E0,5.107984066E0,1.085683709E1
7.454168690E-1,9.329935074E0,-9.849330187E-1,5.455439091E0,1.085263089E1
7.503392560E-1,9.193117142E0,-5.288800001E-1,5.734469891E0,1.084791509E1
7.552617150E-1,9.148490906E0,-1.466390043E-1,6.000061035E0,1.094153194E1
7.601841730E-1,9.205137253E0,1.623370051E-1,6.120158195E0,1.105519070E1
7.651064050E-1,9.326782227E0,4.992460012E-1,5.919313908E0,1.105786554E1
7.700287920E-1,9.515665054E0,8.240889907E-1,5.459084034E0,1.100130004E1
7.749513310E-1,9.584856033E0,1.175881982E0,4.632998943E0,1.071059489E1
7.798737220E-1,9.505449295E0,1.524214983E0,3.744060993E0,1.032931703E1
7.847961820E-1,9.152347565E0,1.805086017E0,2.891125917E0,9.766391890E0
7.897186430E-1,8.694536209E0,2.083642960E0,1.984377027E0,9.158290237E0
7.946408760E-1,8.171545029E0,2.343574047E0,1.130568981E0,8.575819127E0
7.995633360E-1,7.615787029E0,2.611711025E0,4.101029932E-1,8.061602261E0
8.044857220E-1,7.047332764E0,2.897438049E0,-1.871670038E-1,7.622012714E0
8.094081920E-1,6.506465912E0,3.218590975E0,-6.901429892E-1,7.291757255E0
8.143306530E-1,6.098117828E0,3.501363039E0,-1.087105989E0,7.115362507E0
8.192528860E-1,6.100145817E0,3.616830111E0,-1.253391027E0,7.201682311E0
8.241753120E-1,5.950789928E0,3.701843977E0,-1.277143002E0,7.123667865E0
8.290976980E-1,5.605323792E0,3.804472923E0,-1.219743013E0,6.883417905E0
8.340202210E-1,5.222477913E0,3.879273891E0,-1.108615994E0,6.599399283E0
8.389426820E-1,5.068647861E0,3.916624069E0,-1.033169985E0,6.488341503E0
8.438651350E-1,5.133272171E0,4.266201019E0,-1.267732978E0,6.793975362E0
8.487873680E-1,4.719034195E0,4.485227108E0,-1.052443981E0,6.595012076E0
8.537097500E-1,4.436387062E0,4.417859077E0,-7.879350185E-1,6.310297187E0
8.586322070E-1,4.254224777E0,4.317743778E0,-4.513399899E-1,6.078243790E0
8.635546680E-1,4.134652138E0,4.213539124E0,-1.959099993E-2,5.903358710E0
8.684769010E-1,4.123712063E0,4.117194176E0,4.681540132E-1,5.845977868E0
8.733996060E-1,4.236532211E0,3.985667944E0,9.391710162E-1,5.892011230E0
8.783218380E-1,4.378417015E0,3.859819889E0,1.351618052E0,5.991295060E0
8.832442980E-1,4.515727997E0,3.774750948E0,1.708017945E0,6.128447549E0
8.881666850E-1,4.622389793E0,3.747796059E0,2.038134098E0,6.290187064E0
8.930889150E-1,4.726077080E0,3.702565908E0,2.298090935E0,6.428531778E0
8.980113660E-1,4.887625217E0,3.644098997E0,2.503575087E0,6.590616510E0
9.029337520E-1,4.991311073E0,3.563268900E0,2.705135107E0,6.702822348E0
9.078562160E-1,5.014260769E0,3.529896021E0,2.843533039E0,6.759338512E0
9.127786780E-1,4.966559887E0,3.594559908E0,2.923897028E0,6.792403983E0
9.177009100E-1,4.827371120E0,3.676198959E0,2.946187019E0,6.745218208E0
9.226233840E-1,4.601498127E0,3.808537960E0,2.843838930E0,6.615600220E0
9.275458450E-1,4.393576145E0,3.991591930E0,2.614860058E0,6.486432810E0
9.324682320E-1,4.119922161E0,4.141736984E0,2.283305883E0,6.272258733E0
9.373907550E-1,3.803913116E0,4.335562229E0,1.918081999E0,6.078313368E0
9.423131410E-1,3.490802050E0,4.474930763E0,1.547562957E0,5.882657171E0
9.472356010E-1,3.231900930E0,4.674481869E0,1.178413987E0,5.803845612E0
9.521580720E-1,3.012459040E0,4.819211960E0,8.151069880E-1,5.741438215E0
9.570802280E-1,2.819747925E0,4.983145237E0,4.903680086E-1,5.746579469E0
9.620026640E-1,2.685431957E0,5.191846848E0,2.245139927E-1,5.849549129E0
9.669251250E-1,2.543915987E0,5.388551235E0,1.874000020E-2,5.958887828E0
9.718473430E-1,2.337410927E0,5.575560093E0,-1.656029969E-1,6.047957055E0
9.767698030E-1,2.154032946E0,5.745563030E0,-3.264510036E-1,6.144747572E0
9.816921890E-1,1.952648044E0,5.860138893E0,-4.449610114E-1,6.192903401E0
9.866146640E-1,1.775905967E0,5.926348209E0,-5.596730113E-1,6.211978669E0
9.915368970E-1,1.633030057E0,5.975236893E0,-6.131420135E-1,6.224643461E0
9.964593560E-1,1.491348982E0,5.927056789E0,-6.086620092E-1,6.142034957E0
1.001382048E0,1.492107034E0,5.808795929E0,-5.865430236E-1,6.025987576E0
1.006304281E0,1.725221992E0,5.608171940E0,-5.257620215E-1,5.891044825E0
1.011226741E0,2.019304037E0,5.330217838E0,-4.262929857E-1,5.715814615E0
1.016149202E0,2.348733902E0,5.054138184E0,-3.020510077E-1,5.581406501E0
1.021071589E0,2.647305965E0,4.835252762E0,-1.808509976E-1,5.515487760E0
1.025994048E0,2.951234102E0,4.673662186E0,-5.251299962E-2,5.527717302E0
1.030916309E0,3.215881109E0,4.524151802E0,7.625299692E-2,5.551185041E0
1.035838692E0,3.408859968E0,4.348797798E0,1.539700031E-1,5.527754999E0
1.040761153E0,3.564430952E0,4.155060768E0,2.005030066E-1,5.478129193E0
1.045683615E0,3.657176971E0,3.900187969E0,2.021089941E-1,5.350444621E0
1.050605848E0,3.646348953E0,3.730257034E0,1.567990035E-1,5.218741626E0
1.055528307E0,3.550448895E0,3.683403015E0,7.913699746E-2,5.116581651E0
1.060450694E0,3.421549082E0,3.666059017E0,-4.517300054E-2,5.014880600E0
1.065373230E0,3.280303955E0,3.716229916E0,-2.847230136E-1,4.965060525E0
1.070295718E0,3.166692019E0,3.769006968E0,-5.109580159E-1,4.949184777E0
1.075218103E0,3.134023905E0,3.912355900E0,-6.890910268E-1,5.059988238E0
1.080140562E0,3.193432093E0,4.059790134E0,-7.254809737E-1,5.215958887E0
1.085062767E0,3.103094101E0,3.965517998E0,-7.758790255E-1,5.094753601E0
1.089985226E0,3.001549959E0,3.849730015E0,-7.528330088E-1,4.939279389E0
1.094907688E0,2.857352018E0,3.724308968E0,-7.283480167E-1,4.750308272E0
1.099830150E0,2.689014912E0,3.627345085E0,-7.072820067E-1,4.570413701E0
1.104752536E0,2.579231024E0,3.527371883E0,-5.929409862E-1,4.409803181E0
1.109675009E0,2.567568064E0,3.433567047E0,-5.051370263E-1,4.317053607E0
1.114597242E0,2.607669115E0,3.369538069E0,-4.388619959E-1,4.283261008E0
1.119519624E0,2.711112022E0,3.272871017E0,-3.655120134E-1,4.265608061E0
1.124442173E0,2.822856903E0,3.141172886E0,-2.496639937E-1,4.230581556E0
1.129364559E0,3.056654930E0,2.991234064E0,-5.314999819E-2,4.277083762E0
1.134287019E0,3.313241005E0,2.777739048E0,1.558250040E-1,4.326393603E0
1.139209233E0,3.592818022E0,2.560590982E0,3.729220033E-1,4.427644784E0
1.144131692E0,3.809470892E0,2.382955074E0,5.746859908E-1,4.529989774E0
1.149054140E0,3.960874081E0,2.232844114E0,7.304890156E-1,4.605185178E0
1.153976601E0,4.051815033E0,2.110220909E0,8.957120180E-1,4.655377253E0
1.158898988E0,4.074956894E0,1.957530975E0,1.094310045E0,4.651313329E0
1.163821219E0,4.063536167E0,1.781803012E0,1.383779049E0,4.647794381E0
1.168743715E0,3.954855919E0,1.625903964E0,1.706925988E0,4.604133509E0
1.173666102E0,3.817826033E0,1.508716941E0,1.984734058E0,4.559735925E0
1.178588561E0,3.647156000E0,1.386854053E0,2.270039082E0,4.514220695E0
1.183511038E0,3.492691994E0,1.219336987E0,2.548604012E0,4.492333743E0
1.188433271E0,3.358783960E0,1.077690005E0,2.806145906E0,4.507471607E0
1.193355961E0,3.264285088E0,9.113510251E-1,3.033359051E0,4.548338703E0
1.198278198E0,3.204248905E0,6.841560006E-1,3.216171026E0,4.591191191E0
1.203200657E0,3.190596104E0,4.270060062E-1,3.333283901E0,4.633898919E0
1.208123044E0,3.189861059E0,1.013950035E-1,3.411276102E0,4.671434380E0
1.213045261E0,3.293212891E0,-3.000110090E-1,3.464704990E0,4.789513380E0
1.217967720E0,3.503479004E0,-7.533400059E-1,3.517879963E0,5.021689529E0
1.222890107E0,3.742120981E0,-1.165236950E0,3.556581974E0,5.292496757E0
1.227812653E0,3.954977036E0,-1.552271008E0,3.643258095E0,5.596848951E0
1.232735040E0,4.157255173E0,-1.904664040E0,3.701363087E0,5.883077798E0
1.237657256E0,4.309062004E0,-2.260516882E0,3.726283073E0,6.128877342E0
1.242579715E0,4.435046196E0,-2.602860928E0,3.782607079E0,6.383779138E0
1.247502177E0,4.497704983E0,-2.960110903E0,3.910810947E0,6.654776400E0
1.252424570E0,4.540950775E0,-3.243295908E0,4.069861889E0,6.906734256E0
1.257347106E0,4.476949215E0,-3.504674911E0,4.156411171E0,7.042838514E0
1.262269493E0,4.354102135E0,-3.767898083E0,4.227726936E0,7.143454095E0
1.267191971E0,4.182293892E0,-4.078245163E0,4.194921970E0,7.191733876E0
1.272114433E0,3.987898111E0,-4.399734020E0,4.160542965E0,7.250593669E0
1.277036666E0,3.816396952E0,-4.665243149E0,4.020977974E0,7.245525736E0
1.281959034E0,3.626948118E0,-4.889099121E0,3.624504089E0,7.084848111E0
1.286881496E0,3.421859980E0,-5.011401176E0,3.152513027E0,6.838245817E0
1.291803976E0,3.220017910E0,-5.125605106E0,2.668994904E0,6.615427185E0
1.296726209E0,2.989968061E0,-5.238999844E0,2.218655109E0,6.427243489E0
1.301648669E0,2.788820982E0,-5.313384056E0,1.826902986E0,6.272730435E0
1.306571064E0,2.463155985E0,-5.423036098E0,1.469257951E0,6.134751573E0
1.311493524E0,1.998309016E0,-5.587297916E0,1.279338002E0,6.070242388E0
1.316415985E0,1.654678941E0,-5.830625057E0,1.264217019E0,6.191316147E0
1.321338452E0,1.319602013E0,-6.107862949E0,1.378980041E0,6.399134725E0
1.326260913E0,9.851009846E-1,-6.451354980E0,1.488880992E0,6.693815925E0
1.331183146E0,7.138620019E-1,-6.829837799E0,1.582131028E0,7.046944154E0
1.336105587E0,5.297530293E-1,-7.246211052E0,1.616567969E0,7.443218718E0
1.341027973E0,3.899230063E-1,-7.590547085E0,1.648190975E0,7.777208914E0
1.345950218E0,2.875649929E-1,-7.831870079E0,1.639780998E0,8.006857329E0
1.350872678E0,1.799129993E-1,-7.989428043E0,1.623147011E0,8.154626623E0
1.355795153E0,1.513649970E-1,-8.067771912E0,1.689867020E0,8.244240749E0
1.360717615E0,3.271560073E-1,-8.183694839E0,1.919144988E0,8.412075235E0
1.365639771E0,6.149700284E-1,-8.336177826E0,2.016659021E0,8.598660506E0
1.370562466E0,8.796089888E-1,-8.406560898E0,1.963824987E0,8.677591065E0
1.375484699E0,9.952520132E-1,-8.374376297E0,1.945448995E0,8.654795013E0
1.380407158E0,9.936249852E-1,-8.274539948E0,1.880030036E0,8.543407686E0
1.385329596E0,9.420610070E-1,-8.111137390E0,1.791350961E0,8.359842520E0
1.390252057E0,8.886510134E-1,-7.931294918E0,1.686064005E0,8.157079841E0
1.395174519E0,8.096050024E-1,-7.717513084E0,1.549342990E0,7.913022948E0
1.400096878E0,6.571050286E-1,-7.473873138E0,1.433313012E0,7.638386799E0
1.405019108E0,4.022800028E-1,-7.238228798E0,1.344571948E0,7.373035946E0
1.409941558E0,9.039200097E-2,-6.936083794E0,1.237174988E0,7.046135895E0
1.414864019E0,-3.115780056E-1,-6.599286079E0,1.170179963E0,6.709469335E0
1.419786406E0,-7.594950199E-1,-6.198378086E0,1.227148056E0,6.364166555E0
1.424708885E0,-1.182258010E0,-5.776826859E0,1.260864973E0,6.029862605E0
1.429631346E0,-1.554082990E0,-5.349343777E0,1.285109043E0,5.716831118E0
1.434553502E0,-1.923259020E0,-4.954587936E0,1.285436034E0,5.468017253E0
1.439476034E0,-2.280617952E0,-4.631404877E0,1.314674973E0,5.327241281E0
1.444398420E0,-2.617014885E0,-4.284599781E0,1.351281047E0,5.199280975E0
1.449320957E0,-2.923197031E0,-3.938627005E0,1.392979980E0,5.098848575E0
1.454243454E0,-3.189819098E0,-3.663172007E0,1.410938978E0,5.058114651E0
1.459165839E0,-3.381226063E0,-3.396512032E0,1.436521053E0,5.003256580E0
1.464088070E0,-3.492748976E0,-3.203588963E0,1.491523981E0,4.968593507E0
1.469010523E0,-3.548325062E0,-3.010231018E0,1.561853051E0,4.908307904E0
1.473932985E0,-3.557538986E0,-2.859584093E0,1.719491959E0,4.877494994E0
1.478855362E0,-3.580265999E0,-2.756340981E0,1.923634052E0,4.910813394E0
1.483777593E0,-3.640443087E0,-2.664371014E0,2.174076080E0,5.007824435E0
1.488700057E0,-3.730863094E0,-2.576406002E0,2.356000900E0,5.109593678E0
1.493622443E0,-3.846714020E0,-2.485203981E0,2.517443895E0,5.225989987E0
1.498544903E0,-3.985563040E0,-2.450575113E0,2.704127073E0,5.403918426E0
1.503467374E0,-4.133168221E0,-2.400779009E0,2.932586908E0,5.607752256E0
1.508389607E0,-4.232051849E0,-2.450609922E0,3.183690071E0,5.835377821E0
1.513312297E0,-4.337324142E0,-2.497041941E0,3.447743893E0,6.077379132E0
1.518234506E0,-4.444117069E0,-2.566237926E0,3.669888020E0,6.309027793E0
1.523156966E0,-4.552412033E0,-2.665374994E0,3.855144978E0,6.533821392E0
1.528079427E0,-4.693371773E0,-2.799299002E0,4.049079895E0,6.801386733E0
1.533001804E0,-4.797636986E0,-2.913117886E0,4.165563107E0,6.989670411E0
1.537924035E0,-4.836523056E0,-3.066838026E0,4.202311993E0,7.103300418E0
1.542846499E0,-4.860236168E0,-3.250771999E0,4.118863106E0,7.152233741E0
1.547768886E0,-4.895047188E0,-3.414335012E0,4.056550026E0,7.216284963E0
1.552691350E0,-4.969716072E0,-3.552552938E0,4.005611897E0,7.305041881E0
1.557613812E0,-5.084318161E0,-3.607846022E0,3.946607113E0,7.378519620E0
1.562536045E0,-5.215089798E0,-3.609186888E0,3.862466097E0,7.425768374E0
1.567458504E0,-5.326157093E0,-3.633076906E0,3.760222912E0,7.463676945E0
1.572380891E0,-5.441487789E0,-3.631691933E0,3.649529934E0,7.491197794E0
1.577303427E0,-5.580193043E0,-3.684039116E0,3.501954079E0,7.548137583E0
1.582225896E0,-5.715855122E0,-3.739921093E0,3.346746922E0,7.606492261E0
1.587148281E0,-5.843602180E0,-3.808864117E0,3.229814053E0,7.686795894E0
1.592070740E0,-5.989775181E0,-3.852648020E0,3.151321888E0,7.787883738E0
1.596992982E0,-6.125695229E0,-3.926506042E0,3.070632935E0,7.897491903E0
1.601915442E0,-6.241849899E0,-4.001770020E0,2.999588013E0,7.998273670E0
1.606837852E0,-6.317587852E0,-4.009862900E0,2.859508991E0,8.010474918E0
1.611760312E0,-6.366327763E0,-4.002243996E0,2.761375904E0,8.010822871E0
1.616682544E0,-6.385671139E0,-4.017254829E0,2.655006886E0,7.997761801E0
1.621605254E0,-6.366133213E0,-4.014380932E0,2.564076900E0,7.950936844E0
1.626527487E0,-6.264764786E0,-4.029781818E0,2.483408928E0,7.851989508E0
1.631449865E0,-6.115112782E0,-4.108520031E0,2.434009075E0,7.758797674E0
1.636372327E0,-5.950727940E0,-4.211763859E0,2.429609060E0,7.684602657E0
1.641294788E0,-5.759340763E0,-4.353369236E0,2.356064081E0,7.594265447E0
1.646217269E0,-5.566984177E0,-4.491950035E0,2.240369081E0,7.495877638E0
1.651139730E0,-5.380797863E0,-4.595996857E0,2.163660049E0,7.399837671E0
1.656061963E0,-5.227032185E0,-4.724475861E0,2.142034054E0,7.364159660E0
1.660984288E0,-5.072145939E0,-4.857658863E0,2.172365904E0,7.351373183E0
1.665906749E0,-4.963885784E0,-4.928049088E0,2.213777065E0,7.336664009E0
1.670829217E0,-4.854290962E0,-5.004921913E0,2.266031027E0,7.331321894E0
1.675751450E0,-4.816575050E0,-4.970661163E0,2.310962915E0,7.297082788E0
1.680673909E0,-4.838244915E0,-4.881439209E0,2.318758011E0,7.253530266E0
1.685596300E0,-4.878255844E0,-4.835227013E0,2.323211908E0,7.250800915E0
1.690518759E0,-4.886218071E0,-4.806367874E0,2.317476988E0,7.235122581E0
1.695441221E0,-4.885672092E0,-4.819063187E0,2.271812916E0,7.228713282E0
1.700363454E0,-4.835993767E0,-4.874166012E0,2.253190041E0,7.226423416E0
1.705285913E0,-4.734940052E0,-4.932055950E0,2.237907887E0,7.193960307E0
1.710208375E0,-4.554047108E0,-5.094167233E0,2.270467043E0,7.200340648E0
1.715130822E0,-4.275456905E0,-5.261283875E0,2.282706976E0,7.153418127E0
1.720053284E0,-3.822746992E0,-5.458115101E0,2.291491985E0,7.046655273E0
1.724975671E0,-3.293970108E0,-5.718054771E0,2.344809055E0,7.003179203E0
1.729897906E0,-2.789220095E0,-6.016398907E0,2.369112968E0,7.041981312E0
1.734820597E0,-2.195943117E0,-6.274444103E0,2.338447094E0,7.046924846E0
1.739742829E0,-1.547562957E0,-6.484961987E0,2.307890892E0,7.055213919E0
1.744665217E0,-8.033859730E-1,-6.595526218E0,2.227216005E0,7.007630573E0
1.749587679E0,-4.714300111E-2,-6.749501228E0,2.112692118E0,7.072584908E0
1.754509911E0,6.435670257E-1,-6.788809776E0,1.954092979E0,7.093701154E0
1.759432380E0,1.211814046E0,-6.731859207E0,1.799103022E0,7.072707639E0
1.764354767E0,1.590914011E0,-6.590259075E0,1.654479980E0,6.978526067E0
1.769277303E0,1.766679049E0,-6.354563236E0,1.550989032E0,6.775484910E0
1.774199704E0,1.755802989E0,-6.049435139E0,1.404608965E0,6.453792372E0
1.779122163E0,1.646543026E0,-5.649690151E0,1.255664945E0,6.017208422E0
1.784044625E0,1.483930945E0,-5.178202152E0,1.046334982E0,5.487316783E0
1.788966858E0,1.293745041E0,-4.760793209E0,7.856839895E-1,4.995620836E0
1.793889298E0,1.142351031E0,-4.370181084E0,4.973289967E-1,4.544313448E0
1.798811685E0,1.136980057E0,-3.921159983E0,1.760929972E-1,4.086468892E0
1.803733911E0,1.226943970E0,-3.584451914E0,-8.018299937E-2,3.789474415E0
1.808656370E0,1.265862942E0,-3.281481028E0,-3.127520084E-1,3.531053744E0
1.813578757E0,1.310901999E0,-2.950350046E0,-5.676550269E-1,3.277996595E0
1.818501221E0,1.320988059E0,-2.639403105E0,-7.159709930E-1,3.037115846E0
1.823423683E0,1.298100948E0,-2.411238909E0,-7.561699748E-1,2.840938609E0
1.828346144E0,1.280006051E0,-2.268699884E0,-6.365860105E-1,2.681539932E0
1.833268582E0,1.218327045E0,-2.216921091E0,-4.395970106E-1,2.567548528E0
1.838191043E0,1.167780995E0,-2.225143909E0,-2.802180052E-1,2.528537127E0
1.843113262E0,1.096976995E0,-2.324919939E0,-1.913360059E-1,2.577832562E0
1.848035722E0,1.132742047E0,-2.403990984E0,-4.484099895E-2,2.657872817E0
1.852958108E0,1.145984054E0,-2.464732885E0,1.105069965E-1,2.720367520E0
1.857880529E0,1.201537013E0,-2.545445919E0,2.499759942E-1,2.825858121E0
1.862802762E0,1.314043045E0,-2.696312904E0,3.250760138E-1,3.017032784E0
1.867725221E0,1.481340051E0,-2.907713890E0,3.209779859E-1,3.279054022E0
1.872647608E0,1.675153971E0,-3.193655968E0,3.424319923E-1,3.622545919E0
1.877570068E0,1.969956994E0,-3.494057894E0,4.025430083E-1,4.031279201E0
1.882492305E0,2.284682989E0,-3.767833948E0,4.542270005E-1,4.429748434E0
1.887414765E0,2.622117043E0,-4.007349968E0,4.236739874E-1,4.807686678E0
1.892337226E0,2.961127043E0,-4.123573780E0,3.423779905E-1,5.088158485E0
1.897259688E0,3.316488981E0,-4.099299908E0,2.054570019E-1,5.276890322E0
1.902182149E0,3.650378942E0,-3.967536926E0,-4.197999835E-3,5.391348005E0
1.907104601E0,3.929606915E0,-3.692027092E0,-3.136140108E-1,5.401039557E0
1.912026988E0,4.159259796E0,-3.294029951E0,-6.445209980E-1,5.344668623E0
1.916949199E0,4.250822067E0,-2.886008978E0,-9.260089993E-1,5.220730671E0
1.921871659E0,4.264037132E0,-2.408176899E0,-1.111343980E0,5.021594775E0
1.926794031E0,4.186460018E0,-1.990133047E0,-1.142176032E0,4.774059396E0
1.931716490E0,4.048717022E0,-1.543607950E0,-1.070109010E0,4.463179172E0
1.936638952E0,3.876338005E0,-1.076300025E0,-9.946269989E-1,4.144116425E0
1.941561184E0,3.683003902E0,-5.766879916E-1,-9.188650250E-1,3.839453049E0
1.946483644E0,3.508555889E0,-6.441099942E-2,-8.006849885E-1,3.599334613E0
1.951406106E0,3.380997896E0,4.362120032E-1,-6.814489961E-1,3.476463781E0
1.956328492E0,3.304433107E0,9.320650101E-1,-5.091220140E-1,3.470911778E0
1.961251029E0,3.266396999E0,1.454144001E0,-3.800489902E-1,3.595597498E0
1.966173415E0,3.187568903E0,1.952139020E0,-2.323600054E-1,3.745054531E0
1.971095613E0,3.115520954E0,2.404454947E0,-3.750500083E-2,3.935642391E0
1.976018303E0,3.021183014E0,2.813386917E0,2.188239992E-1,4.134075071E0
1.980940536E0,2.882863045E0,3.190906048E0,4.889039993E-1,4.328025862E0
1.985862690E0,2.686068058E0,3.515444040E0,7.994250059E-1,4.495819030E0
1.990785150E0,2.497790098E0,3.810924053E0,1.103119969E0,4.688173544E0
1.995707611E0,2.284427881E0,4.036558151E0,1.379325986E0,4.838899940E0
2.000630097E0,2.024499893E0,4.235438824E0,1.564486027E0,4.948248011E0
2.005552483E0,1.675241947E0,4.395640850E0,2.055628061E0,5.133585569E0
2.010474943E0,1.717851043E0,4.552931786E0,2.188986063E0,5.335902926E0
2.015397408E0,1.833132982E0,4.661606789E0,2.593405962E0,5.640630183E0
2.020319870E0,2.150017977E0,4.819731236E0,3.079906940E0,6.110500245E0
2.025242332E0,2.450841904E0,4.991687775E0,3.317543983E0,6.475312422E0
2.030164560E0,2.690716028E0,5.058238029E0,3.222223997E0,6.573313639E0
2.035087020E0,2.805783033E0,5.065323830E0,2.734700918E0,6.403788960E0
2.040009485E0,2.636569023E0,5.030138016E0,2.182180882E0,6.084052767E0
2.044931641E0,2.191195011E0,4.962679863E0,1.604596972E0,5.657230634E0
2.049854332E0,1.711634994E0,4.925237179E0,1.024690032E0,5.313910545E0
2.054776584E0,1.168851018E0,4.960773945E0,4.859389961E-1,5.119729245E0
2.059699044E0,7.776139975E-1,5.033091068E0,1.842290014E-1,5.096138691E0
2.064621431E0,4.958870113E-1,5.057901859E0,4.317700118E-2,5.082336018E0
2.069543919E0,3.899860084E-1,5.164248943E0,-3.210299835E-2,5.179052697E0
2.074466152E0,4.397369921E-1,5.210560799E0,-2.785499953E-2,5.229157519E0
2.079388832E0,5.896379948E-1,5.223086834E0,1.798300073E-2,5.256294553E0
2.084311065E0,8.262320161E-1,5.128109932E0,5.668599904E-2,5.194553313E0
2.089233525E0,1.088317037E0,4.978785992E0,4.083799943E-2,5.096509753E0
2.094155986E0,1.352645993E0,4.816112995E0,-7.443000097E-3,5.002464489E0
2.099078373E0,1.582016945E0,4.635758877E0,-1.346530020E-1,4.900119326E0
2.104000832E0,1.820019960E0,4.459493160E0,-2.851879895E-1,4.825026849E0
2.108923051E0,2.058135033E0,4.237630844E0,-3.948059976E-1,4.727505342E0
2.113845434E0,2.225085020E0,4.042410851E0,-3.929370046E-1,4.631035340E0
2.118767981E0,2.345251083E0,3.876530886E0,-3.616850078E-1,4.545163407E0
2.123690368E0,2.392715931E0,3.776145935E0,-3.488909900E-1,4.483981776E0
2.128612599E0,2.408293009E0,3.710181952E0,-3.590359986E-1,4.437818403E0
2.133535096E0,2.389863968E0,3.669235945E0,-3.634589911E-1,4.393955466E0
2.138457558E0,2.334863901E0,3.693945885E0,-3.384889960E-1,4.383081158E0
2.143379944E0,2.224287987E0,3.734168053E0,-2.441940010E-1,4.353285978E0
2.148302404E0,2.084793091E0,3.737447977E0,-9.779699892E-2,4.280706001E0
2.153224865E0,1.985450029E0,3.739451885E0,3.407999873E-2,4.233990277E0
2.158147327E0,1.861760020E0,3.711469889E0,1.237239987E-1,4.154090362E0
2.163069788E0,1.761044025E0,3.710623980E0,2.382439971E-1,4.114215184E0
2.167992021E0,1.704532027E0,3.688817978E0,3.468979895E-1,4.078375378E0
2.172914403E0,1.686905026E0,3.672027111E0,4.289120138E-1,4.063667948E0
2.177836864E0,1.705801964E0,3.605169058E0,4.660780132E-1,4.015499096E0
2.182759097E0,1.729822040E0,3.535950899E0,4.710130095E-1,3.964478062E0
2.187681557E0,1.746937990E0,3.442785025E0,4.393959939E-1,3.885566871E0
2.192603943E0,1.721284986E0,3.349663019E0,4.048239887E-1,3.787736370E0
2.197526403E0,1.690794945E0,3.246777058E0,3.081290126E-1,3.673593921E0
2.202448880E0,1.688873053E0,3.091001987E0,2.659049928E-1,3.532320900E0
2.207371112E0,1.738916993E0,2.929908037E0,2.253160030E-1,3.414522033E0
2.212293557E0,1.790639997E0,2.734757900E0,1.342400014E-1,3.271591776E0
2.217216018E0,1.843723059E0,2.558042049E0,8.098399639E-2,3.154275234E0
2.222138480E0,1.875157952E0,2.324359894E0,3.890699893E-2,2.986700523E0
2.227060904E0,1.933266044E0,2.071449995E0,5.561500043E-2,2.833992891E0
2.231983291E0,2.031673908E0,1.837151051E0,1.037400030E-2,2.739147764E0
2.236905536E0,2.160823107E0,1.556823969E0,-1.090500038E-2,2.663264217E0
2.241827995E0,2.389954090E0,1.204023957E0,1.503599994E-2,2.676150280E0
2.246750387E0,2.686655045E0,8.516569734E-1,4.332000017E-2,2.818742903E0
2.251672847E0,2.998465061E0,5.436189771E-1,1.023700014E-1,3.049064436E0
2.256595079E0,3.315874100E0,2.703649998E-1,1.728329957E-1,3.331364514E0
2.261517547E0,3.627047062E0,4.393500090E-2,2.427800000E-1,3.635428833E0
2.266439934E0,3.841782093E0,-1.782750040E-1,3.049609959E-1,3.857988185E0
2.271362393E0,3.969801903E0,-3.626579940E-1,3.591769934E-1,4.002481240E0
2.276284855E0,4.049322128E0,-4.925140142E-1,4.597890079E-1,4.104995211E0
2.281207316E0,4.070953846E0,-6.443399787E-1,5.752339959E-1,4.161578231E0
2.286129778E0,4.084545135E0,-7.370160222E-1,7.311760187E-1,4.214418104E0
2.291052230E0,4.077919960E0,-8.305500150E-1,9.296439886E-1,4.264209478E0
2.295974463E0,4.095976830E0,-8.654980063E-1,1.134588957E0,4.337442229E0
2.300896836E0,4.119176865E0,-8.469570279E-1,1.303110957E0,4.402618813E0
2.305819297E0,4.090274811E0,-8.274729848E-1,1.459141016E0,4.420876844E0
2.310741390E0,3.956713915E0,-8.021990061E-1,1.668938994E0,4.368577070E0
2.315663850E0,3.733108044E0,-8.140720129E-1,1.941298008E0,4.285725944E0
2.320586311E0,3.524363041E0,-8.658189774E-1,2.270699978E0,4.280987706E0
2.325508713E0,3.382565975E0,-9.124280214E-1,2.478066921E0,4.291281060E0
2.330431172E0,3.269197941E0,-9.661219716E-1,2.559557915E0,4.262907876E0
2.335353634E0,3.136101961E0,-9.170349836E-1,2.579977989E0,4.163216917E0
2.340275852E0,2.974179983E0,-8.965880275E-1,2.532125950E0,4.007652491E0
2.345198542E0,2.769201994E0,-8.448939919E-1,2.418261051E0,3.772308584E0
2.350120775E0,2.569334030E0,-8.360490203E-1,2.259793043E0,3.522374188E0
2.355043226E0,2.389051914E0,-8.820139766E-1,2.054310083E0,3.271957766E0
2.359965688E0,2.197460890E0,-9.635429978E-1,1.766157985E0,2.979356222E0
2.364888060E0,2.044892073E0,-1.102226973E0,1.447832942E0,2.737281154E0
2.369810519E0,1.995807052E0,-1.232184052E0,1.105751991E0,2.593108326E0
2.374732981E0,1.982319951E0,-1.415369034E0,7.979779840E-1,2.563129094E0
2.379655232E0,2.004684925E0,-1.575086951E0,4.362060130E-1,2.586491105E0
2.384577615E0,1.957836986E0,-1.754340053E0,8.089900017E-2,2.630091126E0
2.389500077E0,1.925791025E0,-1.945899963E0,-1.905670017E-1,2.744360312E0
2.394422323E0,1.877676010E0,-2.111363888E0,-4.705789983E-1,2.864431752E0
2.399345014E0,1.816061020E0,-2.221962929E0,-7.007570267E-1,2.954023916E0
2.404267170E0,1.786496997E0,-2.313668013E0,-8.703730106E-1,3.049947601E0
2.409189711E0,1.765207052E0,-2.448672056E0,-1.052700043E0,3.196893517E0
2.414112173E0,1.769042969E0,-2.615010023E0,-1.174873948E0,3.368696965E0
2.419034559E0,1.810088992E0,-2.774347067E0,-1.209593058E0,3.526547770E0
2.423957009E0,1.886178970E0,-2.890614033E0,-1.220497966E0,3.661002032E0
2.428879470E0,2.012079954E0,-2.987417936E0,-1.221058965E0,3.803171921E0
2.433801655E0,2.128379107E0,-3.030831099E0,-1.162662029E0,3.881715827E0
2.438724115E0,2.175625086E0,-3.003720999E0,-1.102064967E0,3.869138346E0
2.443646576E0,2.175704002E0,-2.924927950E0,-9.243100286E-1,3.760749985E0
2.448569038E0,2.121818066E0,-2.829994917E0,-7.156000137E-1,3.608748608E0
2.453491271E0,2.018991947E0,-2.711533070E0,-4.811300039E-1,3.414707330E0
2.458413672E0,1.913010001E0,-2.583621979E0,-2.689920068E-1,3.225998527E0
2.463336134E0,1.770426989E0,-2.439055920E0,-6.055499986E-2,3.014477137E0
2.468258595E0,1.579411030E0,-2.268127918E0,1.817979962E-1,2.769836451E0
2.473181048E0,1.445356965E0,-2.118715048E0,4.380849898E-1,2.601908659E0
2.478103509E0,1.363605976E0,-1.978683949E0,7.145419717E-1,2.507026457E0
2.483025742E0,1.245862961E0,-1.866773963E0,1.038743019E0,2.473056127E0
2.487948202E0,9.988409877E-1,-1.823377013E0,1.441666007E0,2.529977851E0
2.492870588E0,7.397480011E-1,-1.740731001E0,1.493857026E0,2.410182636E0
2.497792834E0,5.236560106E-1,-1.590095997E0,1.788550019E0,2.449802455E0
2.502715294E0,2.260629982E-1,-1.337983012E0,2.092323065E0,2.493816117E0
2.507637769E0,-7.671699673E-2,-1.078083038E0,2.334779978E0,2.572808986E0
2.512560156E0,-3.992930055E-1,-8.823140264E-1,2.552408934E0,2.729964159E0
2.517482615E0,-6.774320006E-1,-7.030649781E-1,2.633001089E0,2.808186107E0
2.522405249E0,-1.004883051E0,-5.812649727E-1,2.608618021E0,2.855266519E0
2.527327482E0,-1.348484039E0,-4.549680054E-1,2.543174028E0,2.914299097E0
2.532249941E0,-1.639109969E0,-3.100909889E-1,2.443402052E0,2.958555644E0
2.537172403E0,-1.900938988E0,-1.707829982E-1,2.323256016E0,3.006701579E0
2.542094864E0,-2.153314114E0,-3.479899839E-2,2.175152063E0,3.060924557E0
2.547017326E0,-2.403497934E0,1.026329994E-1,2.073002100E0,3.175637504E0
2.551939713E0,-2.685122967E0,1.982579976E-1,2.043133020E0,3.379879305E0
2.556861943E0,-2.988688946E0,2.088679969E-1,2.023163080E0,3.615117744E0
2.561784408E0,-3.247278929E0,1.700759977E-1,2.010812998E0,3.823233605E0
2.566706795E0,-3.429814100E0,8.170299977E-2,1.975025058E0,3.958664437E0
2.571629331E0,-3.548134089E0,2.039399929E-2,1.877895951E0,4.014494318E0
2.576551752E0,-3.525460958E0,-2.582300082E-2,1.775257945E0,3.947288002E0
2.581473982E0,-3.490714073E0,-1.067899987E-1,1.624760985E0,3.851796607E0
2.586396461E0,-3.474627018E0,-1.286499947E-1,1.463222980E0,3.772347442E0
2.591318923E0,-3.500808001E0,-1.555600017E-1,1.317698002E0,3.743819386E0
2.596241309E0,-3.499557972E0,-2.014670074E-1,1.210284948E0,3.708407288E0
2.601163851E0,-3.576036930E0,-2.420849949E-1,1.146183014E0,3.763028139E0
2.606086237E0,-3.629473925E0,-3.176580071E-1,1.077805042E0,3.799427758E0
2.611008697E0,-3.722048998E0,-3.968819976E-1,1.000728011E0,3.874612318E0
2.615930934E0,-3.793826103E0,-4.843080044E-1,9.319149852E-1,3.936513214E0
2.620853316E0,-3.899800062E0,-6.395720243E-1,8.263970017E-1,4.037378469E0
2.625775788E0,-3.987301111E0,-8.099790215E-1,7.470239997E-1,4.136747638E0
2.630698249E0,-4.020388126E0,-1.004927039E0,6.702979803E-1,4.197939783E0
2.635620492E0,-4.013457775E0,-1.169293046E0,5.965890288E-1,4.222677824E0
2.640542952E0,-4.021563053E0,-1.317258000E0,4.879280031E-1,4.259837059E0
2.645465413E0,-4.004031181E0,-1.403213978E0,3.279399872E-1,4.255445900E0
2.650387804E0,-3.980009079E0,-1.434170961E0,1.938620061E-1,4.234961758E0
2.655310263E0,-3.999784946E0,-1.508054018E0,7.166399807E-2,4.275235931E0
2.660232496E0,-4.020291805E0,-1.567252040E0,-5.517699942E-2,4.315329612E0
2.665155186E0,-4.043996811E0,-1.618873000E0,-1.625940055E-1,4.359024754E0
2.670077650E0,-4.104508877E0,-1.701212049E0,-2.529270053E-1,4.450290735E0
2.674999881E0,-4.184057236E0,-1.735219002E0,-2.971670032E-1,4.539342261E0
2.679922340E0,-4.300536156E0,-1.786664009E0,-3.218809962E-1,4.668017447E0
2.684844727E0,-4.451561928E0,-1.843420029E0,-3.155449927E-1,4.828474877E0
2.689766958E0,-4.570242882E0,-1.903465986E0,-2.999309897E-1,4.959865054E0
2.694689427E0,-4.661431789E0,-2.002862930E0,-2.609600127E-1,5.080207316E0
2.699611814E0,-4.672646999E0,-2.139836073E0,-2.462220043E-1,5.145206864E0
2.704534273E0,-4.647057056E0,-2.300216913E0,-1.938419938E-1,5.188806400E0
2.709456511E0,-4.467698097E0,-2.475615025E0,-1.090919971E-1,5.108903708E0
2.714379202E0,-4.285360813E0,-2.653824091E0,2.187100053E-2,5.040593015E0
2.719301665E0,-4.021028042E0,-2.863591909E0,1.321499944E-1,4.938247539E0
2.724224136E0,-3.782289982E0,-3.066060066E0,2.408590019E-1,4.874879988E0
2.729146366E0,-3.585788012E0,-3.246490955E0,3.599910140E-1,4.850481699E0
2.734068826E0,-3.366859913E0,-3.412101984E0,4.304279983E-1,4.812842599E0
2.738991204E0,-3.142213106E0,-3.591458082E0,5.332360268E-1,4.801709594E0
2.743913663E0,-2.964345932E0,-3.788831949E0,6.184239984E-1,4.850262115E0
2.748835891E0,-2.770962000E0,-4.008958817E0,7.243180275E-1,4.926927826E0
2.753758274E0,-2.542922974E0,-4.225657940E0,8.390349746E-1,5.002661488E0
2.758680735E0,-2.227564096E0,-4.510916233E0,9.698039889E-1,5.123565833E0
2.763602968E0,-1.887101054E0,-4.802508831E0,1.112087011E0,5.278444750E0
2.768525446E0,-1.533401966E0,-5.083501816E0,1.270707965E0,5.459671330E0
2.773447833E0,-1.226194978E0,-5.351305008E0,1.388597012E0,5.662880987E0
2.778370370E0,-9.462199807E-1,-5.588994026E0,1.511059999E0,5.866471580E0
2.783292737E0,-6.982830167E-1,-5.753728867E0,1.659425974E0,6.028821577E0
2.788215197E0,-4.774680138E-1,-5.907563210E0,1.809499025E0,6.196899669E0
2.793137658E0,-2.190659940E-1,-6.074397087E0,2.006125927E0,6.400846125E0
2.798060120E0,6.500999629E-2,-6.184918880E0,2.137016058E0,6.544026703E0
2.802982353E0,2.523989975E-1,-6.238290787E0,2.213284016E0,6.624092642E0
2.807904807E0,3.772509992E-1,-6.262868881E0,2.277478933E0,6.674785033E0
2.812827194E0,4.205160141E-1,-6.280200005E0,2.322803974E0,6.709185056E0
2.817749406E0,4.324750006E-1,-6.266641140E0,2.327753067E0,6.698974559E0
2.822671865E0,4.730300009E-1,-6.282225132E0,2.294637918E0,6.704884277E0
2.827594355E0,5.733060241E-1,-6.257820129E0,2.218576908E0,6.664163568E0
2.832516741E0,6.831150055E-1,-6.219821930E0,2.113868952E0,6.604640255E0
2.837439201E0,9.079009891E-1,-6.125208855E0,1.985167027E0,6.502565328E0
2.842361439E0,1.140048027E0,-6.062538147E0,1.827476025E0,6.433797239E0
2.847283898E0,1.312672973E0,-6.029288769E0,1.662035942E0,6.390445748E0
2.852206360E0,1.387545943E0,-6.011250973E0,1.493448973E0,6.347504379E0
2.857128821E0,1.388627052E0,-5.991911888E0,1.343057036E0,6.295640982E0
2.862051283E0,1.459429979E0,-6.043653965E0,1.152961016E0,6.323370005E0
2.866973744E0,1.602278948E0,-6.083002090E0,9.968960285E-1,6.368988456E0
2.871896102E0,1.781262040E0,-6.131597042E0,8.336529732E-1,6.439282105E0
2.876818333E0,1.893422008E0,-6.021789074E0,7.030619979E-1,6.351479097E0
2.881740783E0,1.965059042E0,-5.839737892E0,5.347719789E-1,6.184656559E0
2.886663170E0,1.929031968E0,-5.633485794E0,2.970399857E-1,5.962009668E0
2.891585630E0,1.856974959E0,-5.432099819E0,8.031000197E-2,5.741298994E0
2.896508081E0,1.755803943E0,-5.257497787E0,-1.017529964E-1,5.543869059E0
2.901430314E0,1.711305022E0,-5.110233784E0,-2.737869918E-1,5.396110963E0
2.906352706E0,1.737534046E0,-5.002508163E0,-4.343059957E-1,5.313448427E0
2.911275168E0,1.759989977E0,-4.893753052E0,-5.961130261E-1,5.234666598E0
2.916197630E0,1.792804003E0,-4.760056019E0,-7.241309881E-1,5.137766556E0
2.921120091E0,1.893167973E0,-4.603975773E0,-8.357679844E-1,5.047691157E0
2.926042553E0,1.977085948E0,-4.399306774E0,-9.265720248E-1,4.911344486E0
2.930965014E0,2.094808102E0,-4.203536034E0,-9.606009722E-1,4.793817935E0
2.935887462E0,2.236659050E0,-4.026410103E0,-1.026386023E0,4.718907743E0
2.940809618E0,2.390675068E0,-3.875257969E0,-1.080432057E0,4.679774037E0
2.945732072E0,2.650337934E0,-3.745368004E0,-1.158113003E0,4.732155786E0
2.950654534E0,2.975147009E0,-3.588907003E0,-1.217900991E0,4.818198421E0
2.955576767E0,3.319871902E0,-3.384325027E0,-1.294855952E0,4.914453914E0
2.960499226E0,3.617654085E0,-3.052622080E0,-1.383654952E0,4.931574157E0
2.965421613E0,3.799318075E0,-2.653522968E0,-1.436094999E0,4.851635892E0
2.970344058E0,3.845844984E0,-2.175087929E0,-1.494992018E0,4.664389807E0
2.975266291E0,3.752357006E0,-1.689337015E0,-1.510272026E0,4.383487680E0
2.980188751E0,3.566525936E0,-1.194237947E0,-1.496389985E0,4.047900013E0
2.985111231E0,3.299940109E0,-6.999400258E-1,-1.410300970E0,3.656291781E0
2.990033693E0,3.014472008E0,-2.213850021E-1,-1.321238041E0,3.298745635E0
2.994956125E0,2.632994890E0,3.077859879E-1,-1.138007998E0,2.884866810E0
2.999878587E0,2.207556009E0,8.532680273E-1,-8.770040274E-1,2.523986118E0
3.004800944E0,1.754323006E0,1.368881941E0,-5.162810087E-1,2.284301437E0
3.009723404E0,1.339558005E0,1.808316946E0,-1.582880020E-1,2.255987792E0
3.014645866E0,9.435279965E-1,2.173362970E0,2.168689966E-1,2.379240182E0
3.019568035E0,5.920169950E-1,2.485105991E0,6.624420285E-1,2.639141025E0
3.024490495E0,2.656460106E-1,2.700329065E0,1.102553964E0,2.928817186E0
3.029412956E0,-3.596499935E-2,2.909795046E0,1.628664017E0,3.334778429E0
3.034335390E0,-3.203540146E-1,3.168426991E0,2.104620934E0,3.817196034E0
3.039257623E0,-5.423120260E-1,3.380363941E0,2.444644928E0,4.206810137E0
3.044180082E0,-7.641580105E-1,3.648643970E0,2.730930090E0,4.621095048E0
3.049102534E0,-9.066050053E-1,3.841943026E0,2.923918962E0,4.912408874E0
3.054024921E0,-1.034013033E0,3.986980915E0,3.048645020E0,5.124396181E0
3.058947380E0,-1.110183001E0,4.096138954E0,3.134723902E0,5.276111690E0
3.063869808E0,-1.151394963E0,4.162824154E0,3.139704943E0,5.339715575E0
3.068791963E0,-1.164464951E0,4.211365223E0,2.991581917E0,5.295388374E0
3.073714433E0,-1.146968961E0,4.246115208E0,2.715337038E0,5.168954187E0
3.078636895E0,-1.113600969E0,4.324422836E0,2.298352957E0,5.022267048E0
3.083559141E0,-9.616039991E-1,4.440870762E0,1.921921015E0,4.933537855E0
3.088481601E0,-8.760889769E-1,4.497814178E0,1.621881962E0,4.860901704E0
3.093403988E0,-7.108489871E-1,4.603250980E0,1.277240992E0,4.829758837E0
3.098326447E0,-5.399000049E-1,4.644929886E0,9.921439886E-1,4.780294484E0
3.103248909E0,-4.034990072E-1,4.637682915E0,6.600940228E-1,4.701769708E0
3.108171370E0,-3.105159998E-1,4.560625076E0,3.738589883E-1,4.586446535E0
3.113093818E0,-3.443279862E-1,4.418942928E0,4.226899892E-2,4.432539344E0
3.118016279E0,-3.993740082E-1,4.296613216E0,-3.989849985E-1,4.333540557E0
3.122938512E0,-5.161290169E-1,4.253696918E0,-7.385159731E-1,4.348072272E0
3.127860943E0,-7.136049867E-1,4.266366959E0,-1.019039035E0,4.444047666E0
3.132783329E0,-8.961070180E-1,4.229214191E0,-1.211817980E0,4.489739779E0
3.137705555E0,-1.061365962E0,4.225936890E0,-1.386337996E0,4.572414388E0
3.142628015E0,-1.187891006E0,4.191847801E0,-1.521322966E0,4.614877745E0
3.147550466E0,-1.342702985E0,4.138422012E0,-1.598135948E0,4.635021744E0
3.152472853E0,-1.453225970E0,4.081209183E0,-1.661527991E0,4.639914803E0
3.157395327E0,-1.500319004E0,3.981890917E0,-1.747733951E0,4.600107211E0
3.162317789E0,-1.432240963E0,3.904297113E0,-1.835916042E0,4.545925411E0
3.167240022E0,-1.318573952E0,3.810004950E0,-1.857907057E0,4.439210922E0
3.172162486E0,-1.149857044E0,3.715711117E0,-1.822080016E0,4.295189857E0
3.177084948E0,-1.004469037E0,3.593287945E0,-1.698503017E0,4.099462014E0
3.182007409E0,-8.917499781E-1,3.486080885E0,-1.492813945E0,3.895699094E0
3.186929762E0,-8.065649867E-1,3.389627934E0,-1.279124022E0,3.711641533E0
3.191851993E0,-7.511090040E-1,3.308881998E0,-1.061864972E0,3.555337119E0
3.196774457E0,-7.396500111E-1,3.255888939E0,-8.570629954E-1,3.447093254E0
3.201696844E0,-8.008480072E-1,3.233082056E0,-6.638829708E-1,3.396309425E0
3.206619307E0,-8.583970070E-1,3.240149975E0,-5.028650165E-1,3.389438081E0
3.211541769E0,-8.906930089E-1,3.212459087E0,-4.394400120E-1,3.362489397E0
3.216464236E0,-8.409619927E-1,3.180488110E0,-4.315910041E-1,3.317980181E0
3.221386468E0,-7.453830242E-1,3.143987894E0,-4.546610117E-1,3.262969869E0
3.226308928E0,-6.111959815E-1,3.088540077E0,-4.916389883E-1,3.186588965E0
3.231231319E0,-4.051089883E-1,3.006763935E0,-5.355510116E-1,3.080837149E0
3.236153779E0,-2.012320012E-1,2.934664965E0,-6.148679852E-1,3.005131513E0
3.241076241E0,-1.150699984E-2,2.884243965E0,-6.987500191E-1,2.967700667E0
3.245998702E0,2.380309999E-1,2.840931892E0,-7.074440122E-1,2.937350814E0
3.250920935E0,4.568650126E-1,2.742917061E0,-6.804509759E-1,2.862749233E0
3.255843342E0,6.619579792E-1,2.621530056E0,-5.974619985E-1,2.769037566E0
3.260765803E0,8.847240210E-1,2.450701952E0,-5.187029839E-1,2.656638748E0
3.265688036E0,1.091899037E0,2.254605055E0,-4.585619867E-1,2.546716819E0
3.270610485E0,1.280869007E0,2.090487003E0,-4.286749959E-1,2.488879984E0
3.275532947E0,1.432538033E0,1.924875021E0,-3.834710121E-1,2.429888697E0
3.280455344E0,1.577731967E0,1.798190951E0,-3.630920053E-1,2.419620768E0
3.285377803E0,1.673308015E0,1.691225052E0,-3.362050056E-1,2.402755854E0
3.290300265E0,1.731292009E0,1.560922027E0,-2.955789864E-1,2.349726906E0
3.295222497E0,1.846910000E0,1.452286005E0,-2.889069915E-1,2.367208997E0
3.300144957E0,1.941171050E0,1.295910954E0,-2.255019993E-1,2.344862768E0
3.305067419E0,2.040293932E0,1.129992008E0,-1.651149988E-1,2.338149745E0
3.309989885E0,2.124870062E0,9.686650038E-1,-1.765969992E-1,2.341916132E0
3.314912347E0,2.192301035E0,8.213310242E-1,-2.262669951E-1,2.352013017E0
3.319834733E0,2.227972031E0,6.997560263E-1,-2.830550075E-1,2.352368594E0
3.324757197E0,2.286648989E0,5.629839897E-1,-3.255920112E-1,2.377335636E0
3.329679658E0,2.401395082E0,4.249959886E-1,-3.703590035E-1,2.466675034E0
3.334601834E0,2.550534010E0,2.545650005E-1,-4.147410095E-1,2.596543314E0
3.339524294E0,2.726676941E0,8.504199982E-2,-4.537819922E-1,2.765486825E0
3.344446527E0,2.939162016E0,-6.700100005E-2,-4.375039935E-1,2.972300832E0
3.349369231E0,3.120951891E0,-1.847880036E-1,-3.734839857E-1,3.148646947E0
3.354291694E0,3.322487116E0,-3.232469857E-1,-2.691479921E-1,3.349007299E0
3.359213925E0,3.491174936E0,-4.128710032E-1,-1.342650056E-1,3.518066513E0
3.364136385E0,3.612792015E0,-5.157880187E-1,4.276100174E-2,3.649675592E0
3.369058846E0,3.673074007E0,-5.720540285E-1,2.472269982E-1,3.725565683E0
3.373981233E0,3.748501062E0,-6.296749711E-1,4.741370082E-1,3.830477344E0
3.378903674E0,3.817570925E0,-7.006030083E-1,6.353780031E-1,3.932988374E0
3.383826135E0,3.822848082E0,-7.345439792E-1,8.242629766E-1,3.979086801E0
3.388748305E0,3.764352083E0,-7.602249980E-1,1.069336057E0,3.986448075E0
3.393670764E0,3.629900932E0,-8.838089705E-1,1.241989017E0,3.936983082E0
3.398593217E0,3.471398115E0,-1.000494957E0,1.382135987E0,3.868060873E0
3.403515450E0,3.362282038E0,-1.091833949E0,1.407415986E0,3.804978532E0
3.408437909E0,3.294884920E0,-1.155871987E0,1.350000024E0,3.743635499E0
3.413360305E0,3.237934113E0,-1.214297056E0,1.262850046E0,3.681511225E0
3.418282765E0,3.134272099E0,-1.254886985E0,1.091933966E0,3.548340840E0
3.423205226E0,3.017910957E0,-1.344257951E0,9.158160090E-1,3.428342886E0
3.428127464E0,2.953051090E0,-1.464285016E0,7.038159966E-1,3.370459658E0
3.433050154E0,2.989082098E0,-1.627043009E0,4.107429981E-1,3.427913440E0
3.437972618E0,3.066092014E0,-1.806293964E0,7.974799722E-2,3.559491237E0
3.442894835E0,3.107964039E0,-1.996827006E0,-2.578540146E-1,3.703140188E0
3.447817217E0,3.141186953E0,-2.160226107E0,-5.207419991E-1,3.847701201E0
3.452739445E0,3.177763939E0,-2.308465004E0,-7.870489955E-1,4.005825813E0
3.457661904E0,3.203404903E0,-2.455852032E0,-1.077049971E0,4.177684624E0
3.462584366E0,3.230120897E0,-2.578428984E0,-1.322932959E0,4.339600056E0
3.467506753E0,3.250776052E0,-2.692944050E0,-1.545256019E0,4.495254026E0
3.472429212E0,3.212894917E0,-2.789670944E0,-1.641052008E0,4.560483463E0
3.477351445E0,3.271972895E0,-2.928663969E0,-1.663079977E0,4.695605848E0
3.482273919E0,3.318022966E0,-3.097866058E0,-1.666079998E0,4.835480646E0
3.487196305E0,3.413022995E0,-3.163557053E0,-1.618852973E0,4.927220732E0
3.492118842E0,3.475656033E0,-3.161669016E0,-1.516742945E0,4.937291260E0
3.497041291E0,3.435343981E0,-3.052685022E0,-1.328273058E0,4.783804284E0
3.501963753E0,3.295901060E0,-2.938204050E0,-1.048825026E0,4.538286105E0
3.506886214E0,2.999880075E0,-2.784792900E0,-6.982949972E-1,4.152344864E0
3.511808353E0,2.690823078E0,-2.628604889E0,-3.057850003E-1,3.774069020E0
3.516730813E0,2.428464890E0,-2.501024008E0,9.489999712E-2,3.487344092E0
3.521653189E0,2.114654064E0,-2.380611897E0,5.514529943E-1,3.231590200E0
3.526575649E0,1.847481012E0,-2.284367085E0,9.703220129E-1,3.094033593E0
3.531497887E0,1.605386019E0,-2.145401001E0,1.367949963E0,3.008537323E0
3.536420346E0,1.381243944E0,-1.951828957E0,1.708027959E0,2.938508230E0
3.541342808E0,1.165577054E0,-1.741986036E0,2.002115011E0,2.898542692E0
3.546265184E0,9.608730078E-1,-1.563768983E0,2.261548996E0,2.912602656E0
3.551187644E0,7.432720065E-1,-1.426766038E0,2.481066942E0,2.956993029E0
3.556110106E0,5.536100268E-1,-1.335680962E0,2.650396109E0,3.019126898E0
3.561032567E0,3.608269989E-1,-1.280897021E0,2.732695103E0,3.039492692E0
3.565955029E0,2.008389980E-1,-1.188156962E0,2.757879972E0,3.009643702E0
3.570877261E0,9.998399764E-2,-1.090922952E0,2.736772060E0,2.947885852E0
3.575799592E0,1.290300023E-2,-9.721810222E-1,2.598968983E0,2.774876970E0
3.580722054E0,-9.381800145E-2,-8.604609966E-1,2.451570034E0,2.599882800E0
3.585644295E0,-2.032780051E-1,-7.243390083E-1,2.293838024E0,2.414059201E0
3.590566986E0,-3.441579938E-1,-6.211490035E-1,2.103816986E0,2.220431652E0
3.595489142E0,-5.211070180E-1,-5.506389737E-1,1.972223043E0,2.112917305E0
3.600411601E0,-7.150149941E-1,-4.769339859E-1,1.853301048E0,2.042899225E0
3.605334063E0,-9.449989796E-1,-4.071959853E-1,1.768605947E0,2.046166816E0
3.610256552E0,-1.158298016E0,-3.557569981E-1,1.730389953E0,2.112455141E0
3.615178785E0,-1.340510011E0,-3.418200016E-1,1.681316018E0,2.177299142E0
3.620101475E0,-1.560979962E0,-3.007889986E-1,1.645871043E0,2.288235992E0
3.625023713E0,-1.797945976E0,-2.588500082E-1,1.598243952E0,2.419503418E0
3.629946173E0,-2.053699017E0,-2.064750046E-1,1.553359032E0,2.583260703E0
3.634868559E0,-2.337709904E0,-2.060050070E-1,1.461781979E0,2.764802382E0
3.639790991E0,-2.628359079E0,-1.905349940E-1,1.400784016E0,2.984421366E0
3.644713452E0,-2.932795048E0,-2.416619956E-1,1.306372046E0,3.219673157E0
3.649635680E0,-3.174386024E0,-3.596619964E-1,1.224720955E0,3.421406845E0
3.654558063E0,-3.319659948E0,-5.065450072E-1,1.160881996E0,3.553079935E0
3.659480524E0,-3.363668919E0,-6.726800203E-1,1.053007960E0,3.588257623E0
3.664402762E0,-3.332552910E0,-8.148040175E-1,8.775820136E-1,3.541181254E0
3.669325452E0,-3.312272072E0,-9.134579897E-1,6.637560129E-1,3.499446216E0
3.674247916E0,-3.295371056E0,-1.013669014E0,5.339189768E-1,3.488848626E0
3.679170060E0,-3.298388958E0,-1.122207046E0,3.735849857E-1,3.504038258E0
3.684092596E0,-3.330766916E0,-1.214851022E0,2.309090048E-1,3.552912921E0
3.689015058E0,-3.354063034E0,-1.317564964E0,1.108269989E-1,3.605273761E0
3.693937435E0,-3.365767002E0,-1.434770942E0,3.786999965E-3,3.658820781E0
3.698859895E0,-3.380201101E0,-1.561424017E0,-5.432900041E-2,3.723809351E0
3.703782046E0,-3.414066076E0,-1.685220003E0,-1.330700070E-1,3.809661568E0
3.708704582E0,-3.469716072E0,-1.844141960E0,-2.132689953E-1,3.935133143E0
3.713626973E0,-3.575844049E0,-1.954056978E0,-2.517899871E-1,4.082694887E0
3.718549204E0,-3.734883070E0,-2.072307110E0,-2.843619883E-1,4.280732419E0
3.723471586E0,-3.901376963E0,-2.189163923E0,-2.987349927E-1,4.483572625E0
3.728394361E0,-4.037109852E0,-2.328663111E0,-2.994059920E-1,4.670178989E0
3.733316516E0,-4.213969231E0,-2.478749037E0,-2.646540105E-1,4.896097958E0
3.738238981E0,-4.367397785E0,-2.594010115E0,-1.705619991E-1,5.082533156E0
3.743161443E0,-4.507116795E0,-2.665146112E0,-1.299249977E-1,5.237746281E0
3.748083904E0,-4.575745106E0,-2.694689989E0,-1.283310056E-1,5.311804426E0
3.753006161E0,-4.647525787E0,-2.751976013E0,-1.390790045E-1,5.402981667E0
3.757928620E0,-4.686614990E0,-2.863426924E0,-1.142190024E-1,5.493325022E0
3.762851082E0,-4.702610016E0,-2.988204002E0,-5.619499832E-2,5.571989052E0
3.767773454E0,-4.731444836E0,-3.169179916E0,3.252999857E-2,5.694851164E0
3.772695684E0,-4.722874165E0,-3.372643948E0,1.036719978E-1,5.804396218E0
3.777618087E0,-4.676953793E0,-3.608109951E0,1.306560040E-1,5.908419855E0
3.782540626E0,-4.507528782E0,-3.865784883E0,1.993339956E-1,5.941535368E0
3.787463016E0,-4.284046173E0,-4.145188808E0,2.090000063E-1,5.964840557E0
3.792385476E0,-4.114271164E0,-4.448090076E0,2.383510023E-1,6.063789553E0
3.797307708E0,-3.907274961E0,-4.785906792E0,2.918420136E-1,6.185214079E0
3.802230168E0,-3.701438904E0,-5.098317146E0,4.168989956E-1,6.314055151E0
3.807152630E0,-3.463347912E0,-5.468687057E0,5.386019945E-1,6.495491436E0
3.812075091E0,-3.195472956E0,-5.817243099E0,5.944319963E-1,6.663686223E0
3.816997549E0,-2.981725931E0,-6.146008015E0,5.987679958E-1,6.857304657E0
3.821919935E0,-2.810244083E0,-6.440071106E0,5.969660282E-1,7.051833527E0
3.826842395E0,-2.671566963E0,-6.720614910E0,5.890110135E-1,7.256091839E0
3.831764608E0,-2.544769049E0,-6.889225960E0,6.104000211E-1,7.369523188E0
3.836686990E0,-2.417722940E0,-7.084259987E0,6.327109933E-1,7.512153285E0
3.841609467E0,-2.307159901E0,-7.274400234E0,7.081289887E-1,7.664289415E0
3.846531700E0,-2.196279049E0,-7.447669029E0,7.979459763E-1,7.805647533E0
3.851454188E0,-2.113733053E0,-7.603966236E0,8.710929751E-1,7.940212397E0
3.856376650E0,-2.009166002E0,-7.724396229E0,9.232429862E-1,8.034638930E0
3.861299036E0,-1.882488012E0,-7.790192127E0,9.763309956E-1,8.073665630E0
3.866221476E0,-1.719221950E0,-7.870738983E0,9.812759757E-1,8.115858475E0
3.871143937E0,-1.554175019E0,-7.999382973E0,9.847880006E-1,8.208251662E0
3.876066170E0,-1.381482005E0,-8.084677696E0,9.702259898E-1,8.259046219E0
3.880988856E0,-1.177188039E0,-8.176786423E0,9.073089957E-1,8.310765157E0
3.885911088E0,-1.008293986E0,-8.227593422E0,7.942690253E-1,8.327113159E0
3.890833548E0,-8.579869866E-1,-8.248853683E0,6.674469709E-1,8.320169122E0
3.895755949E0,-7.525299788E-1,-8.226117134E0,4.816139936E-1,8.274494336E0
3.900678180E0,-7.038050294E-1,-8.173723221E0,2.895700037E-1,8.209076903E0
3.905600645E0,-6.398940086E-1,-8.108658791E0,1.225520000E-1,8.134791375E0
3.910523106E0,-5.702409744E-1,-8.028592110E0,-5.277600139E-2,8.048990703E0
3.915445497E0,-5.210459828E-1,-7.962427139E0,-1.835969985E-1,7.981568939E0
3.920367957E0,-5.017160177E-1,-7.847980976E0,-2.937639952E-1,7.869486746E0
3.925290418E0,-5.168759823E-1,-7.735834122E0,-4.333269894E-1,7.765182716E0
3.930212651E0,-5.496140122E-1,-7.636106014E0,-5.612879992E-1,7.676407678E0
3.935135110E0,-5.450680256E-1,-7.547371864E0,-6.419500113E-1,7.594209704E0
3.940057572E0,-4.597249925E-1,-7.484366894E0,-7.468450069E-1,7.535573789E0
3.944980034E0,-3.963890076E-1,-7.373346806E0,-8.280329704E-1,7.430276304E0
3.949902495E0,-3.572939932E-1,-7.231427193E0,-9.191330075E-1,7.298356235E0
3.954824863E0,-3.662709892E-1,-7.102218151E0,-9.991599917E-1,7.181502475E0
3.959747093E0,-4.759230018E-1,-6.998418808E0,-1.104467034E0,7.101001052E0
3.964669784E0,-5.809280276E-1,-6.966446877E0,-1.151857972E0,7.084887878E0
3.969591945E0,-6.885790229E-1,-6.964320183E0,-1.168498993E0,7.095159376E0
3.974514404E0,-7.415850163E-1,-7.019306183E0,-1.126903057E0,7.147763155E0
3.979436637E0,-7.449259758E-1,-7.120155811E0,-1.080979943E0,7.240169275E0
3.984359351E0,-6.724860072E-1,-7.236411095E0,-1.017240047E0,7.338437182E0
3.989281584E0,-5.334219933E-1,-7.378211021E0,-8.690050244E-1,7.448335830E0
3.994203972E0,-2.637900114E-1,-7.593400002E0,-7.593110204E-1,7.635827524E0
3.999126433E0,6.454700232E-2,-7.817131042E0,-7.195039988E-1,7.850438845E0
4.004048895E0,4.013499916E-1,-8.087447166E0,-7.131239772E-1,8.128740941E0
4.008971370E0,8.041639924E-1,-8.363408089E0,-7.395020127E-1,8.434461323E0
4.013893603E0,1.294708014E0,-8.594182968E0,-7.695249915E-1,8.725160081E0
4.018816063E0,1.808604002E0,-8.731161118E0,-8.772460222E-1,8.959563800E0
4.023738439E0,2.334244967E0,-8.792606354E0,-1.036103010E0,9.155989051E0
4.028660670E0,2.805025101E0,-8.717796326E0,-1.236153007E0,9.241007134E0
4.033583116E0,3.218946934E0,-8.510815620E0,-1.369586945E0,9.201704749E0
4.038505577E0,3.550054073E0,-8.173439980E0,-1.513337970E0,9.038705484E0
4.043427964E0,3.803479910E0,-7.709942818E0,-1.644098997E0,8.752870340E0
4.048350423E0,3.892687082E0,-7.130959988E0,-1.695660949E0,8.299329438E0
4.053272885E0,3.887878895E0,-6.494965076E0,-1.673189998E0,7.752402106E0
4.058195108E0,3.746022940E0,-5.905182838E0,-1.546129942E0,7.162010194E0
4.063117567E0,3.507726908E0,-5.278404236E0,-1.372449040E0,6.484544371E0
4.068040029E0,3.266155005E0,-4.665750980E0,-1.078076005E0,5.796485883E0
4.072962524E0,2.978044987E0,-4.089502811E0,-7.898030281E-1,5.120212301E0
4.077884986E0,2.707707882E0,-3.565047026E0,-4.808939993E-1,4.502499451E0
4.082807373E0,2.466766119E0,-3.074141026E0,-2.012339979E-1,3.946615417E0
4.087729631E0,2.190247059E0,-2.615125895E0,1.140979975E-1,3.413075443E0
4.092652091E0,1.923192978E0,-2.140894890E0,4.291740060E-1,2.909689414E0
4.097574467E0,1.617143035E0,-1.673732996E0,7.172150016E-1,2.435350302E0
4.102496927E0,1.352967024E0,-1.166371942E0,9.587069750E-1,2.027328868E0
4.107419165E0,1.091807961E0,-6.720730066E-1,1.115246058E0,1.699264700E0
4.112341624E0,8.452219963E-1,-2.007469982E-1,1.236989975E0,1.511569971E0
4.117264086E0,6.080430150E-1,2.425059974E-1,1.314589024E0,1.468560441E0
4.122186557E0,4.016279876E-1,6.360620260E-1,1.374853969E0,1.567196024E0
4.127109019E0,1.826370060E-1,1.022891998E0,1.413419008E0,1.754256996E0
4.132031486E0,-2.285199985E-2,1.295122027E0,1.428333044E0,1.928211234E0
4.136953872E0,-1.910769939E-1,1.615592003E0,1.474807978E0,2.195838452E0
4.141876332E0,-2.959159911E-1,1.859779000E0,1.500386953E0,2.407800908E0
4.146798774E0,-3.546499908E-1,2.137597084E0,1.487710953E0,2.628380069E0
4.151720930E0,-3.668789864E-1,2.317886114E0,1.428233981E0,2.747189206E0
4.156643390E0,-3.733269870E-1,2.532504082E0,1.353274941E0,2.895566098E0
4.161565851E0,-3.164649904E-1,2.736192942E0,1.248707056E0,3.024263748E0
4.166488079E0,-2.560800016E-1,2.907655001E0,1.205561042E0,3.158070930E0
4.171410539E0,-1.154780015E-1,3.063868046E0,1.156880975E0,3.277040763E0
4.176333000E0,-2.857100032E-2,3.147663116E0,1.150727987E0,3.351533126E0
4.181255387E0,2.392599918E-2,3.283767939E0,1.134560943E0,3.474324806E0
4.186177618E0,4.203499854E-2,3.438786030E0,1.146795034E0,3.625211049E0
4.191100318E0,2.336700074E-2,3.598438978E0,1.175693989E0,3.785705410E0
4.196022551E0,-8.240999654E-3,3.707653999E0,1.216577053E0,3.902156560E0
4.200945010E0,-6.006100029E-2,3.828691006E0,1.279315948E0,4.037218280E0
4.205867438E0,-5.559099838E-2,3.935199022E0,1.383286953E0,4.171614136E0
4.210789899E0,-6.442900002E-2,4.003180981E0,1.500162959E0,4.275523122E0
4.215712286E0,-1.484700013E-2,4.051787853E0,1.601737022E0,4.356921703E0
4.220634527E0,3.083799966E-2,4.042756081E0,1.717087984E0,4.392404678E0
4.225556909E0,1.229629964E-1,3.997752905E0,1.851513982E0,4.407408787E0
4.230479472E0,3.021610081E-1,3.924010992E0,1.955008030E0,4.394453315E0
4.235401858E0,4.920080006E-1,3.828943968E0,1.982401967E0,4.339677562E0
4.240324089E0,7.646039724E-1,3.760699987E0,1.962864041E0,4.310489401E0
4.245246549E0,1.060351014E0,3.688410997E0,1.901368976E0,4.282980731E0
4.250168935E0,1.329342008E0,3.605215073E0,1.821789026E0,4.252486467E0
4.255091395E0,1.603036046E0,3.494635105E0,1.704892993E0,4.205812549E0
4.260013938E0,1.857769966E0,3.383227110E0,1.540933013E0,4.155960716E0
4.264936325E0,2.117795944E0,3.302362919E0,1.327023983E0,4.141455440E0
4.269858785E0,2.390501022E0,3.204303980E0,1.053133965E0,4.134144444E0
4.274781236E0,2.740638971E0,3.156193018E0,8.047410250E-1,4.256790394E0
4.279703469E0,3.125416994E0,3.052891970E0,5.523880124E-1,4.403806681E0
4.284625928E0,3.523736954E0,2.971303940E0,2.689870000E-1,4.617112001E0
4.289548305E0,3.868858099E0,2.942725897E0,2.092700079E-2,4.860878175E0
4.294470536E0,4.108467102E0,2.993704081E0,-1.686940044E-1,5.086277983E0
4.299393226E0,4.295245171E0,3.081123114E0,-3.127110004E-1,5.295303474E0
4.304315387E0,4.448288918E0,3.171395063E0,-4.093300104E-1,5.478373116E0
4.309237924E0,4.562738895E0,3.242888927E0,-4.614070058E-1,5.616743830E0
4.314160320E0,4.674318790E0,3.338530064E0,-5.265470147E-1,5.768213840E0
4.319082780E0,4.739802837E0,3.472559929E0,-4.636200070E-1,5.894009409E0
4.324005241E0,4.864224911E0,3.678252935E0,-4.257110059E-1,6.113219978E0
4.328927469E0,4.965994835E0,3.909964085E0,-4.150309861E-1,6.334127767E0
4.333849929E0,5.035268784E0,4.150730133E0,-4.312910140E-1,6.539763321E0
4.338772390E0,5.088440895E0,4.323698997E0,-4.884389937E-1,6.695160671E0
4.343694526E0,5.108203888E0,4.454916954E0,-5.598379970E-1,6.800988944E0
4.348616986E0,5.113272190E0,4.544165134E0,-6.548029780E-1,6.871954322E0
4.353539456E0,5.052805901E0,4.579230785E0,-7.731819749E-1,6.862799168E0
4.358461843E0,5.000339031E0,4.559842110E0,-8.763729930E-1,6.823751176E0
4.363384317E0,4.986508846E0,4.509786129E0,-1.014330029E0,6.799434301E0
4.368306779E0,5.041729927E0,4.373763084E0,-1.193999052E0,6.780448209E0
4.373229012E0,5.158351898E0,4.182804108E0,-1.422286987E0,6.791711477E0
4.378151471E0,5.340892792E0,3.999151945E0,-1.615497947E0,6.864997138E0
4.383073933E0,5.514859200E0,3.810832977E0,-1.833526969E0,6.949672015E0
4.387996394E0,5.691940784E0,3.632206917E0,-2.067014933E0,7.061421083E0
4.392918836E0,5.891063213E0,3.456099987E0,-2.239234924E0,7.187727454E0
4.397841222E0,6.131152153E0,3.220272064E0,-2.383869886E0,7.324207433E0
4.402763682E0,6.405013084E0,2.996633053E0,-2.505656958E0,7.502154294E0
4.407685814E0,6.624707222E0,2.789330959E0,-2.601701021E0,7.644341776E0
4.412608350E0,6.784465790E0,2.673634052E0,-2.619824886E0,7.748598424E0
4.417530766E0,6.941571236E0,2.546492100E0,-2.548405886E0,7.820767596E0
4.422453225E0,7.086380005E0,2.450958967E0,-2.454149961E0,7.889666246E0
4.427375453E0,7.192265987E0,2.418031931E0,-2.417511940E0,7.963663255E0
4.432297913E0,7.299451828E0,2.452306032E0,-2.399518967E0,8.065574570E0
4.437220374E0,7.340920925E0,2.481906891E0,-2.335365057E0,8.093386917E0
4.442142766E0,7.278188229E0,2.556967974E0,-2.174896002E0,8.015003539E0
4.447064997E0,7.080142021E0,2.619950056E0,-1.939630032E0,7.794531031E0
4.451987687E0,6.777557850E0,2.680161953E0,-1.589604974E0,7.459584605E0
4.456910156E0,6.396471977E0,2.761264086E0,-1.161339045E0,7.063153792E0
4.461832386E0,6.005916119E0,2.815038919E0,-7.389339805E-1,6.673941562E0
4.466754846E0,5.641366959E0,2.850689888E0,-3.630320132E-1,6.331133093E0
4.471676987E0,5.216482162E0,2.906181097E0,9.481900185E-2,5.972149141E0
4.476599446E0,4.867764950E0,2.883106947E0,4.842120111E-1,5.678195360E0
4.481521899E0,4.604350090E0,2.862432957E0,7.629870176E-1,5.475007888E0
4.486444360E0,4.451252937E0,2.781954050E0,1.005601048E0,5.344544369E0
4.491366822E0,4.370371819E0,2.648845911E0,1.185047030E0,5.246033831E0
4.496289213E0,4.376772881E0,2.384123087E0,1.286543012E0,5.147365993E0
4.501211672E0,4.502431870E0,2.002250910E0,1.302703023E0,5.096855561E0
4.506133905E0,4.710134983E0,1.565726042E0,1.288575053E0,5.128088851E0
4.511056370E0,4.948412895E0,1.151502013E0,1.210706949E0,5.222887935E0
4.515978831E0,5.213502884E0,6.784890294E-1,9.641259909E-1,5.345137848E0
4.520901293E0,5.472959995E0,1.877669990E-1,5.993520021E-1,5.508881046E0
4.525823660E0,5.684556007E0,-3.682149947E-1,2.532700002E-1,5.702096542E0
4.530746120E0,5.882738113E0,-9.411640167E-1,1.032610014E-1,5.958444449E0
4.535668348E0,6.144784927E0,-1.554687023E0,-9.429699928E-2,6.339110779E0
4.540590730E0,6.352693081E0,-2.100008011E0,-2.764430046E-1,6.696503846E0
4.545513201E0,6.503334999E0,-2.618182898E0,-4.781419933E-1,7.026867550E0
4.550435434E0,6.498783112E0,-3.063528061E0,-7.607910037E-1,7.224831421E0
4.555357893E0,6.348478794E0,-3.426522017E0,-1.032817006E0,7.287725784E0
4.560280379E0,6.171864986E0,-3.709764957E0,-1.308148026E0,7.318847225E0
4.565202840E0,5.975755215E0,-3.899226904E0,-1.524482012E0,7.296414615E0
4.570125227E0,5.707019806E0,-4.014541149E0,-1.643563986E0,7.168536690E0
4.575047672E0,5.511326790E0,-4.041803837E0,-1.651039958E0,7.031133208E0
4.579970134E0,5.223328114E0,-4.029245853E0,-1.542029977E0,6.774646498E0
4.584892595E0,4.773173809E0,-4.042130947E0,-1.271149993E0,6.382619612E0
4.589814838E0,4.275503159E0,-4.049929142E0,-9.010229707E-1,5.957658576E0
4.594737298E0,3.804385900E0,-4.038838863E0,-5.542219877E-1,5.576085854E0
4.599659759E0,3.335798025E0,-4.018962860E0,-1.830790043E-1,5.226196404E0
4.604581924E0,2.857815027E0,-3.935698032E0,1.810159981E-1,4.867195550E0
4.609504384E0,2.507005930E0,-3.801476955E0,4.851750135E-1,4.579486933E0
4.614426845E0,2.185488939E0,-3.712395906E0,7.410969734E-1,4.371209214E0
4.619349322E0,1.877009988E0,-3.639837980E0,9.862740040E-1,4.212401148E0
4.624271783E0,1.555814981E0,-3.579015970E0,1.164607048E0,4.072618954E0
4.629193939E0,1.291931033E0,-3.544188976E0,1.320013046E0,3.996598020E0
4.634116408E0,1.033118010E0,-3.516164064E0,1.362087965E0,3.909734796E0
4.639039100E0,7.966769934E-1,-3.475493908E0,1.365584016E0,3.818189602E0
4.643961333E0,5.519480109E-1,-3.457762003E0,1.386289001E0,3.765974226E0
4.648883778E0,2.465270013E-1,-3.465176105E0,1.394379973E0,3.743329603E0
4.653806240E0,2.849999873E-4,-3.557482004E0,1.366871953E0,3.811038865E0
4.658728627E0,-5.482099950E-2,-3.746344090E0,1.312134027E0,3.969860840E0
4.663650842E0,3.844000027E-2,-3.940391064E0,1.141211987E0,4.102502184E0
4.668573302E0,2.997980118E-1,-4.071849823E0,8.782169819E-1,4.176254889E0
4.673495679E0,5.193399787E-1,-4.084489822E0,6.314370036E-1,4.165511231E0
4.678418138E0,6.138619781E-1,-4.070643902E0,4.394170046E-1,4.140055025E0
4.683340600E0,5.502430201E-1,-4.007892132E0,3.431270123E-1,4.060012668E0
4.688262843E0,3.526520133E-1,-3.953036070E0,3.259609938E-1,3.982098465E0
4.693185302E0,-7.643000223E-3,-3.968013048E0,3.663789928E-1,3.984898936E0
4.698107689E0,-3.439640105E-1,-3.961741924E0,4.742439985E-1,4.004824301E0
4.703030153E0,-5.677970052E-1,-3.946151018E0,5.877010226E-1,4.029875158E0
4.707952615E0,-6.982330084E-1,-3.916147947E0,7.264840007E-1,4.043701656E0
4.712875076E0,-8.189299703E-1,-3.883236885E0,8.963490129E-1,4.068613591E0
4.717797519E0,-9.370070100E-1,-3.940382004E0,1.112422943E0,4.200247288E0
4.722719980E0,-1.069185972E0,-4.048810005E0,1.365540981E0,4.404625214E0
4.727642136E0,-1.148427963E0,-4.217607021E0,1.591377020E0,4.651835830E0
4.732564581E0,-1.272968054E0,-4.436892986E0,1.728292942E0,4.928839978E0
4.737486814E0,-1.481186986E0,-4.716015816E0,1.767678976E0,5.249705613E0
4.742409268E0,-1.675096989E0,-5.064569950E0,1.758221984E0,5.616686144E0
4.747331655E0,-1.852465987E0,-5.393899918E0,1.709962010E0,5.953969821E0
4.752254124E0,-1.898563981E0,-5.670551777E0,1.616073012E0,6.194464838E0
4.757176586E0,-1.873373032E0,-5.867905140E0,1.457690001E0,6.329826015E0
4.762098819E0,-1.856014013E0,-6.011704922E0,1.280313015E0,6.420637468E0
4.767021313E0,-1.870555997E0,-6.096487999E0,1.069545984E0,6.466071007E0
4.771943775E0,-1.957893968E0,-6.195947170E0,8.299509883E-1,6.550719714E0
4.776866236E0,-2.146970987E0,-6.247379780E0,6.331430078E-1,6.636272192E0
4.781788678E0,-2.457230091E0,-6.265240192E0,4.571650028E-1,6.745384661E0
4.786711065E0,-2.788364887E0,-6.261606216E0,3.136979938E-1,6.861566700E0
4.791633290E0,-3.131045103E0,-6.263111115E0,1.305979937E-1,7.003360629E0
4.796555750E0,-3.526181936E0,-6.236674786E0,-4.385999963E-2,7.164635031E0
4.801478112E0,-3.875787973E0,-6.244977951E0,-1.515219957E-1,7.351492429E0
4.806400572E0,-4.251855850E0,-6.252674103E0,-2.205370069E-1,7.564578520E0
4.811323034E0,-4.537209034E0,-6.252202988E0,-2.527770102E-1,7.729178755E0
4.816245271E0,-4.820627213E0,-6.249607086E0,-2.741680145E-1,7.897544147E0
4.821167731E0,-5.066287041E0,-6.307600975E0,-2.770279944E-1,8.095050275E0
4.826090118E0,-5.288624763E0,-6.400232792E0,-2.228810042E-1,8.305552819E0
4.831012577E0,-5.466138840E0,-6.558967113E0,-1.905339956E-1,8.540200619E0
4.835935116E0,-5.531835079E0,-6.741003990E0,-1.080140024E-1,8.720894516E0
4.840857488E0,-5.521660805E0,-6.900903225E0,-2.782700025E-2,8.838098082E0
4.845779948E0,-5.411733150E0,-7.074347019E0,7.860200107E-2,8.907267803E0
4.850702181E0,-5.252433777E0,-7.330142975E0,2.133180052E-1,9.020230661E0
4.855624568E0,-5.082204819E0,-7.550312042E0,2.609870136E-1,9.105170618E0
4.860547030E0,-4.920369148E0,-7.803552151E0,2.788029909E-1,9.229473974E0
4.865469276E0,-4.752755165E0,-8.043712616E0,3.144769967E-1,9.348202506E0
4.870391736E0,-4.536485195E0,-8.306129456E0,2.767750025E-1,9.468267469E0
4.875314198E0,-4.329267025E0,-8.570935249E0,2.062440068E-1,9.604479195E0
4.880236570E0,-4.143342018E0,-8.803977966E0,1.242239997E-1,9.731019613E0
4.885159030E0,-3.983766079E0,-8.999959946E0,3.777800128E-2,9.842311638E0
4.890081491E0,-3.853159904E0,-9.211211205E0,6.444000173E-3,9.984652955E0
4.895003723E0,-3.792473078E0,-9.387052536E0,-1.568200067E-2,1.012422112E1
4.899926413E0,-3.742054939E0,-9.577557564E0,1.671900041E-2,1.028264867E1
4.904848646E0,-3.706870079E0,-9.770683289E0,5.565499887E-2,1.045037010E1
4.909771106E0,-3.638281107E0,-9.925645828E0,9.258700162E-2,1.057185447E1
4.914693492E0,-3.540049076E0,-1.005411243E1,1.242289990E-1,1.065985728E1
4.919615733E0,-3.400228977E0,-1.017028522E1,1.371439993E-1,1.072450778E1
4.924538193E0,-3.271467924E0,-1.020218945E1,1.749040037E-1,1.071530509E1
4.929460895E0,-3.086687088E0,-1.023109913E1,2.260140032E-1,1.068897137E1
4.934383128E0,-2.855405092E0,-1.026392078E1,3.025940061E-1,1.065800034E1
4.939305587E0,-2.594340086E0,-1.028113174E1,3.690499961E-1,1.060982885E1
4.944227988E0,-2.392035007E0,-1.022472858E1,4.066739976E-1,1.050867688E1
4.949150219E0,-2.248378992E0,-1.012064266E1,4.373779893E-1,1.037660424E1
4.954072601E0,-2.136811972E0,-9.961692810E0,4.637579918E-1,1.019884114E1
4.958995130E0,-1.990030050E0,-9.858050346E0,4.957079887E-1,1.006911628E1
4.963917593E0,-1.793393970E0,-9.785854340E0,5.048829913E-1,9.961632091E0
4.968839978E0,-1.563550949E0,-9.794721603E0,4.273729920E-1,9.927935865E0
4.973762409E0,-1.346994996E0,-9.726371765E0,3.222790062E-1,9.824488129E0
4.978684641E0,-1.193835020E0,-9.614505768E0,1.663520038E-1,9.689769667E0
4.983607029E0,-1.084674954E0,-9.531469345E0,-1.347000012E-3,9.592988557E0
4.988529491E0,-9.737340212E-1,-9.439604759E0,-2.566969991E-1,9.493165400E0
4.993451967E0,-8.247699738E-1,-9.387594223E0,-5.632579923E-1,9.440573625E0
4.998374200E0,-5.943269730E-1,-9.393190384E0,-8.440579772E-1,9.449745182E0
5.003296687E0,-2.964070141E-1,-9.368494987E0,-1.092188954E0,9.436600668E0
5.008219074E0,8.849599957E-2,-9.249388695E0,-1.408807993E0,9.356482391E0
5.013141534E0,4.553509951E-1,-9.033910751E0,-1.796411991E0,9.222037954E0
5.018063766E0,7.208089828E-1,-8.732490540E0,-2.155648947E0,9.023457153E0
5.022986226E0,8.753880262E-1,-8.388248444E0,-2.507837057E0,8.798764848E0
5.027908918E0,9.624639750E-1,-8.061841011E0,-2.786655903E0,8.584000729E0
5.032831147E0,9.415820241E-1,-7.837982178E0,-2.947640896E0,8.426691413E0
5.037753607E0,8.105080128E-1,-7.600313187E0,-2.944369078E0,8.190909171E0
5.042676068E0,6.267859936E-1,-7.435941219E0,-2.742490053E0,7.950304031E0
5.047598204E0,4.215230048E-1,-7.305074215E0,-2.267173052E0,7.660408904E0
5.052520664E0,1.970030069E-1,-7.196413040E0,-1.601544976E0,7.375101161E0
5.057443050E0,8.236300200E-2,-7.165584087E0,-9.359300137E-1,7.226918013E0
5.062365510E0,4.891100153E-2,-7.176861763E0,-3.015570045E-1,7.183360890E0
5.067287986E0,1.059219986E-1,-7.237745762E0,3.613449931E-1,7.247534297E0
5.072210448E0,2.460979968E-1,-7.357812881E0,8.906430006E-1,7.415606487E0
5.077132681E0,5.867030025E-1,-7.555955887E0,1.174782991E0,7.669211488E0
5.082055163E0,9.961280227E-1,-7.776346207E0,1.428104043E0,7.968896569E0
5.086977550E0,1.431391001E0,-7.929728031E0,1.587159038E0,8.212706050E0
5.091900086E0,1.904665947E0,-8.029561996E0,1.686246991E0,8.422888290E0
5.096822464E0,2.373092890E0,-8.041358948E0,1.665768027E0,8.548087898E0
5.101744923E0,2.846539021E0,-7.992750168E0,1.573279977E0,8.629139559E0
5.106667385E0,3.255515099E0,-7.889378071E0,1.339063048E0,8.639082981E0
5.111589608E0,3.674918890E0,-7.742772102E0,1.017178059E0,8.630770526E0
5.116512067E0,4.095529079E0,-7.569040775E0,6.525899768E-1,8.630736375E0
5.121434450E0,4.462615013E0,-7.264704227E0,2.420040071E-1,8.529327418E0
5.126356909E0,4.731009960E0,-6.862996101E0,-1.579560041E-1,8.337153041E0
5.131279371E0,4.848326206E0,-6.356686115E0,-5.075349808E-1,8.010700165E0
5.136201618E0,4.800375938E0,-5.789213181E0,-6.927189827E-1,7.552380948E0
5.141124000E0,4.599101067E0,-5.144776821E0,-7.935500145E-1,6.946235008E0
5.146046462E0,4.344960213E0,-4.479496956E0,-8.515070081E-1,6.298383635E0
5.150968924E0,4.071307182E0,-3.796947002E0,-8.358629942E-1,5.629477388E0
5.155891385E0,3.804306984E0,-3.134160042E0,-8.280230165E-1,4.998132943E0
5.160813856E0,3.467207909E0,-2.444257021E0,-7.866039872E-1,4.314472030E0
5.165736088E0,3.126831055E0,-1.797732949E0,-6.845530272E-1,3.671175431E0
5.170658548E0,2.778079033E0,-1.131057978E0,-5.519809723E-1,3.049868564E0
5.175580694E0,2.444502115E0,-5.219039917E-1,-4.047789872E-1,2.532157261E0
5.180503384E0,2.089848995E0,8.403199911E-2,-2.372570038E-1,2.104951564E0
5.185425848E0,1.790308952E0,7.003279924E-1,-3.164999932E-2,1.922671882E0
5.190348007E0,1.471246958E0,1.276095033E0,1.459950060E-1,1.953023473E0
5.195270466E0,1.194566965E0,1.813343048E0,2.608380020E-1,2.187061889E0
5.200192928E0,8.951569796E-1,2.275686979E0,3.522509933E-1,2.470655380E0
5.205115150E0,6.204980016E-1,2.689179897E0,4.140090048E-1,2.790718500E0
5.210037610E0,3.294099867E-1,3.053539991E0,4.900290072E-1,3.110103832E0
5.214960072E0,7.885000110E-2,3.363698959E0,5.308579803E-1,3.406244003E0
5.219882538E0,-6.704500318E-2,3.636226892E0,5.489869714E-1,3.678046729E0
5.224805000E0,-1.565729976E-1,3.801659107E0,5.232020020E-1,3.840685799E0
5.229727386E0,-1.613139957E-1,3.977430105E0,4.297870100E-1,4.003834327E0
5.234649846E0,-1.748600006E-1,4.120665073E0,3.119910061E-1,4.136157039E0
5.239572079E0,-2.045519948E-1,4.248364925E0,1.606069952E-1,4.256317735E0
5.244494432E0,-1.966380030E-1,4.301967144E0,1.647000015E-2,4.306490343E0
5.249416894E0,-1.357980072E-1,4.273444176E0,-1.133849993E-1,4.277104439E0
5.254339355E0,-7.949700207E-2,4.251739979E0,-2.772409916E-1,4.261510904E0
5.259261831E0,1.765899919E-2,4.215527058E0,-4.517880082E-1,4.239704308E0
5.264183987E0,1.868280023E-1,4.138815880E0,-6.020010114E-1,4.186538762E0
5.269106446E0,3.898319900E-1,4.084276199E0,-7.766230106E-1,4.175694476E0
5.274029000E0,5.620840192E-1,4.085729122E0,-9.309139848E-1,4.227968987E0
5.278951386E0,7.133139968E-1,4.054957867E0,-1.065631986E0,4.252889804E0
5.283873846E0,8.220400214E-1,4.056878090E0,-1.205247998E0,4.311221680E0
5.288796059E0,8.858900070E-1,4.086902142E0,-1.257128954E0,4.366685634E0
5.293718518E0,9.430419803E-1,4.090028763E0,-1.255465031E0,4.381079308E0
5.298640980E0,1.082015991E0,4.087910175E0,-1.260655999E0,4.412598073E0
5.303563132E0,1.297950983E0,4.102187157E0,-1.249179959E0,4.480297623E0
5.308485591E0,1.550220013E0,4.125894070E0,-1.149633050E0,4.554979705E0
5.313408053E0,1.788861036E0,4.154630184E0,-1.007763028E0,4.634281184E0
5.318330424E0,2.035665989E0,4.186288834E0,-8.283370137E-1,4.728117218E0
5.323252884E0,2.226313114E0,4.211620808E0,-6.232929826E-1,4.804447320E0
5.328175355E0,2.358613014E0,4.204491138E0,-3.828049898E-1,4.836045982E0
5.333097817E0,2.392080069E0,4.200992107E0,-1.304019988E-1,4.836050705E0
5.338020293E0,2.420120955E0,4.191576958E0,7.205899805E-2,4.840608983E0
5.342942448E0,2.435561895E0,4.154692173E0,2.443529963E-1,4.822150680E0
5.347864985E0,2.452718019E0,4.150152206E0,3.607620001E-1,4.834225713E0
5.352787436E0,2.478786945E0,4.101348877E0,4.651300013E-1,4.814747475E0
5.357709823E0,2.537695885E0,4.072930813E0,5.099959970E-1,4.825843110E0
5.362632283E0,2.608519077E0,3.953078032E0,5.292360187E-1,4.765636208E0
5.367554482E0,2.729196072E0,3.837522984E0,4.901640117E-1,4.734485675E0
5.372476865E0,2.837434053E0,3.754965067E0,4.099949896E-1,4.724287306E0
5.377399322E0,2.990456104E0,3.714834929E0,3.292950094E-1,4.780299307E0
5.382321783E0,3.073482990E0,3.700496912E0,2.361190021E-1,4.816194272E0
5.387244016E0,3.141892910E0,3.659507990E0,1.042580009E-1,4.824350683E0
5.392166490E0,3.150408983E0,3.589653015E0,-4.449999891E-3,4.776055416E0
5.397088952E0,3.146915913E0,3.493345022E0,-7.395199686E-2,4.702340705E0
5.402011339E0,3.212552071E0,3.370418072E0,-1.213710010E-1,4.657782703E0
5.406933793E0,3.306699991E0,3.194586039E0,-1.871719956E-1,4.601595174E0
5.411856255E0,3.465261936E0,2.973031044E0,-2.498050034E-1,4.572674974E0
5.416778716E0,3.714498043E0,2.691333055E0,-3.187200129E-1,4.598081314E0
5.421700935E0,3.918292046E0,2.409590960E0,-4.362710118E-1,4.620549052E0
5.426623395E0,4.095650196E0,2.192332983E0,-6.041229963E-1,4.684617277E0
5.431545776E0,4.167976856E0,1.968022943E0,-7.596750259E-1,4.671429280E0
5.436468236E0,4.247707844E0,1.746158004E0,-9.242889881E-1,4.684698478E0
5.441390454E0,4.317974091E0,1.529049993E0,-1.078748941E0,4.706016724E0
5.446312836E0,4.352336884E0,1.297474027E0,-1.247028947E0,4.709708738E0
5.451235298E0,4.395958900E0,1.091907978E0,-1.383927941E0,4.736240517E0
5.456157575E0,4.434290886E0,8.906639814E-1,-1.551561952E0,4.781585770E0
5.461080034E0,4.507423878E0,7.340059876E-1,-1.735285044E0,4.885370916E0
5.466002500E0,4.631355762E0,6.501610279E-1,-1.892364979E0,5.045117518E0
5.470924886E0,4.755440235E0,6.221179962E-1,-2.044734001E0,5.213653207E0
5.475847423E0,4.934313774E0,6.424270272E-1,-2.176332951E0,5.431076322E0
5.480769814E0,5.069706917E0,7.230119705E-1,-2.230590105E0,5.585714524E0
5.485692351E0,5.128047943E0,8.686739802E-1,-2.203794003E0,5.648732442E0
5.490614737E0,5.090045929E0,1.036280036E0,-2.068422079E0,5.591137073E0
5.495536968E0,4.945943832E0,1.228183985E0,-1.775750995E0,5.396673780E0
5.500459351E0,4.776823044E0,1.377221942E0,-1.382405996E0,5.160021803E0
5.505381807E0,4.553483963E0,1.519050002E0,-9.182029963E-1,4.887210437E0
5.510304269E0,4.303939819E0,1.681943059E0,-4.126160145E-1,4.639297619E0
5.515226502E0,4.097161770E0,1.817669988E0,1.174739972E-1,4.483799604E0
5.520148981E0,3.815685987E0,1.923688054E0,7.170469761E-1,4.332919530E0
5.525071368E0,3.524163008E0,1.975965023E0,1.306857944E0,4.246415001E0
5.529993904E0,3.322858095E0,1.971714973E0,1.770514965E0,4.250149303E0
5.534916310E0,3.204119921E0,1.958261967E0,2.121165991E0,4.312831965E0
5.539838770E0,3.060528040E0,1.930829048E0,2.438170910E0,4.363440166E0
5.544761231E0,2.962219954E0,1.798720956E0,2.738224030E0,4.416787856E0
5.549683454E0,2.914696932E0,1.586141944E0,2.945496082E0,4.437031850E0
5.554605913E0,2.911721945E0,1.243278027E0,3.115942001E0,4.442179588E0
5.559528295E0,2.987488985E0,7.847959995E-1,3.212768078E0,4.456778424E0
5.564450526E0,3.075597048E0,2.876319885E-1,3.180612087E0,4.433770699E0
5.569373250E0,3.228614092E0,-2.083079964E-1,3.056102991E0,4.450517573E0
5.574295483E0,3.401993990E0,-7.078589797E-1,2.782680035E0,4.451734001E0
5.579217943E0,3.569856882E0,-1.244297028E0,2.421546936E0,4.489548175E0
5.584140334E0,3.794837952E0,-1.774322987E0,2.048002005E0,4.662974303E0
5.589062794E0,3.988811970E0,-2.295258045E0,1.650915027E0,4.889207589E0
5.593985255E0,4.113879204E0,-2.763755083E0,1.345829010E0,5.135523341E0
5.598907488E0,4.222970963E0,-3.143783092E0,9.370920062E-1,5.347429038E0
5.603829948E0,4.273200989E0,-3.435264111E0,5.879639983E-1,5.514253156E0
5.608752409E0,4.279076099E0,-3.638202906E0,2.676909864E-1,5.623048205E0
5.613674791E0,4.228876114E0,-3.747740984E0,-9.219000116E-3,5.650578790E0
5.618597250E0,4.039032936E0,-3.778194904E0,-2.119320035E-1,5.534750127E0
5.623519493E0,3.762298107E0,-3.739253044E0,-2.836749852E-1,5.312002624E0
5.628441876E0,3.317238092E0,-3.659862041E0,-2.228910029E-1,4.944526178E0
5.633364332E0,2.840039968E0,-3.538117886E0,-6.178899854E-2,4.537391660E0
5.638286794E0,2.452493906E0,-3.422458887E0,1.677079946E-1,4.213796052E0
5.643209027E0,2.219077110E0,-3.248655081E0,4.218350053E-1,3.956767346E0
5.648131500E0,1.950765014E0,-3.026427031E0,7.026129961E-1,3.668570530E0
5.653053887E0,1.707541943E0,-2.810977936E0,1.083803058E0,3.462935967E0
5.657976346E0,1.460816026E0,-2.652724981E0,1.491096020E0,3.375544493E0
5.662898794E0,1.249431968E0,-2.503395081E0,1.854207039E0,3.356508739E0
5.667821255E0,1.054533005E0,-2.413114071E0,2.124588013E0,3.383642062E0
5.672743717E0,8.645190001E-1,-2.300156116E0,2.358814955E0,3.406188376E0
5.677666174E0,6.556379795E-1,-2.240922928E0,2.457391977E0,3.389745132E0
5.682588406E0,4.208709896E-1,-2.211210966E0,2.500426054E0,3.364330064E0
5.687510784E0,2.153799981E-1,-2.129410028E0,2.513051987E0,3.300940154E0
5.692433017E0,4.871600121E-2,-2.067235947E0,2.443829060E0,3.201271338E0
5.697355467E0,-6.465999782E-2,-2.050734997E0,2.341965914E0,3.113599088E0
5.702277929E0,-1.077440009E-1,-2.038677931E0,2.199475050E0,3.000917688E0
5.707200319E0,-1.091070026E-1,-2.100116014E0,2.058969975E0,2.943084941E0
5.712122779E0,-8.285500109E-2,-2.198570967E0,1.927250981E0,2.924871893E0
5.717045318E0,1.678200066E-2,-2.297585964E0,1.727681994E0,2.874729200E0
5.721967488E0,7.049799711E-2,-2.374921083E0,1.501575947E0,2.810685049E0
5.726889871E0,5.459799990E-2,-2.420512915E0,1.256616950E0,2.727810454E0
5.731812389E0,-9.049399942E-2,-2.414660931E0,1.070009947E0,2.642668700E0
5.736734853E0,-2.617450058E-1,-2.467278004E0,9.662259817E-1,2.662623489E0
5.741657238E0,-4.303579926E-1,-2.563760996E0,9.505239725E-1,2.767954889E0
5.746579688E0,-6.198549867E-1,-2.571336985E0,9.630550146E-1,2.814865726E0
5.751501921E0,-8.928220272E-1,-2.548144102E0,1.016806960E0,2.885145738E0
5.756424289E0,-1.160768986E0,-2.537390947E0,1.033221006E0,2.975446707E0
5.761346750E0,-1.478899002E0,-2.520183086E0,1.036918044E0,3.100590924E0
5.766268974E0,-1.792253971E0,-2.513547897E0,1.023867011E0,3.252445385E0
5.771191433E0,-2.122571945E0,-2.470062017E0,9.923380017E-1,3.404592889E0
5.776113895E0,-2.474807024E0,-2.428463936E0,9.404439926E-1,3.592567577E0
5.781036277E0,-2.791676998E0,-2.372499943E0,8.567889929E-1,3.762486388E0
5.785958736E0,-3.106828928E0,-2.300229073E0,8.113480210E-1,3.949901946E0
5.790881198E0,-3.389230967E0,-2.257474899E0,7.662600279E-1,4.143698094E0
5.795803654E0,-3.648499012E0,-2.256423950E0,7.098730206E-1,4.348208112E0
5.800726116E0,-3.872716904E0,-2.266237020E0,6.042979956E-1,4.527575788E0
5.805648349E0,-4.021192074E0,-2.303844929E0,5.241879821E-1,4.663953279E0
5.810570808E0,-4.165719032E0,-2.345355034E0,4.508689940E-1,4.801790098E0
5.815493195E0,-4.265574932E0,-2.429112911E0,3.774560094E-1,4.923229842E0
5.820415416E0,-4.370942116E0,-2.487843990E0,3.018639982E-1,5.038414887E0
5.825337875E0,-4.417150021E0,-2.610057116E0,2.912319899E-1,5.138913166E0
5.830260267E0,-4.432865143E0,-2.797930956E0,2.857570052E-1,5.249796956E0
5.835182726E0,-4.396465778E0,-3.024761915E0,3.021740019E-1,5.345035558E0
5.840105265E0,-4.317460060E0,-3.256614923E0,3.642880023E-1,5.420212900E0
5.845027421E0,-4.169488907E0,-3.454828024E0,4.428789914E-1,5.432919677E0
5.849949880E0,-3.988373041E0,-3.685612917E0,4.968810081E-1,5.453233245E0
5.854872342E0,-3.836282969E0,-3.943234921E0,5.190070271E-1,5.525896936E0
5.859794808E0,-3.751549006E0,-4.162536144E0,5.092419982E-1,5.626735688E0
5.864717270E0,-3.736603975E0,-4.342935085E0,5.179349780E-1,5.752525625E0
5.869639656E0,-3.786763906E0,-4.474634171E0,5.305910110E-1,5.885869406E0
5.874562101E0,-3.871001959E0,-4.605179787E0,5.637559891E-1,6.042363598E0
5.879484563E0,-4.032550812E0,-4.739361763E0,6.148859859E-1,6.253087297E0
5.884406694E0,-4.166205883E0,-4.843702793E0,6.501579881E-1,6.421949363E0
5.889329231E0,-4.260130882E0,-4.975780964E0,7.482249737E-1,6.592947137E0
5.894251707E0,-4.316841125E0,-5.121276855E0,9.087359905E-1,6.759319125E0
5.899173863E0,-4.358014107E0,-5.225303173E0,1.023540974E0,6.880677026E0
5.904096323E0,-4.402895927E0,-5.330894947E0,1.063675046E0,6.995379767E0
5.909018784E0,-4.501861095E0,-5.435682774E0,1.098759055E0,7.142875611E0
5.913941246E0,-4.597530842E0,-5.525474072E0,1.095543981E0,7.271063895E0
5.918863693E0,-4.709143162E0,-5.662724018E0,1.070927024E0,7.442402657E0
5.923786079E0,-4.776909828E0,-5.847598076E0,1.032171011E0,7.620934835E0
5.928708539E0,-4.772170067E0,-6.056165218E0,1.010406017E0,7.776352912E0
5.933630986E0,-4.702176094E0,-6.264317036E0,9.766259789E-1,7.893410305E0
5.938553219E0,-4.660381794E0,-6.493404865E0,9.521560073E-1,8.049227682E0
5.943475607E0,-4.529538155E0,-6.750572205E0,9.510689974E-1,8.184831899E0
5.948397839E0,-4.348010063E0,-7.001163006E0,9.566879869E-1,8.296790153E0
5.953320313E0,-4.130647182E0,-7.290898800E0,9.427909851E-1,8.432574121E0
5.958242775E0,-3.853490114E0,-7.610015869E0,9.074140191E-1,8.578177417E0
5.963165166E0,-3.499773026E0,-7.939032078E0,8.817049861E-1,8.720897044E0
5.968087397E0,-3.150877953E0,-8.246187210E0,8.182690144E-1,8.865506165E0
5.973009856E0,-2.749322891E0,-8.564407349E0,7.769889832E-1,9.028375351E0
5.977932332E0,-2.244787931E0,-8.917136192E0,7.317680120E-1,9.224417334E0
5.982854794E0,-1.706647038E0,-9.291403770E0,6.754530072E-1,9.470959028E0
5.987777255E0,-1.175518990E0,-9.633379936E0,5.391939878E-1,9.719803704E0
5.992699722E0,-7.326779962E-1,-9.879493713E0,3.713870049E-1,9.913583680E0
5.997622183E0,-4.737130105E-1,-9.944956779E0,1.608429998E-1,9.957531814E0
6.002544570E0,-4.103600085E-1,-9.836364746E0,5.822999869E-3,9.844922583E0
6.007466733E0,-5.375419855E-1,-9.644481659E0,-7.480400056E-2,9.659739825E0
6.012389192E0,-8.118420243E-1,-9.405361176E0,-1.410409957E-1,9.441387550E0
6.017311650E0,-1.110844970E0,-9.091494560E0,-2.529850006E-1,9.162600684E0
6.022233883E0,-1.357669950E0,-8.723629951E0,-4.390250146E-1,8.839554864E0
6.027156356E0,-1.551970005E0,-8.333501816E0,-6.079159975E-1,8.498554305E0
6.032078818E0,-1.685400009E0,-7.948276997E0,-7.365729809E-1,8.158322141E0
6.037001204E0,-1.803346992E0,-7.571140766E0,-8.385069966E-1,7.827983575E0
6.041923664E0,-1.927260995E0,-7.250693798E0,-9.344919920E-1,7.560434563E0
6.046846125E0,-2.023571968E0,-6.968920231E0,-9.496409893E-1,7.318641315E0
6.051768587E0,-2.039587021E0,-6.808414936E0,-9.601110220E-1,7.171906464E0
6.056691044E0,-1.944172978E0,-6.626503944E0,-9.443439841E-1,6.970089573E0
6.061613276E0,-1.785200953E0,-6.543554783E0,-9.216570258E-1,6.845034939E0
6.066535736E0,-1.593775988E0,-6.433201790E0,-9.017980099E-1,6.688755252E0
6.071458132E0,-1.372279048E0,-6.298266888E0,-9.614210129E-1,6.517334266E0
6.076380592E0,-1.130272985E0,-6.052916050E0,-1.062407970E0,6.248521459E0
6.081302825E0,-9.252390265E-1,-5.771815777E0,-1.135643959E0,5.954797379E0
6.086225284E0,-7.404360175E-1,-5.570155144E0,-1.169913054E0,5.739648977E0
6.091147671E0,-5.448409915E-1,-5.445995808E0,-1.116191030E0,5.585839638E0
6.096070131E0,-3.170340061E-1,-5.399620056E0,-9.664850235E-1,5.494588302E0
6.100992592E0,-3.801799938E-2,-5.402417183E0,-7.394909859E-1,5.452926160E0
6.105914825E0,2.249879986E-1,-5.406598091E0,-4.081670046E-1,5.426649318E0
6.110837284E0,5.245040059E-1,-5.414558887E0,-4.672000185E-3,5.439905718E0
6.115759746E0,8.292660117E-1,-5.457523823E0,4.634679854E-1,5.539589422E0
6.120682208E0,1.088943005E0,-5.470629215E0,9.363189936E-1,5.655994531E0
6.125604579E0,1.329800963E0,-5.537621021E0,1.353965044E0,5.853788390E0
6.130527039E0,1.520673037E0,-5.615235806E0,1.680323005E0,6.055312134E0
6.135449276E0,1.718971968E0,-5.734573841E0,1.982467055E0,6.306375932E0
6.140371736E0,1.941483021E0,-5.883567810E0,2.222753048E0,6.582276020E0
6.145294123E0,2.205034018E0,-6.050176144E0,2.426151037E0,6.881352719E0
6.150216582E0,2.488320112E0,-6.195540905E0,2.502924919E0,7.130294330E0
6.155138815E0,2.810766935E0,-6.273622990E0,2.444658041E0,7.296239382E0
6.160061275E0,3.072124958E0,-6.195195198E0,2.216373920E0,7.261591331E0
6.164983661E0,3.282268047E0,-6.038710117E0,1.876299024E0,7.124591318E0
6.169906116E0,3.383975029E0,-5.820519924E0,1.592483997E0,6.918507387E0
6.174828577E0,3.451632023E0,-5.576273918E0,1.364832997E0,6.698609075E0
6.179751039E0,3.420612097E0,-5.265283108E0,1.010617018E0,6.359649368E0
6.184673258E0,3.329158068E0,-4.866239071E0,6.992520094E-1,5.937384063E0
6.189595717E0,3.170082092E0,-4.434360981E0,4.759339988E-1,5.471699092E0
6.194518104E0,3.003026962E0,-3.939157009E0,3.355990052E-1,4.964650599E0
6.199440558E0,2.820704937E0,-3.404922009E0,2.279150039E-1,4.427393756E0
6.204363020E0,2.584671021E0,-2.844082117E0,2.105820030E-1,3.848853356E0
6.209285481E0,2.337902069E0,-2.276133060E0,1.974789947E-1,3.268878362E0
6.214207637E0,2.027597904E0,-1.718145967E0,1.144630015E-1,2.660127930E0
6.219130097E0,1.667894006E0,-1.185017943E0,4.800600186E-2,2.046568474E0
6.224052654E0,1.265609980E0,-6.990389824E-1,1.036410034E-1,1.449539781E0
6.228975041E0,8.491020203E-1,-1.674599946E-1,2.837359905E-1,9.107816439E-1
6.233897487E0,3.892500103E-1,2.894110084E-1,4.613699913E-1,6.694300345E-1
6.238819719E0,-2.346099913E-2,7.163500190E-1,6.387379766E-1,9.600489419E-1
6.243742179E0,-3.870660067E-1,1.057806969E0,8.442969918E-1,1.407697797E0
6.248664635E0,-6.827930212E-1,1.354089975E0,1.001163006E0,1.817166293E0
6.253587022E0,-9.395470023E-1,1.645938993E0,1.104186058E0,2.193419838E0
6.258509253E0,-1.186223030E0,1.813627958E0,1.241783977E0,2.497678701E0
6.263431692E0,-1.355826020E0,1.922019958E0,1.380112052E0,2.727110961E0
6.268354079E0,-1.479568958E0,2.038256884E0,1.451946974E0,2.907192020E0
6.273276530E0,-1.588963985E0,2.157860041E0,1.527464032E0,3.084527982E0
6.278198991E0,-1.696141958E0,2.287453890E0,1.614928961E0,3.273734624E0
6.283121453E0,-1.762676954E0,2.410299063E0,1.615502954E0,3.395058381E0
6.288043685E0,-1.809625983E0,2.484009027E0,1.578186989E0,3.454811315E0
6.292966068E0,-1.891230941E0,2.490622997E0,1.466040969E0,3.453872248E0
6.297888535E0,-2.108169079E0,2.576508045E0,1.606549978E0,3.696454166E0
6.302810996E0,-1.942224026E0,2.718128920E0,1.810376048E0,3.799726362E0
6.307733458E0,-1.679811001E0,2.703910112E0,1.904469967E0,3.709434020E0
6.312655914E0,-1.473968029E0,2.694495916E0,1.812950969E0,3.566466207E0
6.317578147E0,-1.597076058E0,2.454571962E0,1.361657023E0,3.229502331E0
6.322500530E0,-1.829944015E0,2.129719019E0,9.650939703E-1,2.969142059E0
6.327423005E0,-1.740782022E0,1.930536985E0,6.935020089E-1,2.690397766E0
6.332345238E0,-1.542943954E0,1.801414013E0,4.094589949E-1,2.406953502E0
6.337267914E0,-1.117781043E0,1.779204011E0,2.149930000E-1,2.112160828E0
6.342190147E0,-5.968379974E-1,1.754165053E0,6.326399744E-2,1.853999181E0
6.347112530E0,-1.156610027E-1,1.696652055E0,-8.519700170E-2,1.702722582E0
6.352035010E0,2.212339938E-1,1.643897057E0,-1.742960066E-1,1.667849247E0
6.356957243E0,3.568699956E-1,1.673228979E0,-2.336860001E-1,1.726748551E0
6.361879703E0,3.298029900E-1,1.749122024E0,-2.000090033E-1,1.791145295E0
6.366802178E0,1.997860074E-1,1.866675019E0,-2.953200042E-2,1.877568165E0
6.371724640E0,2.675800025E-2,2.010214090E0,2.760240138E-1,2.029252556E0
6.376647101E0,-2.275000066E-1,2.221231937E0,5.565249920E-1,2.301162237E0
6.381569479E0,-4.842860103E-1,2.470366001E0,7.597169876E-1,2.629526767E0
6.386491710E0,-6.433259845E-1,2.709110022E0,8.987039924E-1,2.925886925E0
6.391414149E0,-7.456219792E-1,2.879395008E0,1.025259018E0,3.146112490E0
6.396336536E0,-8.008509874E-1,3.021645069E0,1.030518055E0,3.291453887E0
6.401258965E0,-8.067600131E-1,3.161925077E0,8.962209821E-1,3.384057323E0
6.406181198E0,-8.162080050E-1,3.331103086E0,7.302089930E-1,3.506515144E0
6.411103658E0,-8.413649797E-1,3.497828960E0,5.416420102E-1,3.638142181E0
6.416026115E0,-7.054129839E-1,3.599436998E0,2.724319994E-1,3.678012150E0
6.420948577E0,-4.755649865E-1,3.681241035E0,-2.509300038E-2,3.711916927E0
6.425870963E0,-2.452239990E-1,3.724069118E0,-3.413560092E-1,3.747712574E0
6.430793423E0,3.359099850E-2,3.711271048E0,-6.018949747E-1,3.759912061E0
6.435715885E0,2.939209938E-1,3.686038017E0,-7.945330143E-1,3.782135445E0
6.440638346E0,5.142560005E-1,3.657988071E0,-9.167230129E-1,3.806010647E0
6.445560569E0,6.347740293E-1,3.624768972E0,-9.804620147E-1,3.808305914E0
6.450482951E0,6.720669866E-1,3.602972031E0,-1.050567031E0,3.812711971E0
6.455405179E0,7.765679955E-1,3.599365950E0,-1.040809989E0,3.826457699E0
6.460327870E0,9.622009993E-1,3.596771002E0,-1.082273960E0,3.877358550E0
6.465250102E0,1.243206024E0,3.523289919E0,-1.066758037E0,3.885499425E0
6.470172504E0,1.502169013E0,3.390856028E0,-1.018242955E0,3.845937475E0
6.475094966E0,1.815621018E0,3.228179932E0,-1.008383036E0,3.838549427E0
6.480017198E0,2.173854113E0,3.061534882E0,-1.027518988E0,3.892869482E0
6.484939687E0,2.600814104E0,2.876617908E0,-1.063449979E0,4.021205100E0
6.489862148E0,3.036741018E0,2.690331936E0,-1.104030967E0,4.204588721E0
6.494784549E0,3.462498903E0,2.488377094E0,-1.192379951E0,4.427492424E0
6.499707086E0,3.885423899E0,2.311630964E0,-1.249739051E0,4.690629412E0
6.504629549E0,4.346367836E0,2.160255909E0,-1.293213010E0,5.022949218E0
6.509551920E0,4.795001984E0,1.995928049E0,-1.358798027E0,5.368622251E0
6.514474150E0,5.212347031E0,1.854730010E0,-1.410892010E0,5.709571021E0
6.519396610E0,5.596138000E0,1.758334994E0,-1.375486016E0,6.024986660E0
6.524319072E0,5.958387852E0,1.694815993E0,-1.262725949E0,6.322124949E0
6.529241472E0,6.265581131E0,1.642634988E0,-1.058601975E0,6.563260985E0
6.534163703E0,6.579734802E0,1.589650035E0,-9.168170094E-1,6.830845536E0
6.539086163E0,6.960593224E0,1.605224013E0,-8.180990219E-1,7.189985269E0
6.544008634E0,7.302624226E0,1.617398977E0,-7.072139978E-1,7.512952261E0
6.548931096E0,7.598548889E0,1.628527045E0,-5.936610103E-1,7.793746144E0
6.553853543E0,7.833807945E0,1.660038948E0,-4.706450105E-1,8.021582323E0
6.558775930E0,7.955412865E0,1.776389003E0,-4.011299908E-1,8.161192131E0
6.563698389E0,7.938978195E0,1.888708949E0,-2.182539999E-1,8.163469305E0
6.568620602E0,7.860455990E0,1.963057995E0,4.370399937E-2,8.101992045E0
6.573543062E0,7.721346855E0,1.960554004E0,4.011999965E-1,7.976461038E0
6.578465448E0,7.534994125E0,1.904495001E0,7.991499901E-1,7.812930205E0
6.583387689E0,7.319673061E0,1.820688963E0,1.299975038E0,7.653917763E0
6.588310149E0,7.079332829E0,1.744549990E0,1.810546994E0,7.512555383E0
6.593232643E0,6.858815193E0,1.682896972E0,2.216320038E0,7.401862102E0
6.598155030E0,6.556978226E0,1.673701048E0,2.515228987E0,7.219530144E0
6.603077489E0,6.173418999E0,1.644906044E0,2.738306999E0,6.950909527E0
6.607999767E0,5.839332104E0,1.553092003E0,2.892642021E0,6.699050086E0
6.612922227E0,5.575847149E0,1.388381004E0,3.062024117E0,6.511041770E0
6.617844688E0,5.361209869E0,1.181702018E0,3.253350973E0,6.381479725E0
6.622767145E0,5.212080956E0,1.009495974E0,3.385157108E0,6.296360747E0
6.627689606E0,5.142905235E0,8.312000036E-1,3.396336079E0,6.218960240E0
6.632612068E0,5.103232861E0,5.586799979E-1,3.283479929E0,6.093960076E0
6.637534436E0,5.198430061E0,1.978390068E-1,3.104476929E0,6.058101384E0
6.642456666E0,5.390045166E0,-2.426580042E-1,2.874006987E0,6.113214045E0
6.647379044E0,5.662251949E0,-6.641389728E-1,2.543081045E0,6.242550674E0
6.652301505E0,5.834210873E0,-1.025213957E0,2.294550896E0,6.352483292E0
6.657223962E0,5.861505032E0,-1.363513947E0,2.062046051E0,6.361481387E0
6.662146195E0,5.804561138E0,-1.602102995E0,1.834084988E0,6.294722532E0
6.667068654E0,5.668636799E0,-1.802978992E0,1.604071975E0,6.160943378E0
6.671991116E0,5.475522995E0,-1.920588970E0,1.456246972E0,5.982530343E0
6.676913503E0,5.184820175E0,-1.993124008E0,1.357336044E0,5.718152210E0
6.681835962E0,4.863774776E0,-1.987043977E0,1.259583950E0,5.402888169E0
6.686758410E0,4.464516163E0,-1.964763045E0,1.170174956E0,5.016124781E0
6.691680871E0,4.070989132E0,-1.868891954E0,1.175348043E0,4.631107068E0
6.696603333E0,3.613826036E0,-1.828881979E0,1.224712968E0,4.231367364E0
6.701525575E0,3.121824980E0,-1.734774947E0,1.308302045E0,3.803536455E0
6.706447957E0,2.633285999E0,-1.651492000E0,1.329954028E0,3.380887265E0
6.711370185E0,2.212856054E0,-1.543409944E0,1.370692968E0,3.026160172E0
6.716292644E0,1.831907034E0,-1.449040055E0,1.399124026E0,2.722709772E0
6.721215017E0,1.495514989E0,-1.332489967E0,1.381791949E0,2.433401649E0
6.726137554E0,1.184834003E0,-1.255985975E0,1.363190055E0,2.199913524E0
6.731059940E0,8.738009930E-1,-1.209929943E0,1.352035046E0,2.013816627E0
6.735982161E0,5.651260018E-1,-1.167858005E0,1.344938040E0,1.868720966E0
6.740904621E0,3.356150091E-1,-1.110569000E0,1.302273989E0,1.744109653E0
6.745827082E0,1.423909962E-1,-1.025956035E0,1.129747033E0,1.532706541E0
6.750749573E0,-1.076989993E-1,-9.401500225E-1,9.913070202E-1,1.370463698E0
6.755672034E0,-1.917719990E-1,-8.793259859E-1,1.042546988E0,1.377278080E0
6.760594421E0,-1.955689937E-1,-8.909829855E-1,1.111940026E0,1.438231043E0
6.765516885E0,-2.383850068E-1,-8.047289848E-1,1.281512022E0,1.531890731E0
6.770439118E0,-3.271659911E-1,-7.758039832E-1,1.363677025E0,1.602661672E0
6.775361501E0,-4.211339951E-1,-8.494039774E-1,1.397778988E0,1.688972190E0
6.780283962E0,-4.628250003E-1,-9.367830157E-1,1.385483980E0,1.735319930E0
6.785206195E0,-4.855299890E-1,-1.008762956E0,1.391412020E0,1.785880589E0
6.790128894E0,-5.296130180E-1,-1.014420986E0,1.432451963E0,1.833428077E0
6.795051127E0,-5.157920122E-1,-1.048912048E0,1.470381975E0,1.878371912E0
6.799973510E0,-5.396040082E-1,-1.070876002E0,1.510005951E0,1.928228687E0
6.804895976E0,-6.033310294E-1,-1.110913992E0,1.512884021E0,1.971536530E0
6.809818438E0,-7.332609892E-1,-1.180577993E0,1.534132957E0,2.070024156E0
6.814740900E0,-8.934410214E-1,-1.250738025E0,1.657778978E0,2.260710863E0
6.819663347E0,-1.103186011E0,-1.333238959E0,1.802193046E0,2.498488598E0
6.824585580E0,-1.305201054E0,-1.375419974E0,1.929214954E0,2.705032391E0
6.829508039E0,-1.420560956E0,-1.415523052E0,2.017652988E0,2.844753508E0
6.834430406E0,-1.559481025E0,-1.419983029E0,2.154202938E0,3.014784100E0
6.839352866E0,-1.757895947E0,-1.472478032E0,2.322596073E0,3.263869212E0
6.844275347E0,-1.975265980E0,-1.484586954E0,2.501642942E0,3.516232576E0
6.849197580E0,-2.235658884E0,-1.535444975E0,2.703625917E0,3.829537181E0
6.854119963E0,-2.546228886E0,-1.573753953E0,2.931934118E0,4.190014405E0
6.859042534E0,-2.814090967E0,-1.574774027E0,3.073005915E0,4.454479381E0
6.863964921E0,-3.104060888E0,-1.584457040E0,3.160783052E0,4.704917387E0
6.868887394E0,-3.334820032E0,-1.634346962E0,3.270097017E0,4.948297600E0
6.873809627E0,-3.523263931E0,-1.684221029E0,3.386912107E0,5.169251670E0
6.878732087E0,-3.647859097E0,-1.801336050E0,3.468518019E0,5.346242119E0
6.883654547E0,-3.744570971E0,-1.909409046E0,3.548711061E0,5.501000351E0
6.888576934E0,-3.830166101E0,-2.044419050E0,3.596378088E0,5.637708486E0
6.893499393E0,-3.909440041E0,-2.184890032E0,3.611505032E0,5.753297704E0
6.898421521E0,-3.956068993E0,-2.340563059E0,3.632451057E0,5.858619120E0
6.903343981E0,-3.974814892E0,-2.580759048E0,3.673413992E0,5.996118832E0
6.908266510E0,-3.960937023E0,-2.807146072E0,3.712249994E0,6.111455734E0
6.913188666E0,-3.907258987E0,-3.076937914E0,3.717428923E0,6.209146279E0
6.918111140E0,-3.842516899E0,-3.320533037E0,3.738991976E0,6.306420281E0
6.923033601E0,-3.776334047E0,-3.578434944E0,3.757405043E0,6.417475215E0
6.927956063E0,-3.723056078E0,-3.840743065E0,3.734216928E0,6.523559605E0
6.932878547E0,-3.677902937E0,-4.119266033E0,3.690989971E0,6.642193134E0
6.937800934E0,-3.571383953E0,-4.397012234E0,3.651985884E0,6.739844273E0
6.942723403E0,-3.451370955E0,-4.659296989E0,3.655566931E0,6.854500674E0
6.947645865E0,-3.327552080E0,-4.965668201E0,3.737143040E0,7.049588756E0
6.952568098E0,-3.197710991E0,-5.275070190E0,3.831192970E0,7.261526057E0
6.957490461E0,-3.076358080E0,-5.553665161E0,3.812691927E0,7.405659693E0
6.962412694E0,-2.985167980E0,-5.825112820E0,3.765083075E0,7.551093814E0
6.967335126E0,-2.902637959E0,-6.101019859E0,3.707633972E0,7.706769759E0
6.972257587E0,-2.807245970E0,-6.417134762E0,3.635906935E0,7.891772154E0
6.977179964E0,-2.694228888E0,-6.768384933E0,3.571736097E0,8.113396493E0
6.982102423E0,-2.568447113E0,-7.139955997E0,3.505676031E0,8.358567859E0
6.987024656E0,-2.379714012E0,-7.507418156E0,3.478425980E0,8.609518769E0
6.991947116E0,-2.195198059E0,-7.865523815E0,3.430053949E0,8.857235997E0
6.996869502E0,-1.976737022E0,-8.194659233E0,3.369998932E0,9.078371110E0
7.001791928E0,-1.748368979E0,-8.494434357E0,3.250547886E0,9.261655936E0
7.006714466E0,-1.505381942E0,-8.783570290E0,3.127048969E0,9.444348420E0
7.011636853E0,-1.255000949E0,-9.013635635E0,3.016830921E0,9.587592167E0
7.016559328E0,-1.028444052E0,-9.172167778E0,2.870341063E0,9.665672079E0
7.021481789E0,-8.088719845E-1,-9.340118408E0,2.770617008E0,9.775909389E0
7.026403945E0,-5.651530027E-1,-9.486319542E0,2.731931925E0,9.888028540E0
7.031326505E0,-3.906680048E-1,-9.564863205E0,2.698930025E0,9.946026991E0
7.036248892E0,-2.805710137E-1,-9.520625114E0,2.621293068E0,9.878876455E0
7.041171108E0,-2.539370060E-1,-9.425301552E0,2.539659977E0,9.764766569E0
7.046093567E0,-3.225860000E-1,-9.274197578E0,2.432743073E0,9.593385289E0
7.051015954E0,-4.097959995E-1,-9.067822456E0,2.384238958E0,9.384984404E0
7.055938409E0,-4.579100013E-1,-8.885688782E0,2.301199913E0,9.190248513E0
7.060860870E0,-4.787530005E-1,-8.673279762E0,2.202965021E0,8.961475389E0
7.065783103E0,-4.721820056E-1,-8.488339424E0,2.103956938E0,8.757939074E0
7.070705789E0,-5.123220086E-1,-8.316632271E0,2.039822102E0,8.578445102E0
7.075628022E0,-5.032100081E-1,-8.158533096E0,1.920001030E0,8.396504425E0
7.080550482E0,-4.783490002E-1,-7.964273930E0,1.858656049E0,8.192257277E0
7.085472952E0,-4.304910004E-1,-7.736682892E0,1.793164968E0,7.953428523E0
7.090395108E0,-4.457530081E-1,-7.421051979E0,1.708891034E0,7.628303664E0
7.095317591E0,-5.393589735E-1,-7.155607224E0,1.617627025E0,7.355973085E0
7.100240053E0,-6.753590107E-1,-6.842001915E0,1.527876019E0,7.042975588E0
7.105162435E0,-8.058570027E-1,-6.574223042E0,1.429854035E0,6.776008904E0
7.110084894E0,-9.044770002E-1,-6.357727051E0,1.287794948E0,6.549594470E0
7.115007356E0,-9.640079737E-1,-6.090079784E0,1.144790053E0,6.271277973E0
7.119929589E0,-9.748399854E-1,-5.850559235E0,9.552850127E-1,6.007655600E0
7.124852048E0,-9.464820027E-1,-5.605916023E0,6.787589788E-1,5.725629781E0
7.129774435E0,-9.076099992E-1,-5.361187935E0,3.608840108E-1,5.449433847E0
7.134696971E0,-8.869029880E-1,-5.128635883E0,7.846199721E-2,5.205349097E0
7.139619358E0,-8.173050284E-1,-4.980542183E0,-1.826499999E-1,5.050460273E0
7.144541798E0,-7.371929884E-1,-4.800157070E0,-4.083029926E-1,4.873568788E0
7.149464260E0,-6.897469759E-1,-4.671795845E0,-5.890910029E-1,4.759039348E0
7.154386493E0,-6.463710070E-1,-4.581713200E0,-6.750530005E-1,4.676065427E0
7.159308957E0,-5.999990106E-1,-4.530217171E0,-7.265880108E-1,4.627180196E0
7.164231344E0,-4.933060110E-1,-4.524975777E0,-7.056319714E-1,4.606155998E0
7.169153604E0,-3.407320082E-1,-4.587792873E0,-5.907400250E-1,4.638201756E0
7.174076063E0,-1.350769997E-1,-4.725778103E0,-4.057149887E-1,4.745084733E0
7.178998525E0,9.734199941E-2,-4.881499767E0,-1.789440066E-1,4.885748295E0
7.183920911E0,3.254539967E-1,-5.052403927E0,1.185420007E-1,5.064262824E0
7.188843371E0,5.732719898E-1,-5.219175816E0,3.625940084E-1,5.263070528E0
7.193765604E0,8.600850105E-1,-5.367240906E0,5.611609817E-1,5.464606373E0
7.198688284E0,1.150156975E0,-5.510632038E0,7.127310038E-1,5.674320401E0
7.203610517E0,1.477226973E0,-5.629717827E0,8.084779978E-1,5.876185754E0
7.208532976E0,1.805619001E0,-5.726305008E0,7.962819934E-1,6.056805597E0
7.213455448E0,2.142791986E0,-5.809255123E0,7.315970063E-1,6.234920750E0
7.218377604E0,2.462641954E0,-5.853972912E0,6.190130115E-1,6.380970252E0
7.223299971E0,2.748666048E0,-5.830994129E0,4.724499881E-1,6.463657368E0
7.228222510E0,2.996294022E0,-5.710978985E0,3.078800142E-1,6.456612806E0
7.233144972E0,3.172240973E0,-5.471900940E0,7.680600137E-2,6.325402109E0
7.238067353E0,3.305510044E0,-5.156424999E0,-1.397130042E-1,6.126551652E0
7.242989584E0,3.343612909E0,-4.802822113E0,-3.609519899E-1,5.863201674E0
7.247912058E0,3.341882944E0,-4.415676117E0,-5.439860225E-1,5.564377591E0
7.252834445E0,3.219122887E0,-3.956665993E0,-6.985759735E-1,5.148394539E0
7.257756905E0,3.018512011E0,-3.397363901E0,-7.555739880E-1,4.606993411E0
7.262679356E0,2.740062952E0,-2.786101103E0,-8.111360073E-1,3.991020666E0
7.267601818E0,2.421952009E0,-2.181056976E0,-8.825049996E-1,3.376636809E0
7.272524284E0,2.116638899E0,-1.520781994E0,-9.247339964E-1,2.765514611E0
7.277446517E0,1.852589011E0,-9.496939778E-1,-9.410799742E-1,2.284652318E0
7.282368900E0,1.557867050E0,-3.581590056E-1,-9.436439872E-1,1.856257416E0
7.287291337E0,1.263281941E0,1.931920052E-1,-8.468319774E-1,1.533078215E0
7.292213570E0,9.349709749E-1,7.634779811E-1,-6.990739703E-1,1.394909950E0
7.297136029E0,6.371909976E-1,1.351981044E0,-4.987460077E-1,1.575630886E0
7.302058491E0,3.407360017E-1,1.926748991E0,-3.205710053E-1,1.982732576E0
7.306980878E0,-5.098000169E-3,2.489430904E0,-1.382160038E-1,2.493270118E0
7.311903342E0,-3.719429970E-1,3.005899906E0,5.346399918E-2,3.029295997E0
7.316825575E0,-7.889699936E-1,3.446727991E0,2.695350051E-1,3.546132628E0
7.321748035E0,-1.155976057E0,3.828185081E0,4.844709933E-1,4.028150172E0
7.326670500E0,-1.468626022E0,4.118567944E0,6.730819941E-1,4.424082240E0
7.331592962E0,-1.737792969E0,4.268349171E0,8.001220226E-1,4.677491240E0
7.336515423E0,-1.946107984E0,4.381608963E0,9.198150039E-1,4.881791990E0
7.341437801E0,-2.014781952E0,4.443953037E0,9.876880050E-1,4.978312215E0
7.346360032E0,-1.984547973E0,4.474812031E0,1.011741042E0,4.998599134E0
7.351282481E0,-1.888914943E0,4.464933872E0,1.004588962E0,4.951043640E0
7.356204868E0,-1.792346954E0,4.455554962E0,9.665759802E-1,4.898851575E0
7.361127337E0,-1.656363964E0,4.406476974E0,9.646540284E-1,4.805323954E0
7.366049799E0,-1.605167031E0,4.382948875E0,1.039780021E0,4.782043970E0
7.370972032E0,-1.360739946E0,4.399862766E0,1.147547960E0,4.746290329E0
7.375894490E0,-8.965209723E-1,4.349919796E0,1.242882967E0,4.611974648E0
7.380816877E0,-4.708859921E-1,4.307675838E0,1.276180983E0,4.517349073E0
7.385739336E0,-1.673189998E-1,4.201716900E0,1.062350988E0,4.337166146E0
7.390661813E0,-1.002079993E-1,4.025485039E0,6.159120202E-1,4.073563435E0
7.395584275E0,-1.472229958E-1,3.870258093E0,1.731559932E-1,3.876926013E0
7.400506736E0,-2.125640064E-1,3.762495995E0,-2.470279932E-1,3.776583429E0
7.405428969E0,-3.251380026E-1,3.750000000E0,-3.656769991E-1,3.781789839E0
7.410351351E0,-1.836650074E-1,3.952111959E0,-1.545149982E-1,3.959393471E0
7.415273798E0,1.736180037E-1,4.040945053E0,-6.075950265E-1,4.090055238E0
7.420196031E0,2.587189972E-1,3.851864100E0,-1.610468030E0,4.182989342E0
7.425118484E0,2.223539948E-1,3.710437059E0,-1.156208038E0,3.892762708E0
7.430040871E0,3.109599948E-1,3.645193100E0,-1.149266958E0,3.834702517E0
7.434963331E0,3.280740082E-1,3.622432947E0,-1.267897964E0,3.851910988E0
7.439885783E0,4.483079910E-1,3.653898954E0,-1.341333032E0,3.918052058E0
7.444808016E0,6.141809821E-1,3.655731916E0,-1.416146040E0,3.968257014E0
7.449730461E0,8.662580252E-1,3.644561052E0,-1.469177008E0,4.023892308E0
7.454652923E0,1.142315030E0,3.634773016E0,-1.486350060E0,4.089705980E0
7.459575310E0,1.399286032E0,3.614445925E0,-1.515651941E0,4.161660912E0
7.464497764E0,1.586910009E0,3.648252964E0,-1.463822961E0,4.239199303E0
7.469420226E0,1.709913969E0,3.688287973E0,-1.340294003E0,4.280614672E0
7.474342463E0,1.772858024E0,3.729593039E0,-1.171332002E0,4.292424544E0
7.479264923E0,1.830618024E0,3.755297899E0,-1.052556992E0,4.308282823E0
7.484187324E0,1.923594952E0,3.774777889E0,-9.168409705E-1,4.334716025E0
7.489109554E0,2.082647085E0,3.756757021E0,-8.048080206E-1,4.370166833E0
7.494032245E0,2.283682108E0,3.693991899E0,-6.900299788E-1,4.397376661E0
7.498954708E0,2.519382954E0,3.627146006E0,-5.437390208E-1,4.449621415E0
7.503876939E0,2.820833921E0,3.515523911E0,-3.304510117E-1,4.519425876E0
7.508799336E0,3.132848024E0,3.339931965E0,-7.665800303E-2,4.579929991E0
7.513721797E0,3.486538887E0,3.121977091E0,1.506360024E-1,4.682455080E0
7.518644259E0,3.776825905E0,2.941145897E0,3.746660054E-1,4.801575545E0
7.523566468E0,4.007929802E0,2.799683094E0,5.093380213E-1,4.915399469E0
7.528488927E0,4.227499008E0,2.692682981E0,5.984330177E-1,5.047812554E0
7.533411389E0,4.394655228E0,2.586592913E0,5.332379937E-1,5.127162980E0
7.538333532E0,4.586003780E0,2.412034988E0,3.720479906E-1,5.194974799E0
7.543255991E0,4.794371128E0,2.192986012E0,1.749970019E-1,5.275017167E0
7.548178448E0,4.971836090E0,1.974915981E0,-1.269099955E-2,5.349729741E0
7.553100834E0,5.094487190E0,1.762614012E0,-1.605020016E-1,5.393177985E0
7.558023294E0,5.200290203E0,1.589349985E0,-3.142729998E-1,5.446817336E0
7.562945745E0,5.289081097E0,1.440639019E0,-4.528569877E-1,5.500445353E0
7.567867978E0,5.389300823E0,1.297101021E0,-5.790680051E-1,5.573361120E0
7.572790438E0,5.522401810E0,1.163455963E0,-7.147290111E-1,5.688707154E0
7.577712824E0,5.645701885E0,9.609400034E-1,-8.028969765E-1,5.782905759E0
7.582635361E0,5.763988972E0,7.901099920E-1,-8.771690130E-1,5.883644121E0
7.587557747E0,5.877329826E0,6.078770161E-1,-8.806070089E-1,5.973942505E0
7.592480188E0,5.922530174E0,4.297550023E-1,-8.708559871E-1,6.001620046E0
7.597402650E0,5.954037189E0,3.170480132E-1,-8.382830024E-1,6.021112579E0
7.602324882E0,5.926305771E0,2.529050112E-1,-7.783110142E-1,5.982543696E0
7.607247265E0,5.892248154E0,1.655829996E-1,-6.297709942E-1,5.928120911E0
7.612169726E0,5.768735886E0,3.878099844E-2,-4.834280014E-1,5.789086311E0
7.617091964E0,5.637157917E0,-1.179760024E-1,-3.083940148E-1,5.646819865E0
7.622014424E0,5.483154774E0,-2.999719977E-1,-3.654599935E-2,5.491475674E0
7.626936810E0,5.354566097E0,-5.312190056E-1,2.292400002E-1,5.385733256E0
7.631859270E0,5.279319763E0,-7.214099765E-1,4.913029969E-1,5.350983849E0
7.636781808E0,5.197752953E0,-8.648059964E-1,7.348790169E-1,5.320204163E0
7.641703978E0,5.175013065E0,-9.418389797E-1,9.455310106E-1,5.344328749E0
7.646626669E0,5.091599941E0,-9.643999934E-1,1.097069025E0,5.296981948E0
7.651548901E0,5.036417961E0,-9.682360291E-1,1.180210948E0,5.262687979E0
7.656471376E0,4.943212032E0,-1.003057003E0,1.188398004E0,5.182061208E0
7.661393838E0,4.827068806E0,-1.099439979E0,1.129117012E0,5.077821063E0
7.666315993E0,4.657557964E0,-1.216197968E0,1.114343047E0,4.941026626E0
7.671238376E0,4.475969791E0,-1.367241025E0,1.119694948E0,4.812210549E0
7.676160909E0,4.280140877E0,-1.499716043E0,1.090371013E0,4.664511023E0
7.681083296E0,4.096478939E0,-1.613528967E0,9.792180061E-1,4.510375076E0
7.686005756E0,3.879689932E0,-1.701266050E0,7.704759836E-1,4.305802293E0
7.690927988E0,3.706315994E0,-1.767740965E0,5.725539923E-1,4.146022726E0
7.695850448E0,3.552522898E0,-1.843891025E0,3.625740111E-1,4.018931819E0
7.700772910E0,3.389903069E0,-1.948492050E0,1.461620033E-1,3.912726340E0
7.705695301E0,3.175664902E0,-2.090765953E0,-2.345000021E-2,3.802196699E0
7.710617761E0,2.974489927E0,-2.268182993E0,-2.101189941E-1,3.746517638E0
7.715540222E0,2.781333923E0,-2.435439110E0,-3.489499986E-1,3.713347298E0
7.720462640E0,2.560118914E0,-2.544760942E0,-4.921909869E-1,3.643112553E0
7.725384873E0,2.339361906E0,-2.646622896E0,-6.109949946E-1,3.584765232E0
7.730307255E0,2.157002926E0,-2.715096951E0,-6.864680052E-1,3.534918867E0
7.735229503E0,1.957800031E0,-2.731252909E0,-7.475500107E-1,3.442608666E0
7.740151963E0,1.815603018E0,-2.709923029E0,-7.563740015E-1,3.348462150E0
7.745074424E0,1.631464005E0,-2.707554102E0,-7.604290247E-1,3.251273030E0
7.749996815E0,1.415349007E0,-2.713831902E0,-6.864349842E-1,3.136764159E0
7.754919274E0,1.198397040E0,-2.714493036E0,-5.658289790E-1,3.020726791E0
7.759841736E0,1.035639048E0,-2.685755014E0,-3.774319887E-1,2.903150554E0
7.764764216E0,8.409829736E-1,-2.606084108E0,-1.981990039E-1,2.745580009E0
7.769686449E0,6.122140288E-1,-2.451462030E0,-3.575399891E-2,2.527004245E0
7.774609139E0,3.901740015E-1,-2.166770935E0,2.098589987E-1,2.211599610E0
7.779531353E0,1.082170010E-1,-1.969586968E0,5.239930153E-1,2.040968502E0
7.784453813E0,-4.918980002E-1,-1.991242051E0,4.877850115E-1,2.108303291E0
7.789376199E0,-9.796559811E-1,-2.086175919E0,3.678939939E-1,2.333924119E0
7.794298645E0,-1.288228989E0,-2.008053064E0,3.669019938E-1,2.413799517E0
7.799220878E0,-1.481937051E0,-1.802005053E0,4.466519952E-1,2.375469982E0
7.804143279E0,-1.581864953E0,-1.666211009E0,4.904679954E-1,2.349279615E0
7.809065741E0,-1.613844991E0,-1.475572944E0,5.582939982E-1,2.256879118E0
7.813988203E0,-1.501067042E0,-1.208374023E0,7.774260044E-1,2.077922337E0
7.818910664E0,-1.217123032E0,-9.148989916E-1,1.050150037E0,1.849660439E0
7.823832897E0,-9.724739790E-1,-5.805330276E-1,1.312970996E0,1.733959940E0
7.828755308E0,-1.039929032E0,-2.720170021E-1,1.703400970E0,2.014204683E0
7.833677847E0,-1.426756024E0,-2.746200003E-2,2.118468046E0,2.554269715E0
7.838600234E0,-1.793382049E0,4.520599917E-2,2.152271986E0,2.801881057E0
7.843522712E0,-2.238545895E0,7.714999840E-3,1.944664955E0,2.965277227E0
7.848445174E0,-2.652739048E0,-1.388700027E-2,1.743600965E0,3.174486042E0
7.853367377E0,-2.993083000E0,1.350999996E-2,1.627496958E0,3.406974422E0
7.858289760E0,-3.290747881E0,9.927199781E-2,1.516662955E0,3.624795589E0
7.863211974E0,-3.505110979E0,1.784989983E-1,1.476806998E0,3.807705842E0
7.868134433E0,-3.626683950E0,2.030470073E-1,1.551720977E0,3.949924373E0
7.873056890E0,-3.583631039E0,1.464820057E-1,1.724737048E0,3.979772140E0
7.877979277E0,-3.979063988E0,-1.440699995E-1,1.959517002E0,4.437726137E0
7.882901736E0,-4.231932163E0,-3.705810010E-1,1.936560988E0,4.668709519E0
7.887824183E0,-4.033656120E0,-2.582609951E-1,2.109523058E0,4.559294679E0
7.892746415E0,-3.915046930E0,-8.133000135E-2,2.202135086E0,4.492616829E0
7.897668798E0,-3.784522057E0,4.617600143E-2,2.231031895E0,4.393431772E0
7.902591337E0,-3.555398941E0,2.111430019E-1,2.270972967E0,4.224069272E0
7.907513800E0,-3.315540075E0,2.830680013E-1,2.425637960E0,4.117845675E0
7.912436185E0,-3.100188971E0,2.296220064E-1,2.595381021E0,4.049679069E0
7.917358615E0,-2.973387957E0,9.267900139E-2,2.759711981E0,4.057787027E0
7.922280848E0,-2.901245117E0,-1.245400012E-1,2.962833881E0,4.148628454E0
7.927203308E0,-2.873965025E0,-3.591899872E-1,3.127084970E0,4.262317776E0
7.932125694E0,-2.901000023E0,-5.556989908E-1,3.282404900E0,4.415742794E0
7.937047925E0,-3.035027027E0,-7.233729959E-1,3.384418011E0,4.603144883E0
7.941970405E0,-3.268938065E0,-8.333179951E-1,3.407512903E0,4.794947251E0
7.946892866E0,-3.571836948E0,-8.952630162E-1,3.390274048E0,5.005344461E0
7.951815262E0,-3.920787096E0,-8.836439848E-1,3.250125885E0,5.168821569E0
7.956737721E0,-4.268768787E0,-8.561800122E-1,3.024437904E0,5.301193810E0
7.961659954E0,-4.592391014E0,-7.827169895E-1,2.744663954E0,5.407021484E0
7.966582644E0,-4.908723831E0,-6.780819893E-1,2.390068054E0,5.501617048E0
7.971504877E0,-5.246599197E0,-5.877900124E-1,2.073045015E0,5.671844133E0
7.976427337E0,-5.513282776E0,-4.915849864E-1,1.812473059E0,5.824345573E0
7.981349827E0,-5.737658024E0,-4.518789947E-1,1.544320941E0,5.959013458E0
7.986272214E0,-5.991445065E0,-4.539409876E-1,1.297207952E0,6.147050093E0
7.991194450E0,-6.169871807E0,-4.846749902E-1,1.110947013E0,6.287800190E0
7.996116909E0,-6.309062958E0,-5.949239731E-1,1.022336006E0,6.418985967E0
8.001039281E0,-6.299560070E0,-7.789220214E-1,9.171149731E-1,6.413444976E0
8.005961740E0,-5.742469788E0,-1.569697022E0,7.689570189E-1,6.002599679E0
8.010883973E0,-5.709867954E0,-1.594382048E0,9.092900157E-1,5.997620737E0
8.015806453E0,-5.794526100E0,-1.410967946E0,1.141615987E0,6.072120744E0
8.020728839E0,-5.721260071E0,-1.372033954E0,1.356521964E0,6.037834530E0
8.025651289E0,-5.535491943E0,-1.501342058E0,1.511371970E0,5.931268352E0
8.030573827E0,-5.249260902E0,-1.753466010E0,1.643066049E0,5.773131655E0
8.035496214E0,-4.812483788E0,-2.090550900E0,1.878540039E0,5.573088546E0
8.040418655E0,-4.401535988E0,-2.589771986E0,2.139448881E0,5.536937737E0
8.045340887E0,-3.999224901E0,-3.089843988E0,2.425506115E0,5.605712764E0
8.050263284E0,-3.571672916E0,-3.563575983E0,2.639260054E0,5.693998142E0
8.055185746E0,-3.154517889E0,-3.950500011E0,2.804949999E0,5.781451197E0
8.060107993E0,-2.737891912E0,-4.280877113E0,2.849777937E0,5.826078894E0
8.065030453E0,-2.321721077E0,-4.516209126E0,2.867507935E0,5.831735195E0
8.069952914E0,-1.979941010E0,-4.722774029E0,2.794420958E0,5.833828025E0
8.074875380E0,-1.678923011E0,-4.883522034E0,2.662305117E0,5.809943069E0
8.079797842E0,-1.511796951E0,-5.024197102E0,2.486251116E0,5.805990970E0
8.084720242E0,-1.401998997E0,-5.152161121E0,2.319245100E0,5.821448552E0
8.089642702E0,-1.304180980E0,-5.243885040E0,2.180560112E0,5.827011305E0
8.094565163E0,-1.218469024E0,-5.321341991E0,2.043863058E0,5.829127169E0
8.099487396E0,-1.212038040E0,-5.327600002E0,1.966225982E0,5.806754912E0
8.104409856E0,-1.220415950E0,-5.294198036E0,1.857157946E0,5.741688216E0
8.109332242E0,-1.250920057E0,-5.267249107E0,1.771412015E0,5.696192998E0
8.114254716E0,-1.282464981E0,-5.242088795E0,1.715749025E0,5.662862004E0
8.119176949E0,-1.255360007E0,-5.243059158E0,1.625694990E0,5.631028528E0
8.124099370E0,-1.162533045E0,-5.270485878E0,1.563588023E0,5.619102417E0
8.129021909E0,-1.015984058E0,-5.346106052E0,1.527016044E0,5.651977665E0
8.133944295E0,-8.706889749E-1,-5.352606773E0,1.424808025E0,5.607011367E0
8.138866740E0,-6.881800294E-1,-5.299427986E0,1.257053971E0,5.489782639E0
8.143788973E0,-5.425670147E-1,-5.220048904E0,1.045338035E0,5.351263508E0
8.148711355E0,-5.199949741E-1,-5.131300926E0,8.163189888E-1,5.221783284E0
8.153633817E0,-5.247480273E-1,-5.078975201E0,6.321949959E-1,5.144999523E0
8.158556278E0,-4.947890043E-1,-5.034934998E0,4.928039908E-1,5.083133125E0
8.163478740E0,-4.446629882E-1,-4.999687195E0,3.811349869E-1,5.033871383E0
