Time (s),Linear Acceleration x (m/s^2),Linear Acceleration y (m/s^2),Linear Acceleration z (m/s^2),Absolute acceleration (m/s^2)
0.122755322,0.0848505245645238,-2.817461720809524,-7.222361819900001,8.140427559271428
0.127677709,0.08072157209642856,-2.6192270023238096,-6.727510375461905,7.680681380995238
0.13259994,0.07932452437261904,-2.4251713797761907,-6.229210597966667,7.222817798971428
0.137522278,0.08074914350119047,-2.2332634715238093,-5.728477202561905,6.767126488804761
0.14244474,0.07983342918214285,-2.0447779441857143,-5.227595280895239,6.310512363528571
0.147366972,0.07914890531547619,-1.855712511904762,-4.727905789885715,5.852865273776191
0.152289399,0.0783128100297619,-1.6588816034285716,-4.229110822676191,5.396474560666666
0.157211786,0.07772304796785713,-1.4574145051857144,-3.730816188209524,4.941597409966667
0.162134016,0.07640514314880952,-1.2556367872714287,-3.2356115067809528,4.484099874866667
0.16705636,0.07194461926595237,-1.0550944976666667,-2.7422313008190478,4.024126187990476
0.171978822,0.06287700013309523,-0.8530180654,-2.248610856919048,3.5652015232809524
0.176900957,0.049890095323571415,-0.6504927760952381,-1.7562250806619049,3.1059806447809524
0.181823188,0.036237286004523805,-0.4463136778714286,-1.2636928756619048,2.647926419380952
0.186745634,0.022638142861666665,-0.2405293882428572,-0.7736190982952381,2.188921713695238
0.191668018,0.010683238194999996,-0.034849147038095246,-0.285998940452381,1.727742122295238
0.196590251,-0.0003106664626190493,0.1713014273238095,0.19917031271428567,1.2650039090238094
0.201512615,-0.012707571148333334,0.3774817160190477,0.6811987573095237,0.8004381089619047
0.206435076,-0.02007742863,0.38877514288571424,0.6597661858428571,0.7909305361000001
0.211357309,-0.023495428601428572,0.3995992839333333,0.6360503293142856,0.7822377741666667
0.216279706,-0.025950095468095243,0.4064129988333333,0.609793853895238,0.7730648453142858
0.221202167,-0.03003695251,0.4103319048857143,0.5786859005217618,0.7627728167380953
0.2261244,-0.03694919069857143,0.41796557108095245,0.5437481849217618,0.7553307943095239
0.23104687,-0.048875238201904765,0.4317954281952381,0.5054347560027143,0.7504597218714286
0.235969256,-0.06586776246857141,0.44899466633809526,0.46247523195033335,0.7439732883714286
0.240891462,-0.08608781013047619,0.4659046658428571,0.4161975662836666,0.7334959348809524
0.245813845,-0.10078719079714285,0.4836698089333333,0.3693144699836666,0.7205861955857144
0.250736306,-0.10935376210952381,0.4991466175952381,0.32076656628842853,0.7067147346238096
0.255658477,-0.11086095247714287,0.503073617104762,0.26955551996461896,0.6903866960619047
0.260580708,-0.10820909535333334,0.5000993793904762,0.2132356630360476,0.6758305221380952
0.265503167,-0.10412619066761904,0.4936524743095238,0.15132071100747616,0.6695719314571429
0.270425639,-0.0979271908847619,0.48879380736666667,0.08700442407890471,0.6694201890190477
0.275348026,-0.09018766683761904,0.4837124745047619,0.01733894952652377,0.6728466443333333
0.280270256,-0.08013752403380951,0.4792962840619047,-0.056729667725857184,0.682052754152381
0.285192754,-0.07027704800047618,0.4740196650952381,-0.13641980905919052,0.6954558325047618
0.290115141,-0.0585497621195238,0.4659250449571429,-0.2187417594258572,0.7144177782380953
0.295037371,-0.046158809743333334,0.45745414069523815,-0.3006941865544286,0.7376510734
0.29995974,-0.033473381323809524,0.4466178559095238,-0.3820234712449048,0.7639088689571429
0.304881973,-0.018271238671428575,0.43585299877619044,-0.45995427931633337,0.791927638447619
0.309804389,-0.001178142919047617,0.4228598092285714,-0.5337860887115715,0.8203284106619048
0.314726622,0.01764566664761905,0.40764890611428567,-0.6015781835972858,0.8495378689666666
0.319649101,0.0380560950952381,0.3907983331476191,-0.6638994242877619,0.8794179931809523
0.324571487,0.060706999695238094,0.3704395223285714,-0.7203203751904762,0.9078620946904763
0.329493718,0.08645257106666666,0.34742333137619047,-0.7742773730761905,0.9369207684
0.334416106,0.11633704710476192,0.3231585210333333,-0.8277160844523811,0.9674074016857143
0.339338339,0.1496745238095238,0.29866375916666665,-0.8850655151333333,1.0027253469714286
0.344261029,0.1849728570904762,0.27548966451190476,-0.9481143738714286,1.0465266837238096
0.349183281,0.22175057197619047,0.2525834738395238,-1.016718467095238,1.1008069638190476
0.354105663,0.2579572397742857,0.2280208554552381,-1.0906376583619048,1.166789466057143
0.359027896,0.2861041928752381,0.20637809388523812,-1.1714247564857143,1.2433907173476189
0.363950351,0.3080973368038095,0.18686737981285714,-1.2603861888809524,1.3293646882095238
0.368872506,0.3279451463609524,0.1678876657842857,-1.3612970426619047,1.4294105803714285
0.373794918,0.3460531460085714,0.14549652248428574,-1.4740647589333333,1.5411851557809524
0.378717151,0.36325166960380956,0.11212590275571428,-1.5916390022333333,1.6583124806047618
0.383639841,0.38408857424761905,0.06526199773190478,-1.7035648085714286,1.7721627952380952
0.388561892,0.41219643149047624,0.0012761419271428709,-1.8092537154285717,1.8849317670952381
0.393484123,0.44717143050476194,-0.07913357222999999,-1.9135709547619046,2.0041336655238093
0.398406509,0.48896286034285713,-0.17619128517285715,-2.025564386809524,2.1388723385714288
0.403328971,0.539426001747619,-0.29121961684428566,-2.1474185728571427,2.293666156714286
0.408251433,0.5960547625666667,-0.42574684878714286,-2.2839216675714287,2.4719586385714285
0.413173651,0.6607173837238095,-0.5774612716633333,-2.4332336755714286,2.6729464492380957
0.418096034,0.7285319538095238,-0.742325179534762,-2.5938114439523807,2.8919343962380957
0.423018496,0.791562574204762,-0.9205164219871429,-2.7652393920952383,3.12600454752381
0.427940738,0.8483736230571427,-1.1108927534157143,-2.949568725857143,3.377088445714286
0.432862892,0.9014026252428573,-1.3175376496395237,-3.147580544238095,3.6481887174761907
0.437785265,0.9504253381047618,-1.5426152269442857,-3.3606963669523813,3.941962886
0.442707498,0.9975012880809524,-1.786294809672857,-3.592484258571429,4.26079112347619
0.447629976,1.0389726189761905,-2.0474205143942856,-3.8438486883333334,4.603862554761905
0.452552361,1.0693008558619048,-2.3260433707695234,-4.116203359285715,4.972013245761905
0.457474594,1.0887950913619047,-2.6199798988519047,-4.409195309666667,5.363800706142857
0.462397053,1.1039191370285715,-2.932937604315238,-4.722888594666666,5.782209419380952
0.46731944,1.111832851390476,-3.2627990430095237,-5.054579780285714,6.2227252445714285
0.472241899,1.1123216605666666,-3.6048279844333333,-5.397769280904762,6.677508323428572
0.477164147,1.1068959945095238,-3.952408464176191,-5.756360303761904,7.147115541619048
0.482086607,1.0961500419809522,-4.294361321709523,-6.129746005619047,7.629099588095238
0.487008993,1.0717830421721426,-4.624900511357143,-6.518956025523809,8.122435483095238
0.491931132,1.0351563753864288,-4.941224836190476,-6.912255491476191,8.615457476380952
0.496853363,0.9909583289054761,-5.247700696904762,-7.2951436835238095,9.096235779809524
0.501775822,0.9418677560907143,-5.545422644809524,-7.648678529428572,9.548195161095238
0.506698207,0.8907445670383334,-5.834659213095238,-7.962124029571429,9.962944066380953
0.511620445,0.8431903778050001,-6.1166183608095235,-8.226252918904763,10.335448655095238
0.516542827,0.7968738051859525,-6.3918490069523815,-8.440743582380954,10.667117370761904
0.521465289,0.7530156148192857,-6.665966329142857,-8.606486274857144,10.965195207857143
0.526387522,0.7166184216764286,-6.936972027761905,-8.723413240142857,11.23181097547619
0.531309904,0.6881268026097619,-7.204060236619047,-8.792427902952381,11.46891791747619
0.536232366,0.6652636075621429,-7.461709590190476,-8.810167562238096,11.671823591142857
0.541154599,0.6524858930859524,-7.704242433809524,-8.775170030857144,11.837864204809524
0.546077058,0.6533044181335713,-7.923321042714285,-8.679890814047619,11.956357729
0.550999445,0.6520827556573809,-8.12750448495238,-8.526786576904762,12.034828692238095
0.555921666,0.6387614212383333,-8.316084793571427,-8.31694176057143,12.07371900095238
0.560844125,0.6183245184145238,-8.48687190095238,-8.049075762142857,12.071654281904761
0.565766512,0.6001705188811904,-8.633673554333333,-7.721163329333334,12.023540316285713
0.570688748,0.597761089105,-8.758249941285714,-7.326475568885715,11.93125358547619
0.575610902,0.6106070906621428,-8.863019307428571,-6.858855690333335,11.798251141095237
0.580533361,0.632248376305,-8.950388181714285,-6.313782902114285,11.62817025647619
0.585455808,0.6577404242859524,-9.02152209047619,-5.698408337019048,11.429775999047619
0.590377963,0.6817684723471429,-9.079099518809523,-5.028902229828572,11.213950077619048
0.595300423,0.7041838534519048,-9.117769581809524,-4.325406432304762,10.987832413904762
0.600222929,0.7438884249757143,-9.120521204714285,-3.605114431971429,10.74754648952381
0.60514539,0.7972068517428571,-9.081477301380952,-2.885499722019048,10.499774329666666
0.610067623,0.8481373758904763,-9.006035009952381,-2.176186556257143,10.257088714428571
0.614989991,0.8782663743142857,-8.899161247904763,-1.4837141438285717,10.027039482809524
0.619912223,0.8848846101047618,-8.761677900857142,-0.8116601028285716,9.810940483761906
0.624834606,0.8750459438714286,-8.590596812,-0.16508340306666683,9.604162922142857
0.629756839,0.8570098025904762,-8.395516145714286,0.45533612193333317,9.412748047333334
0.634679207,0.8468644193666667,-8.172823883142858,1.0504420651714286,9.231731355333334
0.639601669,0.8548549442238096,-7.92387210747619,1.6224722915523808,9.065748568380952
0.644523926,0.8775305151761905,-7.654044310190476,2.1705083446,8.91769404847619
0.649446308,0.9435981824142856,-7.358490875714286,2.6915583663619045,8.797021593190475
0.654368541,1.0551316993190476,-7.048178774904763,3.195034236742857,8.708163143285715
0.659291202,1.1747704630238094,-6.732727754619049,3.6790597150761903,8.630545439380953
0.664213435,1.2883671266095238,-6.4121612139523805,4.135796279695238,8.553701343761904
0.669135818,1.4044004649571429,-6.0809252829047615,4.55213146507619,8.471503146190477
0.674058051,1.5212641272619047,-5.730486222619048,4.91586628372381,8.378825100619048
0.67898051,1.6600205982714287,-5.3571635313809525,5.2268538644571425,8.288463623809523
0.683902637,1.838791699542857,-4.968121698904762,5.4821572870476185,8.21449200904762
0.68882502,2.0572974595571427,-4.571180933971429,5.6813103697619045,8.15755604
0.693747252,2.3146550342142853,-4.17538917347619,5.82579533247619,8.109797368857143
0.698669712,2.598784213866667,-3.7905352144142856,5.922401382714286,8.070947459333334
0.703592118,2.8796961136190475,-3.4266041112857137,5.980058488333333,8.049589422380953
0.708514348,3.1706237394761905,-3.0843397824290473,6.004856291238095,8.061663066714285
0.713436808,3.484153270666667,-2.7655952219685713,6.0043087686190475,8.104529832380953
0.71835919,3.838254661714285,-2.475268317992381,5.978255907666666,8.176897543142857
0.72328142,4.2408901764476195,-2.220791072530476,5.9253739629523805,8.281510814571428
0.72820388,4.684520891666667,-2.0135076949114286,5.847347577380952,8.417925914761904
0.733126262,5.1564791033285715,-1.8497806101019048,5.738730067238095,8.575613349095239
0.738048721,5.630277650619048,-1.7406538606257143,5.594089689666667,8.748503505857142
0.742970954,6.093403379285714,-1.6950467251971426,5.410076606809524,8.936114731380952
0.747893098,6.5586084638571425,-1.7210019026733332,5.186900320476191,9.154901805095237
0.752815557,7.001237414952381,-1.847116475482857,4.931493929380952,9.420049215619047
0.757737952,7.444044283428571,-2.0701257098638095,4.635753254033333,9.73641347695238
0.762660185,7.9424026920952375,-2.390477753292381,4.301962865914286,10.138616971333333
0.767582658,8.506748755571428,-2.8078557246733333,3.9409096829428565,10.641669952666668
0.772505045,9.120426234571429,-3.3182875140542856,3.557522162752381,11.248296167761904
0.777427276,9.771759044380953,-3.9231769182923806,3.1627187749904757,11.956497066999999
0.782349678,10.436587242714287,-4.62331026486381,2.755896434180952,12.746897742000002
0.787271911,11.103880518666667,-5.408296692482857,2.338970390847619,13.60164461852381
0.792194371,11.770671571809524,-6.2664250925114295,1.9199804486571428,14.50735898547619
0.797116827,12.442373184809522,-7.172347962482857,1.5136371134666666,15.455254992809525
0.802039214,13.118848233047618,-8.09199559364,1.135964214133333,16.422128642238096
0.806961445,13.778834956,-8.98192015734,0.8040397756571426,17.35830764309524
0.811883607,14.373239381,-9.804825192577619,0.5265050183238094,18.196800824333334
0.816806067,14.878363654761905,-10.525305762466667,0.2960934419714284,18.900151177714285
0.821728461,15.286530676190477,-11.132084534014286,0.10013972938095221,19.46332293714286
0.826650693,15.586788495047621,-11.634041104857143,-0.06479150549047637,19.888679173809525
0.831573153,15.794788996190475,-12.039798730761905,-0.2018682182523811,20.199600132857142
0.83649554,15.938249133333334,-12.371250788238095,-0.3067143153952383,20.433550949047618
0.84141777,16.04681201190476,-12.641522339285714,-0.3816703634904764,20.624728056190477
0.846340149,16.132572309999997,-12.84911562138095,-0.4308141263000001,20.780884757142854
0.851262611,16.18661317333333,-12.984965687619045,-0.4538995558714287,20.88616216095238
0.856185072,16.190653482857144,-13.028787544714286,-0.45141455872857167,20.910532017142856
0.861107286,16.13493347142857,-12.958207266571426,-0.42072341471428587,20.829802249047617
0.866029669,16.013514472857146,-12.754123846619047,-0.35723493626190495,20.624823722380953
0.870951886,15.81749947857143,-12.41852231252381,-0.2651284122904764,20.285901755714285
0.875874346,15.52638676042857,-11.969611054238094,-0.13628508210000023,19.803219559523807
0.880796732,15.15244479395238,-11.39100446,0.021037392757142653,19.183919226
0.885718973,14.705061185809525,-10.673992974,0.2071930128047617,18.441562689142856
0.890641356,14.169439383952382,-9.813096738790476,0.42610724913809506,17.579974719761907
0.895563589,13.542393479999998,-8.810630480314284,0.6700531542809522,16.623256078476192
0.90048599,12.826193196333334,-7.684470426219047,0.9238391505190474,15.614661044428571
0.905408529,12.020247345619048,-6.471251124219047,1.1774983307095237,14.604345721000001
0.910330915,11.15775581752381,-5.223152228695238,1.403517043328571,13.662015712380951
0.915253146,10.282422337952381,-3.986003671504762,1.5892358067571426,12.854398916380953
0.920175529,9.420968342104763,-2.790901025314285,1.732400045538095,12.216147164476192
0.925097762,8.58898483562381,-1.6516663462666663,1.838378946033333,11.739826308285714
0.930020119,7.803403644433333,-0.5643650919809522,1.9081613790952379,11.407677859238097
0.934942581,7.051841048909523,0.4744505881619049,1.9451891411428572,11.185526746380953
0.939864737,6.31338655962381,1.4951776097333334,1.9530496654285714,11.047415660190476
0.944786967,5.585675801480952,2.5081870900190477,1.9388083787142858,10.955519674476191
0.949709341,4.8709106841,3.506903603447619,1.9058733781142856,10.88224332542857
0.954631803,4.159603976147619,4.484209333828572,1.8677607576142854,10.818121873047618
0.959554039,3.4460009564333327,5.4128955894,1.8299917607095235,10.755733327809525
0.964476422,2.7310788233857144,6.280943712209524,1.7920604263047617,10.698680270666667
0.969398655,2.0259626083380953,7.084212712733334,1.7510649476857139,10.652733338285714
0.974321114,1.3394199723380953,7.826227370542857,1.716055898447619,10.62846013495238
0.979243501,0.6833005349095236,8.51433140987619,1.6904083263523806,10.648565218761904
0.984165941,0.038059274385714235,9.129497177066666,1.6790837560666663,10.723111336095238
0.989088174,-0.6106785876142857,9.661418075590475,1.6743870860666665,10.848955098666666
0.994010634,-1.2444219645666668,10.089701732952381,1.6620433274,11.018972084238095
0.998933006,-1.8440466891857143,10.405994711428573,1.632445136733333,11.214959093142857
1.003855237,-2.4058223962809526,10.609253838904761,1.5882098050666664,11.406227687190476
1.008777634,-2.920619152852381,10.708038694333332,1.5192998080666666,11.569065320142856
1.013699867,-3.395187576661905,10.713469460857143,1.4302927142666664,11.687480760666666
1.018622134,-3.8374428578999997,10.631593659761904,1.3197861385333332,11.752922273809524
1.023544367,-4.248950433195238,10.47113511752381,1.188618328278095,11.765474945238095
1.028466827,-4.639523858142858,10.247144836285715,1.0446714280066665,11.737229147619047
1.033389222,-5.020062287666666,9.964342776857142,0.8951586630447618,11.677534865238094
1.038311453,-5.385006178,9.641841775809523,0.7427829479019046,11.599986094761906
1.043233913,-5.7288369337619045,9.280801047142855,0.5896140425685713,11.495846301428571
1.048156379,-6.063997563857142,8.886202403952382,0.44577433133047606,11.370149755714285
1.053078766,-6.403479303619047,8.478705928809525,0.31736695516857116,11.24080933142857
1.058000997,-6.747171084095238,8.07615668452381,0.1960199052876189,11.122694850952382
1.062923413,-7.089964821190476,7.699378195380952,0.07769076347809505,11.041569756666666
1.067845646,-7.432896704809524,7.354280880761905,-0.033042666117143044,11.004190845238096
1.072768038,-7.788281497380953,7.036525113285715,-0.13933142845047639,11.010423692380952
1.07769027,-8.153565974238095,6.74175008147619,-0.2500915722600002,11.051128535714286
1.082612668,-8.511009511047618,6.462739853571428,-0.3652706625457145,11.108655236190476
1.087535129,-8.850066775,6.186815511571428,-0.480863902917143,11.16953560047619
1.092457362,-9.159625280095238,5.902688037714286,-0.5962990916552383,11.222145327142858
1.097379754,-9.442263489380954,5.61947680647619,-0.7087834729457144,11.273374743333333
1.102302215,-9.698848474142856,5.347581681714286,-0.8141158077790478,11.325856746666666
1.107224448,-9.92351911147619,5.092510416380953,-0.906943667174286,11.374069191904763
1.112146817,-10.112017835619048,4.8538745130952385,-0.9792003316219048,11.41150509
1.117069278,-10.273225557047619,4.629587082666666,-1.0245099504447621,11.442572986190477
1.12199174,-10.416056996238096,4.414831411333334,-1.0412668071714288,11.472403122380952
1.126913998,-10.54615556604762,4.206617400809524,-1.0312935213638095,11.502305022380952
1.131836152,-10.662589481761906,4.004804917809524,-0.9968061404923813,11.528537778095238
1.136758524,-10.763894852952381,3.819394344428571,-0.9450062368209525,11.553013506190476
1.141680757,-10.854443777095238,3.640330530428572,-0.883424805754286,11.574209814761904
1.146603207,-10.939977736809524,3.453592198333333,-0.8176956162733335,11.592437558095238
1.151525593,-11.007068724761904,3.2865382490476187,-0.7591284272257145,11.60009143904762
1.156447824,-11.051804088095238,3.1348589262380955,-0.7066733851257145,11.59100625904762
1.161370207,-11.068394796857142,2.989316497619048,-0.6655429047923812,11.557186754285713
1.166292439,-11.045509837619047,2.8511281581904764,-0.642670337649524,11.49051306142857
1.17121489,-10.977743466428572,2.718274638857143,-0.6391920489828573,11.38588559242857
1.176137351,-10.868911288761904,2.5895383642380954,-0.6511463792209525,11.246388846380952
1.181059738,-10.726791381714285,2.460461843619048,-0.6687043294590478,11.076377055047619
1.185981974,-10.55486383904762,2.314589897809524,-0.6956570446019049,10.876518294238096
1.190904433,-10.338258062142856,2.1524909990238092,-0.7348696177542858,10.634551093666667
1.19582682,-10.069208054380953,1.980249480147619,-0.7800389513495241,10.345668075047618
1.20074927,-9.733143851857143,1.7946335772809523,-0.8279365229638097,9.997675672190477
1.205671502,-9.312987952142857,1.5702080570428574,-0.880864090797143,9.590762212666666
1.210593646,-8.782135178652382,1.2677264398047619,-0.9478075205447621,9.202715040428572
1.215516029,-8.119245459557144,0.8525960516142858,-1.0373288520019048,8.977736896095237
1.22043849,-7.280976657176191,0.2951066224238095,-1.144604807712381,8.983216624666666
1.225360857,-6.224693750985714,-0.4175361609095239,-1.2483542873000002,9.252079245619049
1.230283317,-4.967717805271429,-1.2794631933857143,-1.3172845754714289,9.765888287047618
1.235205497,-3.5750911338428573,-2.256384604385714,-1.3205557181142857,10.458757249904762
1.240127956,-2.145198185271429,-3.307768389195238,-1.2357947644904763,11.237257111333333
1.245050418,-0.7661258143190479,-4.392266687004762,-1.0465506257952382,12.025384239904762
1.249972789,0.506053607585714,-5.478115200052381,-0.7759473976095238,12.778387749904763
1.25489502,1.7221833190142857,-6.590910439480952,-0.45403406441904776,13.552585084666667
1.259817403,3.037331717585714,-7.770258851528571,-0.10037267766190487,14.467128079904764
1.264739641,4.566632407157142,-9.076005463385714,0.3191003686714285,15.647284894666669
1.269662023,6.3111820675857135,-10.475991231004762,0.7761405082904761,17.071755279428572
1.274584247,8.130920864490477,-11.824029484195236,1.2212334474809523,18.542726119857143
1.27950663,9.864743051109523,-12.986265306385715,1.6148885035285714,19.84501490447619
1.284429091,11.438289052157142,-13.934685155385713,1.970245361385714,20.913066382
1.289351314,12.852430798061906,-14.726660256433334,2.3192992210999996,21.815860999
1.294273697,14.12778554687143,-15.457292229457144,2.6535983767666664,22.65366652814286
1.299196158,15.287787982919047,-16.181979032199997,2.934441044290476,23.492964837238098
1.304118606,16.3390177323,-16.911633730190474,3.149902287052381,24.37511880342857
1.309040838,17.272770234966668,-17.606202670714286,3.3159427586714285,25.30507778485714
1.313963221,18.052208797190477,-18.204526311142857,3.441291377704762,26.197050242333333
1.318885683,18.64869415095238,-18.653254009476193,3.528023042909524,26.90125621142857
1.323807838,19.023728551428572,-18.902902693809523,3.5774446655285708,27.327565365714285
1.328730044,19.155272074285715,-18.92147182238095,3.590022051671429,27.43137136
1.333652427,19.065613972857143,-18.704729988095238,3.559492910242857,27.221180456190478
1.338574903,18.804876054285714,-18.283479508333336,3.4761983880476186,26.750242041428567
1.343497136,18.454597654285717,-17.688637210666666,3.3306062434761903,26.09398993
1.348419519,18.084055673333335,-16.93979510733333,3.1145160099238094,25.309498790952382
1.353341994,17.733307974714286,-16.05513064,2.855790209590476,24.434430477
1.358264227,17.31838959752381,-15.030218208833332,2.586204496533333,23.428294590904763
1.36318661,16.677457105857144,-13.826981271309524,2.3153402056666663,22.220077231190476
1.368109038,15.703225193,-12.387132848547619,2.000350633190476,20.788293278428572
1.373031271,14.402521498609525,-10.760527042547618,1.6668690205238095,19.213699621666667
1.377953731,12.91551749084762,-9.109459853880951,1.3679586013809524,17.706283926904764
1.382876136,11.411433346704762,-7.579276969833335,1.1497592120476188,16.47593181404762
1.38779829,9.980666446180953,-6.206222329357143,0.997440496,15.578789880714286
1.392720506,8.637906042133334,-4.924617516976191,0.8802923464285712,14.938406982619048
1.397642965,7.361460017419048,-3.6504860598333333,0.7924881424761904,14.446272280714284
1.402565365,6.13279382532381,-2.3386952755476194,0.7544205745714284,14.02344731738095
1.407487598,4.944383543228572,-0.9819773941190477,0.7669340985714284,13.626260647380954
1.412410057,3.7847996567999993,0.38068033445238086,0.818855290238095,13.236161748333332
1.417332444,2.6492997708,1.7033702539761904,0.9020951067285713,12.853887875000002
1.422254675,1.5452726129428571,2.961107685880952,1.0097150124761902,12.482072676428572
1.427177114,0.4815406927047617,4.1349405335,1.1344841097619047,12.135745011666666
1.432099501,-0.5524412888666668,5.211156640642857,1.259603154438095,11.82119555452381
1.437021961,-1.5639731412476192,6.1835697037857145,1.3702676796571427,11.552789201666666
1.441944164,-2.5445269725333337,7.050227187928571,1.4517293923747618,11.351140021666666
1.446866547,-3.479280890247619,7.802036830357143,1.4975744404509523,11.238265068333332
1.451788766,-4.351755242961905,8.42211346402381,1.508045868174762,11.236081592142856
1.456711148,-5.1426898056761905,8.902738026261904,1.4812730579414284,11.350037500380953
1.461633367,-5.830124251914286,9.241171127333335,1.4157683920557143,11.573988614095239
1.46655575,-6.407500753819048,9.438536507809525,1.3150701565890475,11.862948040952382
1.471477959,-6.880342232342858,9.499839078904762,1.192395538160476,12.113344455619048
1.476400418,-7.257264920666667,9.447854178380952,1.0579337776366666,12.26823349795238
1.481322805,-7.54028410004762,9.305912290380952,0.9091775857795236,12.320178614571429
1.48624505,-7.73424366547619,9.090958413714285,0.7433158202557141,12.27240856
1.491167432,-7.855375585142856,8.818605377761903,0.5575249635890474,12.137711759238094
1.496089971,-7.927409785190476,8.50755970847619,0.3567716323985712,11.938146361
1.501012357,-7.964806352380952,8.177675883095239,0.15553154129857127,11.69892542452381
1.505934588,-7.983192739095239,7.846251714714286,-0.032257129691904946,11.444969567333333
1.510856971,-8.001548449238095,7.522180716238095,-0.19725937211095257,11.19656997304762
1.515779198,-8.02954853152381,7.219027542,-0.3380108947288668,10.973836317809523
1.520701658,-8.058154878190477,6.955523649666667,-0.44703494826220014,10.788385818285715
1.525623839,-8.089359646809523,6.733458110190476,-0.5160031392907717,10.643287612571429
1.530546298,-8.120876766428571,6.548895563428571,-0.5439818093241049,10.53119855542857
1.535468683,-8.14574511847619,6.3952435085238095,-0.5325995701431525,10.440874463523809
1.540391145,-8.154869102333334,6.2684405872380955,-0.4898610970288668,10.361752752571428
1.545313377,-8.147084690285714,6.166490418619047,-0.4202629551274382,10.290965400666668
1.550235837,-8.123512517809523,6.088570163428572,-0.32444643301315257,10.228131628285714
1.555157993,-8.085607846571428,6.038500240904762,-0.20634895313696205,10.175596652571429
1.560080452,-8.041377044857143,6.018333049095238,-0.06972704366553348,10.139115559714286
1.565002871,-7.997162977857143,6.031083515761905,0.08688129094399034,10.123848291142858
1.569925104,-7.954206330428571,6.074023314952381,0.2636398073249427,10.12810444447619
1.574847519,-7.91723780404762,6.140481403952381,0.458060905658276,10.151251957333333
1.579769675,-7.885313647142857,6.224657353952381,0.6632731922297046,10.189597022238095
1.584692058,-7.85921971004762,6.320598057380953,0.869675096658276,10.239166011809525
1.589614514,-7.834645157761905,6.426269167999999,1.0656623893249428,10.295058311619048
1.594536976,-7.811490331380954,6.539397557619049,1.2464345348963712,10.356287753333334
1.599459132,-7.788406712666666,6.654961835809523,1.4069274829916094,10.420174071095238
1.604381377,-7.761113257666667,6.767598946904762,1.5456112959487522,10.480551193285713
1.609303837,-7.730402333428572,6.873850845190477,1.661542440748752,10.535249124761904
1.614226222,-7.69133956095238,6.967136224142856,1.7564419631677997,10.57553609047619
1.619148439,-7.636362234809523,7.0495189031428565,1.8341866759761902,10.596405341904763
1.624070899,-7.564505191142858,7.120772747857144,1.893791246938095,10.59693708
1.628993361,-7.481409322714285,7.185233229761904,1.937217201442857,10.58391736095238
1.633915738,-7.405234064428571,7.247933433238095,1.9613460585714286,10.573503997619047
1.638837969,-7.348919391714286,7.307411012238095,1.9595286306666666,10.572688874285713
1.643760352,-7.316718351333334,7.358351979952381,1.929392967904762,10.580690481428572
1.648682793,-7.299429484857143,7.397406918714285,1.8691247304047618,10.58889820047619
1.653604949,-7.294157573238095,7.420785767714285,1.784463589200476,10.592916967142857
1.658527185,-7.289154325285715,7.426854860238094,1.6762493953147615,10.583791832857143
1.663449644,-7.2763562884285715,7.409933816809524,1.5480525825147617,10.552503951904763
1.668372106,-7.249890531904762,7.358653817857143,1.4026063898623806,10.487917099190478
1.673294257,-7.208624204095238,7.268405210380952,1.238642158052857,10.387082878761905
1.678216639,-7.14700730652381,7.135010128904761,1.0566155333861904,10.244304285095238
1.683138872,-7.0498384521904764,6.945788326666667,0.8588658619099999,10.042352483809523
1.688061601,-6.8858934925238096,6.682578575,0.6513625317671428,9.753496291285714
1.692983834,-6.641926436238096,6.325647374652381,0.4386356208623808,9.385274306
1.697906217,-6.293221923424286,5.848653938747619,0.21136794686238083,9.040426577952381
1.702828411,-5.803836636424286,5.211009988414285,-0.03188114023285728,8.85948533147619
1.70775087,-5.148650233043334,4.384511071271429,-0.27583414118523825,8.91054331004762
1.712673007,-4.326161266614762,3.358442565652381,-0.4814282891376192,9.20569404052381
1.71759539,-3.3764090492338092,2.1528484347,-0.5964280006614286,9.715726380047618
1.722517865,-2.3549731299957144,0.7945176399380953,-0.5739182895185716,10.401504983857143
1.727440098,-1.308305349567143,-0.6743702567285714,-0.3748624815661906,11.230669338142857
1.732362481,-0.296765481519524,-2.191692002490476,-0.024456266232857328,12.130173312904763
1.737284718,0.6762916524328569,-3.685537056347619,0.37350788771952365,12.99990746004762
1.742207101,1.671935472385238,-5.144232195680952,0.7352127055766664,13.833673978142858
1.747129563,2.7948645230042857,-6.657816854776191,1.0227736198147617,14.758060179095239
1.752052034,4.116016051956667,-8.320557744061906,1.2332338171719046,15.910407878619047
1.756974267,5.644919536051905,-10.112595889395237,1.3249633426619045,17.29417002480952
1.761896726,7.278813798147143,-11.899503244490475,1.334842628573333,18.76284850338095
1.766819113,8.889235228528095,-13.524903560728571,1.2587373915638094,20.135713001
1.771741267,10.380145599861427,-14.927418404490476,1.1324879135971426,21.328960204190473
1.776663727,11.720715822480475,-16.143024503728572,1.0109571480257142,22.354465752238095
1.781585959,12.919502171813809,-17.242616258442858,0.9189822992161903,23.276479272095237
1.786508361,13.993354052337619,-18.279350419300002,0.8394338721685712,24.18698608671429
1.791430822,14.945190127480476,-19.260710968395237,0.7541155906447617,25.15985448019048
1.796352978,15.78154086371857,-20.155592157952384,0.6639973527399997,26.19482093595238
1.801275534,16.480455103285713,-20.90800221761905,0.5893185002638093,27.161558186857146
1.80619769,17.003962789285715,-21.468763532857142,0.5280598322638094,27.90864014380952
1.811120058,17.30991767709524,-21.794099080952385,0.47006238983523785,28.353642940476192
1.81604252,17.394188971904764,-21.858302070952384,0.3987316721685713,28.46643328952381
1.820964753,17.303020340952383,-21.66425704952381,0.2779262411685712,28.27061686904762
1.825887221,17.098106974761905,-21.228348323333336,0.05456943793047601,27.806376029999996
1.830809608,16.811315173095238,-20.588018281285713,-0.30387456021238113,27.10159766714286
1.835731839,16.492395105619046,-19.791441349714287,-0.7597597292742859,26.211130532380952
1.840653987,16.144349029714284,-18.898292155666667,-1.2117512153266667,25.21383806361905
1.845576447,15.703298454952382,-17.904725687857145,-1.5593376541361907,24.122616597190476
1.850498851,15.07128449842857,-16.715493605361903,-1.7629671364695239,22.88420584561905
1.855421312,14.180940633761903,-15.244623939076192,-1.827869623707619,21.47267490114286
1.860343545,13.019692522699998,-13.52443872750476,-1.7326427738980952,19.923564305285716
1.86526602,11.679489498366667,-11.705625744028572,-1.5229965324476193,18.391696441761905
1.870188175,10.296150354557142,-9.95380413517143,-1.2054999148285714,17.05489183604762
1.875110558,8.977258465795238,-8.333123462314287,-0.8246260530666667,15.993029589380953
1.880033034,7.756323915985715,-6.8108754666,-0.4386982510190478,15.190051897952381
1.884955495,6.621540625509524,-5.317072215171429,-0.08266478959047634,14.578820677000001
1.889877728,5.545764275604762,-3.79483207612381,0.25443735112380933,14.075551271285715
1.894800101,4.502948953604762,-2.233839880409524,0.588581057838095,13.619304984619047
1.899722334,3.482856398080952,-0.665621558504762,0.9191726796952379,13.184401407476189
1.904644745,2.495849052652381,0.8618827719714285,1.2362732045999998,12.777026936523809
1.909566978,1.5491290427476192,2.326048095780952,1.5418734390761901,12.39364413890476
1.91448937,0.6575332930809523,3.7082309891142855,1.832923878885714,12.047559675095238
1.919411832,-0.1692367855380953,4.991091518161904,2.0865725062666662,11.751570188428571
1.92433407,-0.9435596131095239,6.162825465304762,2.290489935838095,11.519131136999999
1.929256452,-1.6768839366809527,7.215884180542857,2.4502548870095233,11.354144280333335
1.934178914,-2.363853239633334,8.153483498971427,2.5558694115047618,11.273141018904763
1.939101131,-2.997967278014286,8.965031709304762,2.599516886692381,11.299864871285715
1.94402359,-3.5718795125380955,9.638587673828571,2.592386839120952,11.452104028619047
1.948945977,-4.075216373538096,10.167481962019046,2.5262925548876187,11.726329307904761
1.953868194,-4.514710461109524,10.555487553571428,2.405687597720952,12.056018194238096
1.958790653,-4.902910409252381,10.81249854704762,2.2408699359495237,12.336317204904761
1.963712794,-5.236514409428572,10.95396625452381,2.044282941768571,12.529899107904763
1.968635177,-5.508810554285715,10.99627099742857,1.8248086048590475,12.631973247142858
1.973557405,-5.727891263571428,10.954441388714285,1.5931009382780952,12.650050911428572
1.978479865,-5.912039416238095,10.845945358476191,1.3579893156923808,12.602778781428572
1.983402266,-6.069793655809524,10.682014420238096,1.1291747066828568,12.502901602380952
1.988324725,-6.209611529476191,10.475114005190477,0.9121577642399998,12.368111054285716
1.993246958,-6.341089226,10.234161104809525,0.7108102428447618,12.210996452380952
1.998169346,-6.466671852904762,9.974079995095238,0.5278890560495236,12.043932377619049
2.003091578,-6.592875889476191,9.70836580395238,0.36411124344476165,11.880285685238096
2.008014052,-6.7225329309047615,9.450686500380952,0.21935281460666647,11.73109023142857
2.012936513,-6.859852700095238,9.212085361,0.09335119684476172,11.60779905952381
2.0178589,-7.0022355943333325,8.995959418619048,-0.020127614164762102,11.510975084761904
2.022781107,-7.152607577285716,8.803930873190476,-0.12068047392190495,11.442528442380953
2.027703489,-7.305891241428572,8.633796714714284,-0.21703709288857162,11.398006469047619
2.032625636,-7.453872430952381,8.484467438380952,-0.3135297097742859,11.371738626190476
2.037548096,-7.591119743619047,8.35061765852381,-0.4023732356504764,11.35594273095238
2.042470314,-7.713137308809525,8.22851859952381,-0.48609604420476205,11.34452566
2.047392696,-7.818739368857143,8.114569187142857,-0.5690873776285715,11.332973236666666
2.052315158,-7.912088553190477,8.004282565333334,-0.6484913748238098,11.318935642380954
2.057237377,-7.989929085761905,7.894903024047618,-0.7193554228476193,11.296356062380951
2.062159759,-8.047969613809524,7.7870026543333335,-0.7803523306476192,11.262454899523808
2.067082221,-8.08156728747619,7.6799162229523805,-0.8231760944666668,11.211821942571428
2.072004682,-8.098819914333333,7.576086771,-0.8454116653857143,11.151439314904762
2.076926915,-8.108957540428571,7.4810423851904755,-0.8473287139666668,11.091742890238095
2.081849298,-8.118363493952382,7.391524156047619,-0.8294659993190479,11.035627404714287
2.08677152,-8.126291865380953,7.310028916428571,-0.798573999009524,10.984778344619048
2.091693903,-8.121962002333333,7.230879352285714,-0.7571413330809525,10.92767228652381
2.096616136,-8.09808558509524,7.150680314999999,-0.7070771439857144,10.856655152714287
2.101538519,-8.061257861904762,7.066277027238096,-0.6523434773523812,10.77399787604762
2.106460741,-8.014985061809524,6.980868430476191,-0.594474762509524,10.684082930809524
2.111383201,-7.96382359095238,6.89403347752381,-0.5375910016523812,10.589512707
2.116305587,-7.905879928904762,6.801892848333334,-0.48722843028571444,10.48585405304762
2.121227833,-7.84442774452381,6.7063711258095235,-0.4415264780809525,10.376830835523808
2.126150293,-7.784188338666668,6.609505880523808,-0.3947795258857144,10.267614024428571
2.131072679,-7.724578675761904,6.511248588666668,-0.3400781926380954,10.157369220666666
2.135995134,-7.669585682095239,6.411052590428571,-0.27066400490000014,10.048279143190475
2.140917367,-7.620759464428572,6.306905156238096,-0.18923000337619067,9.940607678047618
2.145839749,-7.579012484761904,6.202173482952381,-0.0973097666047621,9.837375631142859
2.150762211,-7.540774140999999,6.093170733809524,0.005039567228571243,9.73433850495238
2.155684444,-7.4906767662857145,5.9734181677619045,0.10626927889999982,9.616250784523809
2.160606626,-7.426364944047619,5.836008117428571,0.19883570804285694,9.478638545809524
2.165529008,-7.336973667095238,5.671964827142856,0.2802205683714284,9.308233629095238
2.170451246,-7.221889268714286,5.467989734333334,0.344041188738095,9.100290435809525
2.175373936,-7.0741125514761904,5.208148681071429,0.389909855138095,8.84781768857143
2.180296169,-6.881740978714286,4.872256006590477,0.4103972842685713,8.553460035571428
2.185218328,-6.624541589142857,4.434196245161904,0.40625656999666643,8.263904275047619
2.190140788,-6.273139454747619,3.8601002012571426,0.3775847121442855,8.062503053095238
2.195063249,-5.798167592652381,3.117309933685714,0.3313115686252379,8.027607470904762
2.199985631,-5.182573841366667,2.1876976604,0.27670195060619024,8.20767439042857
2.204907861,-4.404149487557143,1.0618505026380956,0.2291055215299998,8.629695561380952
2.209830321,-3.448538236033334,-0.2338953694571427,0.227586664620476,9.286654426619046
2.214752694,-2.3958423938428575,-1.7199220881714283,0.30990566883952364,10.170920677571429
2.219674848,-1.3141373006047619,-3.3658695672190477,0.4963668705680951,11.239107683904761
2.224597331,-0.23976896012857155,-5.1233186946952385,0.7288655759442856,12.429770282857143
2.229519564,0.8582212803476188,-6.949534483980952,0.9505013887442855,13.708096691095239
2.23444197,2.0791388229666663,-8.804615156504761,1.151699717558571,15.084500952952382
2.239364203,3.469001473823809,-10.674183004790475,1.332049432963333,16.577489261857142
2.244286586,4.978165421061905,-12.522265070266666,1.4858364313919046,18.13800514938095
2.249209066,6.535558336252381,-14.284411407028571,1.5735353309538094,19.668231472
2.254131299,8.055151802014285,-15.883666196933332,1.5864255690871427,21.066324179142857
2.259053682,9.469910893109523,-17.278324285552383,1.5671944737114285,22.290544587190475
2.263976157,10.733948048014284,-18.48016693417143,1.5591207116495238,23.334114931619045
2.268898619,11.814504327157143,-19.531714597742855,1.5830205677161904,24.235329042142855
2.273820852,12.723854745109524,-20.465519580695236,1.6194686632542852,25.05175599238095
2.27874322,13.501433712014286,-21.29962382614762,1.6435290913971428,25.83644421157143
2.283665453,14.176535491776189,-22.01858111695238,1.6498500440571429,26.599030955428567
2.288587841,14.756823731442855,-22.592647914714284,1.6412089486671426,27.293559487666666
2.293510074,15.240776810714285,-22.999406904380955,1.63198947251,27.851266986857144
2.298432451,15.58974277342857,-23.202789305714287,1.620637140643333,28.19001920047619
2.303354913,15.775031497857142,-23.173596744285714,1.6118041395861904,28.25639313285714
2.308277145,15.779396101904762,-22.89326463333333,1.5966587582957141,28.02128591904762
2.313199547,15.59030709895238,-22.37687183490476,1.537243520052857,27.489043083333335
2.31812178,15.277700446190476,-21.59218996957143,1.4014412311814284,26.66268109904762
2.323044239,14.898864359523808,-20.56030405047619,1.1808419346409522,25.583744445285717
2.327966687,14.481639907095238,-19.320708205761907,0.9336772775790475,24.306373448190477
2.332889074,13.984984102238096,-17.910442555809524,0.7132762743361903,22.855108919380953
2.337811304,13.297760032190476,-16.363863024709524,0.5244749459980951,21.22072750738095
2.342733427,12.36861853352381,-14.700809841519046,0.3620123737457141,19.418844302666667
2.347655583,11.247038821280952,-12.960481302661904,0.23182356518380934,17.58075687990476
2.352577965,10.00893929437619,-11.213592006566667,0.17066395159809508,15.857038344666668
2.357500417,8.74327120885238,-9.540824844138095,0.17937061777428553,14.361101335285715
2.36242265,7.498783116995239,-7.986741042757142,0.21647419001190457,13.147416997857144
2.367345037,6.299234849852381,-6.550523280614287,0.2346999045785713,12.226631138333332
2.37226727,5.184062826995238,-5.178926626328571,0.2162696673166665,11.571121932142857
2.37718973,4.166182546138096,-3.8201027139476187,0.18023190576428555,11.121304909285714
2.382112102,3.219695596280952,-2.4537361458523805,0.15242223974047603,10.807944596428571
2.387034333,2.315178785804762,-1.0959330734714285,0.13978433467285697,10.594399960714284
2.391956793,1.4277616285666666,0.23340817890952412,0.1389153826823808,10.46287724595238
2.396879263,0.5340511289,1.5226746746238098,0.1348410490014284,10.377421838809525
2.40180165,-0.35002358176666676,2.75162508462381,0.12404947763476173,10.324824641190476
2.406723881,-1.2164377881476192,3.890558220814286,0.09438347672523793,10.298265802142858
2.411646021,-2.0670537436714285,4.925498622719048,0.04160219287285697,10.295875141666667
2.41656848,-2.8973426761,5.846916721861906,-0.03280028135571446,10.320135553095238
2.421490875,-3.693099492957143,6.646763643528571,-0.12210965867476208,10.376777471666665
2.426413107,-4.445427230338096,7.347155095052382,-0.22901570089619064,10.491404868285716
2.431335567,-5.1413391601,7.941701549338094,-0.35353374450095254,10.670164965857143
2.436257727,-5.763615579814286,8.4125366901,-0.5028480344961906,10.911655313714286
2.441180186,-6.3061806303857155,8.74824579647619,-0.6702195629676192,11.215347402857143
2.446102648,-6.772044970861905,8.951520466571427,-0.8422729937152382,11.549708658
2.451024795,-7.169092675047619,9.026052453190475,-1.0066112730580954,11.83682339
2.455947254,-7.503489426190477,8.986202445285715,-1.1567409858057143,12.030111764666668
2.460869716,-7.782170715761905,8.852631978571427,-1.286159702329524,12.130614315190476
2.465792093,-7.999995095333334,8.648550397857143,-1.3979548950057146,12.148683503809522
2.470714552,-8.140395800190477,8.40247527857143,-1.4965275125104764,12.094572507380953
2.475636708,-8.226920763571428,8.121776706666665,-1.5897263214057145,11.980966463
2.48055891,-8.302052793,7.804248004571429,-1.6820805126152383,11.83198046204762
2.485481292,-8.387211527095237,7.456714551285715,-1.778018132924762,11.668598238714285
2.490403831,-8.48070657804762,7.087132715571429,-1.873264986152381,11.49673494061905
2.495325997,-8.566190447,6.7028251722857135,-1.9634552200857143,11.311338029190477
2.500248379,-8.638856115904762,6.312129849952382,-2.0452207866476195,11.117610229666665
2.505170612,-8.70999063752381,5.92008244447619,-2.1199711731904762,10.933203667285714
2.510092995,-8.772116842428572,5.547609601904762,-2.188345125761905,10.769063001571428
2.515015456,-8.817853745714284,5.202150231333333,-2.2483734573809526,10.622911817285715
2.519937918,-8.851151693190477,4.887815906904763,-2.294871267809524,10.494258566809524
2.52486016,-8.884427161190477,4.608803067904763,-2.3327249401904764,10.392643719190476
2.529782542,-8.925360588523809,4.34097184452381,-2.359893759047619,10.305908626333332
2.534704775,-8.984660148333333,4.086093141904763,-2.3721980990952383,10.241352926333333
2.539627139,-9.068200020238095,3.847757895761905,-2.3604998530952384,10.206575089190476
2.5445496,-9.175963515,3.6304700771428577,-2.316645991190476,10.204015549666668
2.549471833,-9.302162760619048,3.470868644238096,-2.3032123644761904,10.25141453352381
2.554394288,-9.433987276571429,3.347836511428572,-2.298848509761905,10.32856921
2.559316443,-9.572916916142857,3.253593842142857,-2.3135210389047622,10.432435047714286
2.564239183,-9.71143736152381,3.1763042665238097,-2.3579789457142857,10.550919469428571
2.569161416,-9.85748318247619,3.1043709856666672,-2.4140084641428574,10.681204332047619
2.574083875,-10.005930355238096,3.0241610832857146,-2.464236605714286,10.809903331333334
2.579006276,-10.148069381380953,2.9265258992857146,-2.4972421270952383,10.923376694285714
2.583928736,-10.269195011571428,2.8118689116190483,-2.5063646009523812,11.006550932857143
2.588850968,-10.357745306666667,2.6899534690476194,-2.4929656925238097,11.051588008095237
2.593773419,-10.422078041904761,2.5700955674285715,-2.4652375550000003,11.070700509047619
2.598695805,-10.495585305238095,2.445256613476191,-2.4337729385238096,11.09739917142857
2.603617959,-10.59441770809524,2.3103585640000004,-2.4055228970476192,11.149330631428573
2.608540414,-10.700976689523808,2.1782215095238096,-2.3697678474285717,11.213174198095238
2.613462647,-10.804137956666667,2.054561932809524,-2.312470509809524,11.27609515
2.618384986,-10.895827384285715,1.941546650071429,-2.2250560379380957,11.328526237619048
2.623307219,-10.97307246095238,1.832093795071429,-2.1226058488238095,11.367547852857143
2.628229621,-11.039255188095238,1.7200106495190481,-2.0165820859380954,11.397032667619047
2.633152082,-11.078352837666667,1.6005424170142861,-1.922919128604762,11.403286683809524
2.638074315,-11.093942960428572,1.473986940157143,-1.8550561240809524,11.39220972904762
2.642996702,-11.104416938380954,1.3357667548428576,-1.7809219843190478,11.381679498095238
2.64791924,-11.072547186333333,1.169795941176191,-1.7120347931380955,11.342433941666666
2.652841627,-10.962797324047619,0.9293857551761907,-1.5964641798285715,11.233787233904762
2.657763854,-10.756547996333333,0.6282301369380955,-1.4671709924242857,11.074233163095238
2.662686236,-10.422753561428571,0.24908717703333366,-1.320297512629048,10.887565960285714
2.667608464,-9.968010397285715,-0.22427843068095205,-1.1536325546052384,10.74696613
2.672530847,-9.396679390238095,-0.8137986014428569,-0.9735652254385717,10.707627153809524
2.677453055,-8.724746500142858,-1.53930631477619,-0.7731179442480954,10.812861261428571
2.682375438,-7.973826090857143,-2.4152422950619044,-0.5439641408671431,11.083496806666668
2.687297924,-7.149580864809524,-3.443646650061904,-0.28285757029571446,11.521742329999999
2.692220156,-6.236254805809525,-4.622362639919047,-0.019397291771904926,12.125517250476191
2.697142539,-5.255931513666667,-5.927988374014285,0.2587852375138094,12.862609764761904
2.702064776,-4.157513868428571,-7.342345888680952,0.6709086735138093,13.744427144761906
2.706987235,-2.9714261689047623,-8.773854021157144,1.3489150672280952,14.733025059523811
2.711909697,-1.923249449047619,-10.160789476442858,1.7328516370376188,15.545447216666668
2.716832083,-0.7763594442857142,-11.559174955728572,1.9573145378947618,16.40125439047619
2.721754543,0.42896931523809523,-13.033141241942856,2.0971421554519045,17.388089447619045
2.726676776,1.5917643366666665,-14.594696451514286,2.243118199337619,18.495051965238094
2.73159893,2.718565373333333,-16.194329117771428,2.386990576737619,19.667725952857143
2.736521312,3.8528982119047623,-17.706526012980955,2.5132004346423806,20.81725147857143
2.741443784,5.062247617142857,-19.074435137742856,2.6020535753185716,21.906434397619048
2.746366017,6.306767395857143,-20.282711943190478,2.6840134331661902,22.900566509047618
2.751288399,7.483546688714286,-21.32904092504762,2.7867575725566667,23.80759214214286
2.756210866,8.546594483571429,-22.23903996657143,2.8806059996757143,24.673090164666664
2.761133099,9.496262414428571,-23.052207175285712,2.9433216652238094,25.545130570238094
2.766055481,10.334645067142858,-23.771871521904764,2.976416905809524,26.423534033047616
2.770977714,11.081816508714287,-24.36467833809524,2.9964326677857143,27.233578039999998
2.775900174,11.744669312619047,-24.771782648571428,3.0004522404285714,27.88257417523809
2.780822649,12.315309660619047,-24.940817606666666,2.9699190515619045,28.29988908190476
2.785745036,12.78582025704762,-24.834347952857144,2.8898836744619048,28.438074835238094
2.790667266,13.141354946714284,-24.446944373809526,2.7526642454476193,28.28376794476191
2.79558964,13.354535829142858,-23.790023350238094,2.5964597748666667,27.846674346666667
2.800511796,13.456448418428574,-22.897257283047615,2.4180261522190474,27.17527967523809
2.80543426,13.42369456461905,-21.776778198761903,2.1008947152190474,26.258420466666664
2.810356492,13.296623093,-20.50929492452381,1.522892608495238,25.14667308952381
2.815278952,13.27940745504762,-19.161138847190475,1.2422883737333332,24.154499040285714
2.820201132,13.111847013714288,-17.67976341409524,1.113780041495238,23.105694352095238
2.825123591,12.811755974285713,-16.006727315714286,1.0569818048047617,21.955554146476192
2.830046053,12.474809101,-14.136135766095238,0.9878944271857141,20.74646503147619
2.834968505,12.106785524,-12.127130946095237,0.9182298126619046,19.536835477666664
2.839890892,11.661718980952381,-10.113920331333334,0.8723247647380952,18.428485401
2.844813123,11.082881574857144,-8.168258514190475,0.8826860501761903,17.445142379095238
2.849735514,10.43417577442857,-6.305502965619047,0.8669970489809522,16.598643832428575
2.854657747,9.79129256447619,-4.520440766095238,0.8030351464238092,15.90210590242857
2.859579767,9.174707826571428,-2.7928504775238094,0.7171127193190474,15.314519857666669
2.864502227,8.570476026,-1.0886148556190474,0.6280553390952379,14.772655114809524
2.86942462,7.9537217553333335,0.600807388666667,0.539303716495238,14.238269413857143
2.874346853,7.303297550361905,2.2497631424761906,0.44324904896190465,13.708692039571428
2.879269352,6.625181464319047,3.8182899100952388,0.34308347743809503,13.214547041
2.884191738,5.9388630641904765,5.273757770095238,0.24758247463809505,12.786235388142856
2.889113969,5.273449038690477,6.592014602476191,0.1599499491047617,12.453630400047619
2.894036428,4.646376158833333,7.763913035333334,0.0829737576761903,12.228739113380952
2.898958815,4.064704807866666,8.793626711285714,0.01355851761428553,12.109756632428573
2.903881275,3.518518171257143,9.696034561714285,-0.04496100757619066,12.084869664809522
2.908803507,2.99892180907619,10.479264752666667,-0.08802357954285733,12.139300666238094
2.91372589,2.5032795982952383,11.146967410333334,-0.11924772177142874,12.254056140047618
2.918648352,2.0342974807809524,11.69899560109524,-0.14423614929895257,12.408036748809526
2.923570492,1.5879414056380954,12.13049629704762,-0.1643473390132383,12.574173596523808
2.928492723,1.1668937351142856,12.444225787714288,-0.18454900502752397,12.726375167380953
2.933415183,0.768937443304762,12.647017841904761,-0.20912538516561924,12.838643506190476
2.938337553,0.3902755269714285,12.750711803809525,-0.23416471883704779,12.89940702761905
2.943259786,0.029074808304761876,12.764519872380953,-0.2554766732132383,12.901661814761905
2.948182169,-0.3147586155047619,12.696969849047619,-0.27417538682276205,12.846077569047619
2.953104654,-0.6486588401238096,12.55913529995238,-0.27212448182276205,12.74056227047619
2.958027116,-0.9784595594095239,12.359682400380953,-0.25426991118942877,12.591644839523807
2.962949267,-1.3121254696,12.116881006666667,-0.21957071953704782,12.416969668095238
2.967871726,-1.6572289037904764,11.849236714761906,-0.16693781434657162,12.234107963809523
2.972793959,-2.017450755219048,11.567567824523811,-0.10133114646561922,12.054457167619047
2.977716409,-2.382317241819048,11.280999909619048,-0.023356670898952558,11.883017971428572
2.982638795,-2.747370427204762,10.991157962571428,0.057775374934380765,11.718562115714285
2.987561007,-3.1111782388380953,10.69960219457143,0.1324748051629522,11.56299704952381
2.99248339,-3.470067059385714,10.40431744652381,0.1972234726962855,11.410934814761905
2.997405623,-3.8190230078142853,10.103498503857143,0.25084085361057123,11.258344933619048
3.002328005,-4.158432949895238,9.794043427095238,0.29347942581057124,11.10177583895238
3.007250238,-4.488051804761905,9.472358430904762,0.32308456956009507,10.937930446
3.012172697,-4.808290859057143,9.138314996428573,0.3382024741739046,10.767623316619048
3.017095084,-5.120804525561904,8.798082442666667,0.34136980752152357,10.596737927047618
3.02201732,-5.424511568904762,8.462748254952382,0.33678885506142836,10.435544011952382
3.026939779,-5.712169845904762,8.141132786142858,0.32534471199857123,10.290844271285714
3.031862241,-5.983153558904762,7.836250009857143,0.31242876013333315,10.165535835095238
3.036784618,-6.239810852761904,7.5537428172857135,0.308292664690476,10.064679957428572
3.041706848,-6.480313743857143,7.297287850142858,0.31493561654285696,9.987532023666667
3.046629231,-6.707114548904762,7.065610249904763,0.3301462833714283,9.932208448904763
3.051551435,-6.9183865955714285,6.860362393476191,0.35003104426190457,9.897011913190475
3.056473817,-7.110328220142857,6.684850874333334,0.3743500430285713,9.880974278428571
3.061396418,-7.276349362809524,6.537555512857144,0.4026430906666665,9.877037133666667
3.066318651,-7.412763550095238,6.4137439500000015,0.43803370897619026,9.87821492652381
3.071241033,-7.515935489000001,6.304701782333333,0.4820053752476189,9.873624585571427
3.076163275,-7.584399450285715,6.205440407619048,0.5322490424428569,9.856758264619048
3.081085658,-7.62680235352381,6.1101181392380965,0.5754864248857141,9.825798974190477
3.086008119,-7.648819491857141,6.018645422666667,0.6125770471476188,9.783432009428573
3.090930572,-7.6476779210000005,5.930484294761905,0.6476379978238094,9.726965653380953
3.095852805,-7.627018860285713,5.845690204857143,0.6813699040190474,9.658507655714285
3.100775187,-7.592469147142857,5.76642506452381,0.7163473798190474,9.583580523238094
3.105697629,-7.551257065238095,5.694229443761905,0.751190761490476,9.508325885714285
3.110619862,-7.503558635619048,5.627093110666667,0.7852604763790474,9.431262717857143
3.115541997,-7.453438872285714,5.55667001852381,0.8198636665890474,9.350823709047619
3.120464457,-7.394429592761905,5.470664671380952,0.8556319512747618,9.255347269380954
3.125386942,-7.313023022142856,5.354319572333334,0.8941531428242855,9.126872519428572
3.130309328,-7.196563425428572,5.190041581666667,0.9315979991966665,8.947950398
3.135231482,-7.03252742395238,4.965193390742858,0.9565087131428571,8.707526155380952
3.140153961,-6.808702173619048,4.658607616185715,0.9582497605571427,8.408255531142858
3.145076422,-6.521598849904763,4.2517952321857155,0.9266216180476189,8.102053587952382
3.149998578,-6.1647127639,3.732257147519048,0.8595279987666664,7.861402443619048
3.154921029,-5.727011484704763,3.087530099138095,0.7667680971809522,7.730447333809524
3.159843261,-5.203171772561904,2.299733011661905,0.6574022393809522,7.736396626666667
3.164765644,-4.606841334228572,1.3627001303285717,0.5427825245238093,7.895941050476192
3.169688091,-3.952908717419048,0.27494031785238127,0.4353679042523807,8.217805743809524
3.174610323,-3.238920095419048,-0.9483111159095235,0.3555518094238093,8.699839529047619
3.179532701,-2.4805235379904764,-2.3078867961952376,0.32647356994761884,9.34665134047619
3.184454934,-1.6990717450857142,-3.8116071024333333,0.36123499313809504,10.167796863761904
3.189377321,-0.9006602849428572,-5.438449714528572,0.4264507964238093,11.139737654714285
3.194299554,-0.06916157118095248,-7.158761628623809,0.4824487017095236,12.242305807904762
3.199222244,0.8249525827238096,-8.951778856861907,0.5163700342809522,13.473849106047618
3.204144184,1.7827455688190474,-10.793482725766667,0.5266423668666664,14.815409655380952
3.209066643,2.7837552599619046,-12.631011363004761,0.509257700095238,16.20591839090476
3.213989028,3.7629746513428572,-14.389987663719047,0.45532084254285693,17.548432351238098
3.218911504,4.6630393240095245,-16.00047960948095,0.37474322492380935,18.754416157999998
3.223833737,5.469119052438096,-17.45099256381429,0.2750005597476189,19.820205253904764
3.228756197,6.176728819438095,-18.770135620861907,0.16932508094761886,20.794712660857144
3.233678554,6.777277790676191,-19.9949076371,0.08830136799523791,21.739844696285715
3.238600785,7.279991039533333,-21.153488156080954,0.044144368180952194,22.70969905985714
3.243523149,7.700344747342856,-22.246515103714287,0.03905560673333315,23.723287557952382
3.248445381,8.0659532692,-23.25921428780952,0.0671370358761903,24.73544044252381
3.253367764,8.38392759252857,-24.157301766714287,0.1229215607857141,25.662576789714286
3.258290226,8.630786067285714,-24.89725299142857,0.19873641533333314,26.432861201904764
3.263212458,8.791882924000001,-25.445705369047623,0.27620127404285694,27.00012341476191
3.268134841,8.86677919147619,-25.77928988190476,0.3407790374766665,27.338385578571426
3.273057074,8.858651002571428,-25.877525784285716,0.3892392765757141,27.428666066190473
3.277979533,8.75147242804762,-25.737048921428574,0.41240265800904746,27.26225430761905
3.28290199,8.56035091795238,-25.34148061857143,0.39976804005666655,26.82665473142857
3.287824377,8.295569851619048,-24.664883295714287,0.35244699862809503,26.100413444761905
3.292746607,7.956784328142858,-23.724267959809524,0.3057410487709522,25.104563836095238
3.29766899,7.525669569333333,-22.545136156809527,0.2917256693423808,23.86507676752381
3.302591223,6.967118937452382,-21.14743207795238,0.3159293841995236,22.401406096857144
3.307513624,6.2777057105619045,-19.558222213561905,0.37429271400904746,20.792109624238094
3.312436086,5.477432928133333,-17.838886351228574,0.47010495098047606,19.21372787238095
3.317358324,4.632063816085714,-16.079102901419045,0.6076852818757141,17.799742711
3.322280706,3.8084701542285715,-14.354857580133332,0.7695641402090474,16.63490341219048
3.327202929,3.0253649169428574,-12.684882299180954,0.9405162786376189,15.716550107047619
3.332125312,2.2851925308,-11.047992205514285,1.1001676603042856,14.991492685619047
3.337047773,1.5964698976571428,-9.4152169898,1.219411895185238,14.388922770380951
3.341970001,0.9446577983714286,-7.772510027895239,1.298139421528095,13.840453831809524
3.346892461,0.2939003720857142,-6.0566353102761905,1.3312531828423808,13.362992903238094
3.351814847,-0.3676895002000001,-4.279084022657143,1.3283062298661903,12.928924988476192
3.356737302,-1.0260199180095237,-2.4815701517047613,1.2902085147709523,12.51940417990476
3.361659535,-1.6692549656761904,-0.7111331836095236,1.2093083225090475,12.152422608952381
3.366581688,-2.3074272062,0.9934271416285715,1.0998570853233332,11.83817312704762
3.371504086,-2.945100425247619,2.598675955914286,0.9805669922704761,11.580873041333334
3.376426319,-3.5707661353428573,4.08235391067619,0.8466139435380949,11.387707873238096
3.381348773,-4.165817991580953,5.427702723057143,0.6934078988380951,11.267707325142856
3.386271158,-4.721265320247619,6.623392060676191,0.5174420390761902,11.227191715619048
3.39119362,-5.221837661057143,7.656499908771428,0.31849241255238075,11.280693189904762
3.396115852,-5.660641663104762,8.525223641819048,0.1014728432666665,11.43217014952381
3.401038235,-6.042219796295238,9.227520693533332,-0.12170535040000019,11.680817274761905
3.405960691,-6.365561800271429,9.76618660124762,-0.34081230840000015,12.01410886304762
3.410883153,-6.631376856761905,10.148114510142856,-0.5514361119714287,12.376814455666667
3.415805386,-6.837159520047619,10.386612459952381,-0.7534812063523811,12.65561535161905
3.420727754,-6.983373982523811,10.501485982714286,-0.9399891580190478,12.816886434428572
3.425649987,-7.076505888000001,10.509034564714288,-1.1032064925428575,12.868132401761903
3.430572141,-7.127444221809523,10.428909232809524,-1.2386451561476193,12.828702709857142
3.435494855,-7.144877547285715,10.28215519504762,-1.3414474881190477,12.719068990238094
3.440417088,-7.1439567747619055,10.094077904380953,-1.407487009166667,12.568444442714286
3.445339504,-7.129869642714286,9.890832741428571,-1.444827868757143,12.401066174666667
3.450261737,-7.090703305761904,9.629067533809524,-1.4456031066333335,12.174778404380953
3.455184119,-7.041293280476191,9.315411340142857,-1.4071031552809525,11.90194548704762
3.460106357,-7.0083390871904765,8.971162886476192,-1.3238500129142858,11.612501719190476
3.465028817,-6.991163321904762,8.605473608999999,-1.1848542462952385,11.312519679095239
3.469951278,-6.971057233333332,8.246948559952381,-1.008661008961905,11.01303918995238
3.474873665,-6.933590957095237,7.917209330142858,-0.832647772009524,10.722563568809523
3.479795896,-6.876772290190476,7.6155588513809525,-0.6550600556380954,10.441170593095238
3.484718278,-6.808184714571429,7.345828896333335,-0.491847441257143,10.175595781380952
3.489640487,-6.748600664619047,7.1059143653333345,-0.3453483439285716,9.93881912895238
3.49456287,-6.711036046380953,6.89411640152381,-0.2030143865238097,9.739387257190476
3.499485097,-6.6905184700476195,6.707295281428571,-0.05634581615714305,9.572302810142858
3.50440748,-6.6745830490476195,6.5498525300476205,0.0936193792809522,9.43300065947619
3.509329933,-6.653998511190475,6.42329091104762,0.2415497657952379,9.31630544552381
3.514252165,-6.627595129476191,6.328782058761905,0.379551860542857,9.221902154904761
3.519174557,-6.599788416,6.267029012809523,0.5066664800571427,9.152731200095237
3.52409679,-6.582155091428571,6.23193858904762,0.6206012439095236,9.11260194690476
3.529019172,-6.575630755666666,6.220298630714286,0.7233743880047617,9.099972375714286
3.533941649,-6.575469244095238,6.226495697238095,0.8171040088952378,9.107043399619048
3.53886411,-6.575834206142857,6.243960698333333,0.8981509122952379,9.124281406761904
3.543786343,-6.567755494761904,6.266288779904762,0.9637232464857142,9.140087603571429
3.548708793,-6.550375347999999,6.291135697047619,1.015782530742857,9.151134194238095
3.553631179,-6.5241050719523805,6.314817701,1.0532141511571427,9.15410785847619
3.558553333,-6.495068799809523,6.339338506904762,1.0785493438238094,9.154536842238095
3.563475545,-6.466498511095237,6.3601115543809525,1.0889249173476188,9.150525286714284
3.568398005,-6.444702375428572,6.382512932666667,1.0799686780142854,9.14912323447619
3.573320389,-6.43060250504762,6.3987460590000005,1.060998438252381,9.147354085619046
3.578242622,-6.427243119142857,6.40579210004762,1.0519695323476188,9.148696165952382
3.583165005,-6.440485931523809,6.411097095095238,1.0436483407619046,9.161120536
3.588087432,-6.467557521047618,6.408475103809524,1.043096200233333,9.179137614857144
3.593009665,-6.495095707095238,6.395207200714286,1.0508482483523809,9.191105818904763
3.597932048,-6.513297603238094,6.368085248142858,1.0523431534238095,9.187623501952382
3.602854514,-6.523194789904762,6.323159717380953,1.0385450584933331,9.167189461571429
3.607776976,-6.5239059357619045,6.247710432333333,1.0033769620695234,9.121143241714284
3.612699208,-6.515320891428571,6.128165858142857,0.9510267219742855,9.04250940147619
3.617621581,-6.497882547857143,5.951989798333334,0.8869547686790474,8.929714175714285
3.622543737,-6.461422080095239,5.697319992961905,0.8084033882742855,8.77672403452381
3.627466196,-6.38636423295238,5.349567847628571,0.7102923406599998,8.592422095380952
3.632388429,-6.252034573380953,4.88587984872381,0.5968965759457141,8.407400839666666
3.637310817,-6.045834098619048,4.28574070767619,0.47542585780285695,8.279591128238096
3.64223305,-5.768921622300001,3.5350558786761908,0.36122295537428556,8.261358845761904
3.647155518,-5.425694099580952,2.625847422057143,0.26522938261238077,8.383774297904763
3.652077905,-5.023837194628571,1.5540597469142863,0.20495281185523795,8.660550665761905
3.657000136,-4.5632607057714285,0.31567899677142885,0.19314290647428553,9.104288191809523
3.661922605,-4.037861088961905,-1.0800211402285713,0.23323957547428553,9.714280915857143
3.666845067,-3.4407862851047617,-2.5795501387999997,0.31841157585523794,10.452497456857143
3.671767453,-2.7763780781523812,-4.095962396752381,0.4157103796647617,11.233860090142857
3.676689698,-2.057407620438095,-5.597595677371428,0.48173738518857123,12.02258472957143
3.681612158,-1.2823443327714283,-7.135399690514286,0.4917954305695237,12.868375622761906
3.686534314,-0.4557845849619048,-8.779382032990476,0.44384766830285693,13.840966060333333
3.69145673,0.40753923994285723,-10.543635649514286,0.35377233440285694,14.963049091285715
3.696378963,1.3074144950380953,-12.397373185419047,0.23445771919333316,16.213784444428573
3.701301422,2.2333181105619047,-14.277136129990476,0.10776972205047601,17.534175322666666
3.706223889,3.1624372208,-16.120840830466665,-0.03008751638571446,18.869897696285715
3.711146276,4.034528536704761,-17.857660914942855,-0.1560031863523811,20.15489422347619
3.716068458,4.807436179895238,-19.44216249927619,-0.2660809989142859,21.356798407190475
3.720990917,5.4583552086095235,-20.86808004522857,-0.3554159040809526,22.468646184047618
3.72591315,5.979816309419048,-22.14457161604762,-0.4105153317619049,23.513431690714285
3.730835629,6.396942215704762,-23.29236672,-0.44179923828571444,24.520138016857146
3.735758016,6.736978448990476,-24.308456965571427,-0.46614366552380965,25.479406491904765
3.740680247,7.016663878180953,-25.170406750095236,-0.495962807809524,26.33576763409524
3.74560272,7.248265442861905,-25.860967409047618,-0.5462581890952383,27.043471450000002
3.750525107,7.428361387952381,-26.358759516666666,-0.6312826225714288,27.565604843809524
3.755447577,7.548944008238095,-26.649670192380956,-0.7622094813857144,27.878171724761906
3.760369732,7.60358371095238,-26.716111773809523,-0.940705915957143,27.957432041904763
3.765292206,7.5836708549523815,-26.55479540142857,-1.1638217234333337,27.79486142809524
3.770214362,7.477495239238095,-26.196587970952383,-1.417499630861905,27.41675024142857
3.775136821,7.282961414285714,-25.711876823809526,-1.667864434004762,26.89261814761905
3.780059059,7.006823903380952,-25.124978928571426,-1.868750677861905,26.250985342857142
3.784981519,6.639745042761904,-24.380392983333337,-1.9923739127666669,25.43613799952381
3.789903943,6.180670437847619,-23.397991362380953,-2.030352436309524,24.36978467961905
3.794826174,5.634700714476191,-22.157059624190474,-2.001417960404762,23.03748260847619
3.799748557,4.998034405,-20.686016196476192,-1.9243195368857147,21.48516264004762
3.804671018,4.280520548571428,-19.0493243929,-1.8177966830142858,19.870130269
3.809593251,3.5048833872857146,-17.312284270566664,-1.6757592544714286,18.347644774714286
3.814515644,2.7237985547142856,-15.550970764280954,-1.5237412041238099,17.00768233747619
3.819437876,1.9752959595238093,-13.818112515185717,-1.3740266774428573,15.881121245238097
3.824360254,1.2937849206666665,-12.14878287194762,-1.2307487711904763,14.938982499476191
3.829282716,0.673280723047619,-10.481651448233333,-1.1127595348095238,14.188800319952382
3.834204872,0.08311558480952383,-8.763484006804761,-1.0210592477380953,13.59724804042857
3.839127331,-0.48939359042857145,-6.9980259449,-0.956637295957143,13.104628177571428
3.844049564,-1.0677179197142859,-5.208610312995238,-0.9276339596238097,12.69052565757143
3.848971941,-1.6728772251428572,-3.419630918709524,-0.9286961484809526,12.33834814804762
3.853894403,-2.300763179857143,-1.6604702868047616,-0.9468107607190478,12.04266453947619
3.858816865,-2.9418853393809523,0.041030469861904895,-0.9731049467190479,11.800587291857143
3.863739087,-3.5959550355238097,1.6523149074809527,-0.9914879841952382,11.608205603761904
3.86866147,-4.253660842047618,3.141009370814286,-1.004691468861905,11.455906734238095
3.873583703,-4.897580026142857,4.478003768909524,-1.0160164251476194,11.345513446619046
3.878506052,-5.508780404190476,5.65319474005238,-1.026871713861905,11.291446515190476
3.883428285,-6.078042931476191,6.664283792576191,-1.0333858543857144,11.30360092042857
3.888350711,-6.596035144142857,7.5163603005285715,-1.0367620431000002,11.394701220904762
3.893273097,-7.056031872800001,8.206104682195239,-1.0455059451714288,11.578314684142859
3.898195328,-7.453796999761905,8.735757118766667,-1.0640054188857146,11.857237782904761
3.903117711,-7.787886358428572,9.109367501766666,-1.0943925110714285,12.213005163714286
3.908040172,-8.061003878,9.335103364095238,-1.1393636521333337,12.55451993261905
3.912962381,-8.278032870523809,9.424234844285715,-1.2010292694380955,12.789229398857143
3.917884764,-8.442253112809524,9.396341074,-1.2719485532142858,12.90911397457143
3.922807206,-8.557620843285713,9.277264504095239,-1.342565982061905,12.930205690380953
3.927729439,-8.63316040947619,9.111947309285714,-1.4119237433761906,12.889531963714283
3.932651899,-8.660855838238096,8.872471128095238,-1.4694915526857144,12.759445145047621
3.937574256,-8.64356935595238,8.542997462238096,-1.5028946484333334,12.529036618666666
3.94249641,-8.616861843,8.145418121285715,-1.5043112209333334,12.236254627761904
3.947418617,-8.58515178595238,7.700977461428571,-1.4612331262095242,11.896914914809525
3.952341076,-8.539953708666665,7.220666794285715,-1.3749956998857145,11.516881004857144
3.957263451,-8.486914362238096,6.733128411285714,-1.2633682729761906,11.121353586904762
3.962185684,-8.419299193809522,6.262787705190476,-1.157788845661905,10.727824192190477
3.967108066,-8.324000199619048,5.821713515714286,-1.0626311372142858,10.34180519057143
3.972030519,-8.203818434761903,5.432072707619047,-0.994554322309524,9.981986592952381
3.976952752,-8.080932639857142,5.1073113622857145,-0.9483708895000001,9.672133038142858
3.981875134,-7.9758297829047615,4.842110406761904,-0.9094151272619049,9.420107672190476
3.986797688,-7.891304674571428,4.632954075190476,-0.8728804602714287,9.223082825428571
3.991720074,-7.815298421,4.4745775403809525,-0.8362530342333334,9.065270905904763
3.996642305,-7.737133207761905,4.360562029285714,-0.7932534175190479,8.932572108666667
4.001564669,-7.653323355190476,4.285596938285714,-0.7386975630842859,8.818130566333334
4.006486902,-7.567905085428572,4.245717366476191,-0.6717624694700002,8.722267831476191
4.011409274,-7.485500698999999,4.2395320165238095,-0.5945085658223812,8.647584641095238
4.016331507,-7.4108948480476196,4.263700167285714,-0.505237471679524,8.596215857095238
4.021253967,-7.349902380047619,4.314136414238096,-0.4023369042033335,8.571706082285713
4.026176372,-7.302303473095238,4.382620470809524,-0.29051018637000015,8.570242583761905
4.031098603,-7.264535222714286,4.459950424333333,-0.17695018816523828,8.583776339809525
4.036020986,-7.234858512857143,4.536162558,-0.06673328676047639,8.60508241909524
4.040943452,-7.212055319809523,4.6078135966666665,0.039465949391904565,8.630230522380952
4.045865685,-7.190645740095238,4.674260888761904,0.1427291856347617,8.653840855285715
4.050788145,-7.1726392337142855,4.731815792238096,0.23902256548238074,8.675238356238095
4.055710526,-7.160735289285714,4.786102067809525,0.32520794558714267,8.698982009619048
4.060632757,-7.149280616285714,4.825725487285714,0.40735494639190456,8.714389722095238
4.065555217,-7.138150237904762,4.844490346428572,0.5048078026490475,8.717671551428571
4.070477377,-7.134370917428571,4.849338145428571,0.5997731356776188,8.719623360333333
4.075399837,-7.1400823366666675,4.839862641809525,0.7081199442014284,8.721036517190477
4.080322313,-7.145310084095239,4.814919971285714,0.8271871362966665,8.713416689571428
4.085244469,-7.139573846619048,4.775269122333334,0.945199138868095,8.690546042666668
4.09016688,-7.125078519285715,4.71934816947619,1.052314946877619,8.654769050619048
4.095089113,-7.11337623152381,4.640876792714286,1.143284614410952,8.613055076285715
4.100011803,-7.110926060523809,4.536223161761905,1.209383188077619,8.568762954238096
4.104934022,-7.115294161333334,4.400006112571428,1.2515061866619046,8.51801671152381
4.109856176,-7.1153281303333324,4.221165827333333,1.2736720896857139,8.450431424714285
4.114778635,-7.096298036190476,3.9842504099619047,1.278514660533333,8.355534136285716
4.119701087,-7.045228186190475,3.6795385912952376,1.260313184480952,8.233682316809523
4.124623473,-6.9533043135714285,3.292647260295239,1.2108003777447618,8.099318443285714
4.129545704,-6.815987973095237,2.8102114889142857,1.139323470518095,7.9859087338095245
4.134467873,-6.62403860557143,2.218500694390476,1.0539632330038091,7.931942045142857
4.139390333,-6.358777926190475,1.4927083999619046,0.9621015691847619,7.983040245
4.144312712,-6.008158266633333,0.6142063262,0.8766318574266665,8.177145359047618
4.149234945,-5.581897562538095,-0.4398777478,0.8161115263457139,8.54644315752381
4.154157352,-5.08393260134762,-1.6921985595142859,0.8044900965361903,9.123928311904761
4.159079813,-4.517700873728571,-3.1482357174666666,0.8592941491552379,9.92962085847619
4.164002046,-3.8922577330619053,-4.762559810133333,0.9838375662028569,10.92248096347619
4.168924429,-3.222522846347619,-6.451533032704762,1.1422856095361902,12.016643341238094
4.173846661,-2.496385685109524,-8.104528414609524,1.281844668440952,13.104423242523811
4.178769352,-1.7132865560142856,-9.736479950990475,1.3846547163457141,14.203313562333335
4.183691593,-0.9031389753952378,-11.415225992752381,1.4463194282028569,15.372024594761905
4.188613976,-0.0867076346809523,-13.17183586418095,1.4331986180123808,16.634279694285713
4.193536438,0.7510197529380953,-14.989389827038094,1.338692998555238,17.98022329309524
4.198458579,1.6126811868904762,-16.815221047228572,1.1755855182695236,19.36748883504762
4.203380809,2.4692675752714286,-18.576942340180953,0.979104511793333,20.730820777666665
4.208303192,3.2724076251285714,-20.22425516284762,0.7684541302028569,22.020878840809523
4.213225425,3.9824295297,-21.72883714794286,0.5669351745171427,23.21843756390476
4.218147869,4.586365747795239,-23.093368972238096,0.3793390294028569,24.340705909619047
4.223070256,5.078291668557143,-24.33680821542857,0.2093641772171426,25.413067061142854
4.227992487,5.484228806604762,-25.48312209833333,0.05600117681047595,26.45656131147619
4.232914941,5.8348035724619045,-26.540823436047617,-0.08734692167714311,27.466572236857143
4.237837328,6.139179572938095,-27.484458513952376,-0.20673325973428597,28.400534464285712
4.242759787,6.392499000985715,-28.26046966285714,-0.29451102620095265,29.18871011
4.24768203,6.5796853301428575,-28.820082618095235,-0.3565397404428574,29.76644256571429
4.252604413,6.688096999857144,-29.125286282857143,-0.41281093017619075,30.08401133142857
4.257526874,6.7121092362380965,-29.138526189047617,-0.4807772137680954,30.098749575238095
4.262449016,6.650277602999999,-28.83895819428571,-0.5739522191061907,29.787061374761905
4.267371247,6.507370165190475,-28.263862609047617,-0.7007902560585717,29.185279107619046
4.272293605,6.294027226095238,-27.48872438952381,-0.8308690145823812,28.373768231904766
4.277216066,5.994183931809523,-26.61949430095238,-0.9245349776776193,27.458144277142857
4.28213829,5.597364365833333,-25.639868326666665,-0.9766497368204764,26.42073050714286
4.287060673,5.124664107757143,-24.481904891857145,-0.987964787391905,25.206625253190477
4.291983134,4.59356977237619,-23.112288405904764,-0.9282013104395241,23.802326330714287
4.296905367,3.9947434322333337,-21.549699487238097,-0.793177923744286,22.24985536052381
4.30182775,3.3255400034714278,-19.85380321942381,-0.5941260667919049,20.66650232457143
4.306750211,2.6069387310428573,-18.10072178432857,-0.35971848860142874,19.186005061809524
4.311672687,1.8822629167571427,-16.346977818042856,-0.10826629807761924,17.880149684523808
4.316594919,1.1857885462333335,-14.620590453471427,0.13229513611285695,16.772937173
4.321517302,0.5261214176142857,-12.919290286566666,0.3532733280176189,15.841289328238096
4.326439526,-0.09118470129047614,-11.227193235566666,0.5497077520652378,15.041571969190475
4.331361908,-0.6849496762428571,-9.521416203614285,0.7289361344985712,14.315841890619048
4.336284102,-1.2838548308619047,-7.793404663804761,0.8928693278747617,13.621376486333334
4.341206485,-1.8981060471,-6.067211553471428,1.0356485703033331,12.949055569666665
4.346128946,-2.531080001861904,-4.390688072566666,1.1502419555557142,12.302817222999998
4.351051194,-3.1803434519571434,-2.8036512132809523,1.2368407648414286,11.70425189347619
4.355973577,-3.8303566035761905,-1.2917079411380952,1.2891475744366663,11.195855275380952
4.36089581,-4.453020987052381,0.1199523441952381,1.300524622185714,10.766845117285714
4.365818259,-5.033726970385715,1.4080658017666667,1.2581613368761904,10.407908138238096
4.370740721,-5.591204830623809,2.562055888766667,1.1657993843190473,10.140578551095237
4.375663107,-6.132867637195238,3.5706319410523806,1.0319334800666664,9.978583861571428
4.380585338,-6.656454903766667,4.432856338290476,0.8792348610238092,9.928220464428572
4.385507798,-7.151159107695238,5.145722417528571,0.7279698557380951,9.988331159190476
4.390430184,-7.598043214714285,5.709448365861904,0.5798069089238094,10.147709130285714
4.39535241,-7.987531287333333,6.123446560957142,0.43460128912857127,10.392196747047619
4.400274793,-8.32300318990476,6.39326280062381,0.29622114197619026,10.689928772952381
4.405197025,-8.604930673333334,6.535593225761905,0.16590714665714265,10.97053639947619
4.410119419,-8.830367065619047,6.565937371380952,0.04431981058571409,11.174687637714285
4.415041881,-9.005602995571428,6.500054756714285,-0.06528699753809543,11.292577644380952
4.419964113,-9.133708318095238,6.352877571380953,-0.1622262362904764,11.32901335147619
4.424886281,-9.217126664666667,6.139154797428572,-0.24348328297619068,11.292436847619049
4.429808741,-9.263169061571428,5.875334035714285,-0.2997790936904764,11.19684282747619
4.434731236,-9.283799489333333,5.57988136147619,-0.3282429520028573,11.061001690380953
4.439653623,-9.285167239952381,5.267876307095238,-0.3276276177742859,10.899574142428571
4.444576083,-9.278344018142857,4.954539219476191,-0.3053730939980954,10.730959157238095
4.4494983,-9.274999436904762,4.657737811333333,-0.26390633420285736,10.578743007190477
4.454420683,-9.274667285761904,4.387946741857142,-0.20995247515523827,10.449859834666666
4.459342873,-9.268379393095238,4.115360248571428,-0.13872756855523824,10.317049159904762
4.464265255,-9.271778969571429,3.8538369109523805,-0.04886494799809543,10.200305024666667
4.469187488,-9.294696399142858,3.6158025263809526,0.06706519698285694,10.115245499428571
4.474109871,-9.313120206190476,3.404472805142857,0.20848201063523789,10.043845585142858
4.479032104,-9.31305867147619,3.216036285619048,0.3706360067923808,9.973531592619048
4.483954596,-9.294754437047619,3.0563000496666666,0.5338260083114283,9.902224216428571
4.488876983,-9.260514668095238,2.9317400454761904,0.6844464886923808,9.832495176666665
4.493799229,-9.21416963852381,2.8389846596666666,0.824906960030476,9.764866522190475
4.498721688,-9.163801057,2.77372157,0.9541417195876191,9.703054249952382
4.503644075,-9.119581358761906,2.733690432095238,1.0723500030733333,9.654709976047618
4.508566529,-9.088537897380954,2.7093893913333336,1.1847053346780951,9.623648913142857
4.513488762,-9.068264053,2.6935124850952383,1.2966579999876189,9.60624500652381
4.518410916,-9.045844759285714,2.6865358125238097,1.4082024756352378,9.590781170285714
4.523333222,-9.013901120142858,2.686402809047619,1.520347239625714,9.568829744714284
4.528255683,-8.972905885619047,2.694388480428571,1.6265948563114283,9.539989665333334
4.533177925,-8.931646619523809,2.7059964793333333,1.719860902073333,9.511356975333333
4.538100307,-8.892011733285715,2.712238765904762,1.795810761904762,9.482170612904762
4.543022769,-8.853923116428572,2.713941528666667,1.8533799023952378,9.452593079476191
4.547945031,-8.817001751476191,2.7045930453333336,1.8924610955238093,9.419925186333334
4.552867413,-8.772379330238095,2.6882790383333335,1.913887336095238,9.376393307333334
4.557789646,-8.71478893642857,2.663267896238095,1.9173842895238091,9.315686561666666
4.562712342,-8.64671707152381,2.628056707809524,1.9048398108571425,9.239683075904761
4.567634574,-8.569705826857144,2.581103234047619,1.8745598111428572,9.148955617999999
4.572556957,-8.485764639714287,2.522613621857143,1.8258503788571427,9.045475035380953
4.577479204,-8.39927630195238,2.4517579532380953,1.7586937574619046,8.93383436752381
4.582401586,-8.311615467047618,2.3731658571904766,1.6722529530190475,8.817458519190476
4.587323824,-8.22042733142857,2.2796657567809526,1.5806852380238092,8.695578031761904
4.592246207,-8.127443336238095,2.165291139061905,1.4881955682999997,8.570155486285714
4.597168663,-8.041323162190476,2.0328818517171428,1.3934377622999998,8.451066175428572
4.602090896,-7.962789013190476,1.8859984193504762,1.2999064776633331,8.341947866857144
4.607013279,-7.87713552647619,1.7166102698790477,1.2091105271299998,8.230111295571428
4.611935517,-7.772140071380952,1.5201779802599997,1.1129720994538093,8.10705945790476
4.616857976,-7.647202400809523,1.2818491259742857,0.9976844350585713,7.981032030571429
4.621780363,-7.499349253380953,0.9803152225933334,0.8570552911538092,7.867463595380952
4.626702808,-7.322897479523809,0.5976668453552382,0.6898487199157141,7.792617197
4.631625041,-7.106462035761904,0.11573907583142856,0.5030818683919046,7.784268777190476
4.636547501,-6.82187674152381,-0.4841632702161904,0.2930902089633331,7.867805000190476
4.641469863,-6.447923800709524,-1.2190268921209524,0.05749091820142833,8.076532005428572
4.646392017,-5.97135770737619,-2.1111307117399996,-0.2065750797509526,8.444517374428571
4.651314477,-5.379358221995238,-3.1831549549304765,-0.4941924566080954,9.010682415142858
4.656236709,-4.678673470185714,-4.47715969021619,-0.7985309345128574,9.82410638942857
4.661159121,-3.861363999804762,-5.986657968406667,-1.073372470179524,10.887132112380954
4.666081354,-2.9968820282809525,-7.709839806454286,-1.2697172374652383,12.179987967666667
4.671003813,-2.112065858661905,-9.552602163263808,-1.368770858741429,13.613901001285715
4.6759262,-1.2181672124238094,-11.384792046930476,-1.3938789037890478,15.066354072000003
4.680848431,-0.2938367054238096,-13.125544545025713,-1.3812841414890478,16.466211013190478
4.685770808,0.646345390195238,-14.806059641263811,-1.3852749988604764,17.843632300238095
4.69069327,1.5665445347190474,-16.498429445949522,-1.4388387611366669,19.254787985761908
4.695615731,2.4508689037666667,-18.20616687756381,-1.5270044289366669,20.698466563857142
4.700537945,3.293184010147619,-19.84932273755238,-1.6097623794604765,22.09327445395238
4.705460328,4.089606900385714,-21.353378837995237,-1.6722284733000004,23.36144294952381
4.710382537,4.818803221766667,-22.68536933847619,-1.7076911883857147,24.476365067095237
4.715304996,5.451114792957143,-23.869922899142857,-1.716303093109524,25.46402980757143
4.720227214,5.9644859881,-24.944888478380953,-1.7035393800238094,26.36712390747619
4.725149597,6.353666761861906,-25.93795065690476,-1.6885319011904765,27.227705962380956
4.730072072,6.652766002861904,-26.858688377333333,-1.6879051895714288,28.06301891885714
4.734994534,6.904957285338095,-27.69508057547619,-1.7034179511904766,28.855157536190475
4.739916767,7.108901752719047,-28.41206051047619,-1.7310732915714286,29.557854000952382
4.744838925,7.243129702666667,-28.976194653809525,-1.7514803324761907,30.120261914761905
4.749761616,7.288074176333332,-29.35807255285714,-1.7404008053809525,30.495599964285713
4.754683849,7.211425225714286,-29.51137242952381,-1.6914369520952384,30.625165935714286
4.759606212,7.006406046857142,-29.378160476190477,-1.6107352830000001,30.447969919523807
4.764528674,6.661149298190476,-28.9451965147619,-1.539148992,29.950412052857143
4.76945083,6.242237386857143,-28.19365228904762,-1.5133297471904763,29.132784213809526
4.774373055,5.761572075038095,-27.20263208619048,-1.550173364961905,28.072804380476192
4.779295438,5.217438088114285,-26.085222516190477,-1.6212192717333336,26.879025977619047
4.784217671,4.590432533733333,-24.916370209999997,-1.6769715114952384,25.620674715714287
4.78914013,3.8901138678761904,-23.66357044933333,-1.6587631780714287,24.283593088333333
4.794062517,3.1473942402571433,-22.25520002242857,-1.547880461561905,22.837216621190475
4.798984748,2.382761833495238,-20.693413972571427,-1.3739505602285718,21.32802158552381
4.80390713,1.6099247847809526,-19.071015445738094,-1.194874558466667,19.884409920761907
4.808829664,0.8386692916380953,-17.47767815388095,-1.0372229410380955,18.613779036
4.81375182,0.08734929287619049,-15.952915409690476,-0.9138398929904764,17.560338995095236
4.818674279,-0.6176314211238095,-14.477217415547619,-0.828011844161905,16.701588124666667
4.823596755,-1.2467799725523807,-13.0078720275,-0.7693383686904763,15.978477077523811
4.828518911,-1.7980214157904764,-11.510955506119048,-0.7180382262000002,15.329521308476192
4.83344137,-2.3164005364095237,-9.965050779119048,-0.6542657025047621,14.715629766095239
4.838363784,-2.856149568409524,-8.374728829738094,-0.5776338953666669,14.123561381809525
4.843286017,-3.4268824685047625,-6.7638171879761915,-0.48748032041428596,13.555441895619047
4.848208404,-4.016147792314286,-5.158854884690476,-0.40274827608095254,13.012030505142858
4.853130637,-4.613741815076191,-3.579773349452381,-0.34538051984285734,12.495505064666666
4.85805302,-5.202526634790476,-2.0553695048809524,-0.32055409536666685,12.021169669904761
4.862975252,-5.776591638885714,-0.6094902500714285,-0.3221285208428573,11.601439819428572
4.867897943,-6.335193619980952,0.7358991161666667,-0.34232451589047636,11.24771790657143
4.872820094,-6.8726022443619055,1.9576605925952382,-0.3876588550333335,10.975188207523809
4.877742324,-7.378886671590477,3.0421063642142863,-0.4481656643666669,10.798937403714286
4.882664784,-7.8423145503809515,3.973062478166667,-0.5204988583095239,10.734067012761905
4.887587235,-8.267050368857142,4.744748805214286,-0.6103411415952383,10.785077431333333
4.892509622,-8.645169190619047,5.365117149642858,-0.7245300965380954,10.938733254904761
4.897431853,-8.970056579666666,5.834033565833334,-0.8579400053476192,11.16840425157143
4.902354022,-9.241947129095237,6.156808804880952,-1.0030115260190477,11.424876248190476
4.907276712,-9.46094753657143,6.345705038,-1.14311086132381,11.653751149142856
4.912198882,-9.630024092857143,6.416452986857143,-1.2670603379761907,11.822609104857143
4.917121113,-9.747136139047619,6.39199512347619,-1.3751820509952384,11.916731130666667
4.922043505,-9.816964376857143,6.290032261904762,-1.4634150053238097,11.938511485000001
4.926965967,-9.854686737380954,6.128134931857143,-1.5316081486476194,11.903797987333334
4.9318882,-9.865639459857144,5.919890971428571,-1.5760670062523814,11.820781596857142
4.936810659,-9.84801138047619,5.675080106380952,-1.5959796252190477,11.68970768657143
4.941733046,-9.80275099647619,5.402585597285714,-1.5894792448428572,11.515175535809524
4.946655505,-9.738688968761906,5.115311577238095,-1.5566991993000001,11.309930796476191
4.951577747,-9.668501218476191,4.826722463,-1.4958944377190477,11.092285312142858
4.95650013,-9.59719748757143,4.549536546095238,-1.412068625261905,10.873774184666667
4.961422591,-9.523730459809524,4.293864250238095,-1.3201365754428573,10.662066648619048
4.966344762,-9.445953369238095,4.064282019952381,-1.2281355346809526,10.460571951333334
4.971266993,-9.362623214809524,3.8634764467619043,-1.140194677157143,10.27115281652381
4.976189366,-9.275860559476191,3.6948772499523814,-1.0580543393000004,10.09763394247619
4.981111827,-9.182902926428572,3.556984538190476,-0.9901927709190478,9.938407227571428
4.986034289,-9.084203538142859,3.4526317801428568,-0.9422687178238097,9.795373071142857
4.990956435,-8.978298187047619,3.381972165380952,-0.9187551963476194,9.666647231999999
4.995878894,-8.871560868380952,3.3392645405238093,-0.9150211015857144,9.552649228428571
5.000801127,-8.76395121057143,3.3242498920952377,-0.9247413873476192,9.45127345952381
5.005723596,-8.657230127285715,3.339482228047619,-0.9346620553904763,9.362805921238095
5.010645983,-8.555886722761905,3.384982529238095,-0.9405332008904765,9.29023635695238
5.015568214,-8.461815879476191,3.457399686285714,-0.9430084852857145,9.233131360857143
5.020490673,-8.381480784666667,3.546048641285714,-0.9383132486000001,9.193398100333335
5.025413055,-8.310914221285714,3.6452054524285713,-0.9234169153857146,9.165662015714284
5.030335209,-8.242011728761904,3.744244405285714,-0.898163913961905,9.138827410190476
5.035257726,-8.173077696857144,3.8392054581428576,-0.8650561516900003,9.110214608285714
5.040179882,-8.108179137857142,3.9248412678095237,-0.824521675247143,9.082125828666667
5.045102284,-8.048741908333334,3.999864180952381,-0.7817699613661906,9.055301986380952
5.050024745,-7.995654605714286,4.054912748857143,-0.7450021037714288,9.026555296333333
5.054947207,-7.940952210190476,4.088059516238094,-0.7191969618142859,8.987807821238095
5.059869426,-7.878672191047618,4.098139047666667,-0.7036104862857145,8.933473946571429
5.06479158,-7.808121635761905,4.08361991247619,-0.6901659632714289,8.861881125714287
5.069713962,-7.729500066666667,4.05059486347619,-0.6776689128476193,8.775720444
5.074636538,-7.6516594432857135,4.001411869428571,-0.6679052462761907,8.684427632380952
5.079558694,-7.578040486333332,3.937935874571428,-0.660942197609524,8.592049888285715
5.084481153,-7.5106959343333335,3.861276115714285,-0.6551348603238097,8.500894957380954
5.089403545,-7.446965353857143,3.765942545190476,-0.6510133864666668,8.406939128428572
5.094325776,-7.381238506000001,3.646453267095237,-0.6493700069428573,8.304456562142857
5.099248158,-7.310138180190476,3.495881120380952,-0.655477910609524,8.191148353333332
5.104170391,-7.230782259142857,3.302893063847619,-0.673981434609524,8.066472879904762
5.109092845,-7.139803227952381,3.058471584595238,-0.7137433355142859,7.933972830952381
5.114015232,-7.035360427142858,2.752095859642857,-0.7772850998047621,7.803953698761903
5.118937463,-6.910856019904762,2.3774378540238095,-0.8649572425666667,7.688765010666667
5.123859837,-6.753906295428571,1.925722225738095,-0.9806324790428574,7.603276583476189
5.128782298,-6.556815862666667,1.3863586598333335,-1.1190283816904762,7.5667429323809525
5.133704531,-6.313486723666666,0.7506345921666667,-1.2718022849523811,7.604987289095239
5.138626981,-6.021807114285714,0.009485734547619003,-1.435128479276667,7.744204030047619
5.143549368,-5.667920819693809,-0.8503511389761906,-1.605157761829048,8.005417046142858
5.148471599,-5.240568589979524,-1.8420570105,-1.7743187565576193,8.408609918714287
5.153393961,-4.745856918408095,-2.971706774404762,-1.9246224667904765,8.969017148571428
5.158316194,-4.20150011817,-4.233857084642857,-2.036654273566667,9.685989776095239
5.163238577,-3.6288280916461906,-5.603279304880952,-2.103837081266667,10.537802301571428
5.168161038,-3.031776175979524,-7.036430538404762,-2.1352512721952386,11.485385452285714
5.173083286,-2.391127742836667,-8.498804930595238,-2.1499468938571433,12.496405003190475
5.178005669,-1.685286133408095,-9.985238538642857,-2.1754036119047617,13.566498818190476
5.18292813,-0.9181675658842856,-11.530204146261905,-2.2481239408571434,14.727222918714284
5.187850382,-0.09082973331285701,-13.17085085392857,-2.3853057962380952,16.014694547857143
5.192772765,0.7953138831633334,-14.892527493119045,-2.5729181254761904,17.419053380857143
5.197694998,1.719595525639524,-16.620161837785716,-2.7910591192857144,18.871768695333333
5.202617471,2.6300692583061904,-18.255148641309525,-3.009365359857143,20.267750380571428
5.207539858,3.4735391961157145,-19.736435415157143,-3.19616408,21.54330508861905
5.212462317,4.228302367877619,-21.061259137904763,-3.340536089095239,22.694832431571427
5.21738454,4.87539350678238,-22.25161664695238,-3.4257124661904768,23.73916786804762
5.222306694,5.409818470258572,-23.341193016238098,-3.4499535616666672,24.70822144747619
5.227229129,5.847504459449048,-24.34657430519048,-3.420229372476191,25.623346721238097
5.232151514,6.225761927115714,-25.270641325380954,-3.3552271354285716,26.49122120780952
5.237073732,6.567875876115714,-26.099724904285715,-3.271274612,27.294752544761906
5.241996191,6.875853348163334,-26.811244327619047,-3.1738947970000004,28.001297894285717
5.246918578,7.119264971809524,-27.37273742904762,-3.063271323809524,28.567002225714283
5.251840805,7.280390013000001,-27.756928397142854,-2.935841804447619,28.955142464761906
5.256763264,7.359785874857142,-27.942566552380953,-2.8010472839857146,29.14023666
5.261685651,7.359525294714285,-27.91725857904762,-2.6768870960628575,29.108804801428576
5.26660812,7.287985824571429,-27.69445855095238,-2.5744858125342858,28.87394744190476
5.271530352,7.149621906857143,-27.300478979047618,-2.4904041457200004,28.460654893809526
5.276452735,6.9262024335714285,-26.76167578761905,-2.4133490476866672,27.88904287904762
5.281374949,6.5979054031904765,-26.071461403809526,-2.3263534261628576,27.145662322380954
5.286297331,6.162559752061905,-25.189481552380954,-2.201721622017238,26.189602944285713
5.291219554,5.619681496195239,-24.08360176852381,-2.0232635784934287,24.991696215285714
5.296141937,4.966816693528571,-22.769940420238093,-1.8011067714077145,23.57676718252381
5.301064398,4.2223152391,-21.322598978285715,-1.5453746807172384,22.04126238666667
5.305986631,3.4387390685761905,-19.837422551380953,-1.2801539151743813,20.533806878714287
5.310909091,2.663038272195238,-18.368143492332,-1.0358047633172383,19.18092441795238
5.315831267,1.9115094868619045,-16.918555721665335,-0.8242209928505717,18.025080375761906
5.320753726,1.2024450259571429,-15.462051592474857,-0.6648614213553335,17.05342968604762
5.325676111,0.5380027819095237,-13.967491895665333,-0.5639599453981907,16.221049138952385
5.330598581,-0.10087286151904774,-12.418456210332,-0.5112048961124764,15.481505179904762
5.335520814,-0.7497349055666668,-10.814141043189144,-0.495402705683905,14.795211954666668
5.340443274,-1.4313865432333335,-9.166666663474857,-0.5141193248267621,14.145361764666667
5.345365655,-2.1482774461380956,-7.500859302665333,-0.5589342350172383,13.529749228
5.350287886,-2.876814551709524,-5.84962744628438,-0.6333554251124764,12.957104504190479
5.35521026,-3.6053246138047617,-4.235138935665333,-0.743240141331524,12.434723850380951
5.360132492,-4.322871871566666,-2.675753136570095,-0.886038804936286,11.96537691895238
5.365054956,-5.018971743185714,-1.1972588559034283,-1.0523891359067623,11.560563903714288
5.369977343,-5.687170782614285,0.183400247382286,-1.2312106130543812,11.230232462761906
5.374899573,-6.324487520280952,1.446794194429905,-1.4167644646305715,10.983972759428571
5.379821956,-6.93007948742381,2.5764244877632385,-1.601257990759143,10.828423851809523
5.384744189,-7.498422916661905,3.5562231000965716,-1.7772119381400957,10.773543604190476
5.389666567,-8.019760832961904,4.379680477287048,-1.9348473222857143,10.825608190857142
5.394589106,-8.484673732809524,5.05164183019181,-2.0682812773333334,10.970152243190476
5.399511492,-8.886919407761903,5.580217114334667,-2.1752522332761908,11.191850380714286
5.404433679,-9.229528063809525,5.974796252429906,-2.2634577609666673,11.470997315142858
5.409356062,-9.519917874095237,6.243373873525144,-2.338128426271429,11.772653452619048
5.414278295,-9.756162620714285,6.39246725457143,-2.39824404322381,12.037742897190476
5.419200677,-9.941687969904763,6.436304682666668,-2.4455084744047624,12.232318926047618
5.424122772,-10.076503844476191,6.387998353761906,-2.4780117585666668,12.343676724333333
5.429045155,-10.161609740476191,6.263428301952381,-2.4901529039523815,12.372247830952382
5.433967616,-10.202867053809523,6.076661439095239,-2.484408764571429,12.327104286190476
5.438889887,-10.209184646619049,5.845261528333334,-2.461024812285715,12.222554674190476
5.44381227,-10.19200334095238,5.5773535115238095,-2.413935099304762,12.072124071476189
5.448734731,-10.157015800333333,5.290185519619048,-2.351639191304762,11.89043325952381
5.453656945,-10.111375672142858,5.000937779761905,-2.274874193304762,11.69315185847619
5.458579405,-10.057677631714286,4.7166901543333335,-2.1872444776857143,11.487595379333333
5.463501791,-9.998751685142858,4.443291948000001,-2.0908666224476193,11.28068658995238
5.468424012,-9.929445220809523,4.18861552652381,-1.9923675287333336,11.074908592666667
5.473346395,-9.849019913142858,3.9562532788571434,-1.8952188605428573,10.872906065142857
5.478268627,-9.758843467190477,3.753049748333334,-1.7980363425904766,10.67814489104762
5.483191005,-9.657550766047619,3.5832889420952383,-1.7014333406857143,10.49119580647619
5.488113238,-9.54684697990476,3.4468171710476194,-1.602001962161905,10.312595393619048
5.493035639,-9.427899905523809,3.3431676456666666,-1.4982633420190479,10.142160231428571
5.497958101,-9.307696251619047,3.2720125403809526,-1.3914047195666668,9.985962705285713
5.502880334,-9.191145964857142,3.2327778794761906,-1.2852980011714288,9.848831075619048
5.507802736,-9.079987457809525,3.2242836840000004,-1.1795753311285715,9.731765007142858
5.512725198,-8.972471986523809,3.2442560538095244,-1.0730345703190478,9.631563756285715
5.517647431,-8.87054904304762,3.288411583380953,-0.9662035731857146,9.548038858190477
5.522569894,-8.76593855452381,3.35047735504762,-0.8544796194380956,9.470612507047619
5.527492281,-8.664107300047618,3.421057780761905,-0.7386323838190478,9.40072980104762
5.53241474,-8.568517594142858,3.4985216800952386,-0.6232598112000002,9.341110318571427
5.537336949,-8.482042335333333,3.5818350203333345,-0.5089799052476193,9.29364195252381
5.542259103,-8.412329878095237,3.663716691047619,-0.39554985934285736,9.262405215857143
5.547181583,-8.354638258571429,3.7453965460952383,-0.2822021927523812,9.242833524476191
5.552103967,-8.301479861809524,3.817271017000001,-0.16817490832380974,9.223686108380951
5.557026195,-8.247175829714285,3.8743234476666673,-0.053167859752381155,9.197705556761905
5.561948578,-8.194517567047619,3.9133297262857147,0.05867961467619028,9.164547484761906
5.566871039,-8.145764010285713,3.935731819809524,0.165964041390476,9.126903631666668
5.571793272,-8.103510924714286,3.945501679571429,0.2657862305285712,9.088648212428572
5.576715655,-8.069290183809525,3.945617062809524,0.3557640867285712,9.052726498809523
5.581637887,-8.047144231333334,3.930649871,0.434436373738095,9.021794373142857
5.586560361,-8.03314706252381,3.897811537761905,0.5021158977457141,8.99181502595238
5.591482822,-8.021526813476191,3.848275445809524,0.5554399904552378,8.959074981571428
5.596405209,-8.01096300847619,3.781901825095238,0.5883089931123807,8.923595213714284
5.60132743,-8.001207419761906,3.6957229716666675,0.5940748030123808,8.885941573380952
5.606249584,-7.987864562428572,3.5848020201904762,0.5716320875028569,8.841230660619047
5.611172058,-7.967130365809523,3.438087738714286,0.5204784234123807,8.784750804380952
5.616094443,-7.936414877523809,3.2459014107814292,0.44450932765047596,8.715181482190477
5.621016719,-7.8903761590476185,3.0015022605909527,0.3446050430409522,8.633480684047619
5.625939178,-7.81835519695238,2.690936732162381,0.21908713829333312,8.542745789761906
5.63086164,-7.699095544285714,2.2996718621147623,0.06606337876952358,8.453494663619049
5.635783969,-7.520420494476191,1.8041924373052383,-0.10816662346857164,8.398711996095239
5.640706428,-7.27376040952381,1.188082316829048,-0.29633881627809544,8.414142237380952
5.645628876,-6.9478303193809525,0.4387615602100004,-0.4904311524209526,8.529500409857143
5.650551262,-6.53821812782381,-0.45685533440904724,-0.6811586303733336,8.774315428714285
5.655473493,-6.051384827919048,-1.50565748326619,-0.8541520575638097,9.177072544857143
5.66039589,-5.498043075919048,-2.709922941409047,-0.9917846262304764,9.74975994752381
5.665318351,-4.880224538680952,-4.055713077599524,-1.0678798624114287,10.486707945333333
5.670240507,-4.2108849273,-5.499212529123334,-1.070114099954286,11.345727030666668
5.675162738,-3.5082897388238092,-6.993152791885238,-1.0126238164257146,12.276846533857142
5.680085203,-2.767531501442857,-8.531451705504285,-0.940001439197143,13.268297471666667
5.685007664,-1.9642021244904762,-10.14899922879,-0.8812633466352383,14.359883946666665
5.689930051,-1.0743187196809523,-11.862379724551905,-0.8351800605428574,15.589176080333331
5.69485221,-0.08098149725238094,-13.632949548647142,-0.8169270605333335,16.937436792809525
5.699774669,0.9969738847952382,-15.416118591170951,-0.846677201904762,18.361983238095235
5.704696902,2.1035194240809525,-17.16970093826619,-0.9153074459714287,19.807547784571426
5.709619275,3.167744552842857,-18.83327091069476,-0.9933657285238097,21.194266200809523
5.714541736,4.1407129267952385,-20.352534516170955,-1.0540118310476194,22.457198455999997
5.719463969,5.010963128985715,-21.717305160809524,-1.0885702634761907,23.586179688571427
5.724386341,5.777029680176191,-22.948933612666668,-1.0993557409523813,24.610812034333332
5.729308803,6.4384896257,-24.076889900857143,-1.1013560274285716,25.582241702142856
5.734231036,7.007282967938096,-25.109903131095237,-1.1111959368095239,26.52596649428571
5.739153428,7.499663961652381,-26.030891282047616,-1.1438771294761907,27.418497775238095
5.744075661,7.925365954509524,-26.81719693666667,-1.1975341730476192,28.21755464285714
5.748998121,8.299414193223809,-27.442809241428574,-1.277850500904762,28.885272762380954
5.753920596,8.60521925052381,-27.883402325238098,-1.3777122022380954,29.381542763333332
5.758842752,8.821605341666666,-28.113454183333335,-1.4935819741428573,29.66582574857143
5.763765169,8.941487380333333,-28.121440797142856,-1.6309477467619051,29.71788832047619
5.76868763,8.960128761380954,-27.90443229761905,-1.7998507896285716,29.528568879999998
5.773610092,8.895536036619047,-27.489310855714287,-1.9983722163714286,29.122139151428573
5.778532234,8.757655654571428,-26.904862495238095,-2.200440068371429,28.526110480000003
5.783454693,8.534580412285715,-26.14836097952381,-2.3645449671333334,27.739272804761907
5.788376926,8.196889616095238,-25.177570525238096,-2.4718066787571433,26.71795568952381
5.79329928,7.711585166666667,-23.973620642285713,-2.5328440119952385,25.438019864619047
5.798221436,7.0559865319999995,-22.580646356333336,-2.5381722979023813,23.94190941809524
5.803143904,6.250209277571429,-21.04817469952381,-2.4665548719833335,22.303959310714287
5.808066366,5.359339296666667,-19.4268957805,-2.327679628759524,20.64199593414286
5.812988613,4.455730792809524,-17.785190472066667,-2.1563562952833335,19.096183651142855
5.817910996,3.588714182190476,-16.18015257830476,-1.9808389121880954,17.75529604552381
5.822833229,2.7683118326190472,-14.62020992392381,-1.8122100038547624,16.63422542952381
5.827755659,1.9935466136190474,-13.087129096495238,-1.6551693851404767,15.695559561238095
5.832678046,1.248402337238095,-11.54699877644762,-1.4983415720452382,14.883717987904761
5.837600277,0.5075363119523808,-9.981442817971429,-1.3255096620928575,14.15233940504762
5.842522688,-0.24830757719047641,-8.394734181495236,-1.1245417541880955,13.478890321714285
5.847445075,-1.030843084666667,-6.805993923542856,-0.903600326959524,12.857507396952382
5.852367306,-1.849223576619048,-5.238480684495238,-0.6618062346547622,12.276539062190476
5.857289765,-2.6881495512380957,-3.7114850709714284,-0.41393429362142886,11.739473686
5.862211921,-3.5197169296666666,-2.2477637954952376,-0.1706681397023812,11.25612888552381
5.867134323,-4.322906774904762,-0.8548137829238092,0.05370034453095211,10.83340650552381
5.872056556,-5.085387578666667,0.45065822783809545,0.2510256728023807,10.48187294695238
5.876979015,-5.809195481000001,1.6447247067428574,0.40363338471790444,10.212605539333333
5.881901416,-6.485532689238095,2.6996584136476196,0.4995652865226664,10.043420571238094
5.886823647,-7.103988814333333,3.6000598925523812,0.5403112374131427,9.98190809647619
5.891746029,-7.6577754211428575,4.335258776266667,0.5408506651274283,10.029200972190475
5.896668506,-8.143832041238095,4.906205719457144,0.5128912360464759,10.179836109
5.901590739,-8.56351019004762,5.322651633219047,0.46221623735838074,10.419845280285713
5.906513198,-8.927360760904762,5.591987164266667,0.4009160944679045,10.72770482004762
5.911435655,-9.241893517714285,5.728759498861905,0.33658628580123784,11.041027234238095
5.916358041,-9.509245485619047,5.746653068666667,0.2752361885536188,11.302382828999999
5.921280272,-9.734411715571428,5.663126020242857,0.21653585784171406,11.49469094647619
5.926202406,-9.916897500380951,5.491285724319048,0.15358981075123784,11.613343802904762
5.931124865,-10.058705397142857,5.250361588057143,0.08516609714266643,11.665337268285715
5.93604725,-10.15715585352381,4.956369361006191,0.00984966588552357,11.655105276
5.940969493,-10.214640026190477,4.620408928641429,-0.07474571772400022,11.589825287904763
5.945891875,-10.239637010666668,4.251353306408571,-0.17162538164780977,11.482038872190476
5.950814414,-10.240534509238094,3.8571930055819053,-0.27899433625733355,11.346417609333335
5.955736575,-10.233374367809525,3.4509557237252384,-0.39674433380019075,11.204121232190476
5.960659034,-10.225802920666666,3.046264990282381,-0.5249336676430479,11.067540371238094
5.965581411,-10.223582994000001,2.6551636319285716,-0.6632575224668573,10.946163567904762
5.970503871,-10.23410497352381,2.283812404061905,-0.8075585651287621,10.846113821714285
5.975426103,-10.256924402095237,1.934312603695238,-0.9566791421620955,10.768422743142857
5.980348467,-10.290266945428572,1.6134682259000006,-1.1003675696014288,10.714010968380952
5.985270928,-10.331255367809524,1.3229944213095242,-1.2323945229776192,10.682381719333334
5.990193079,-10.378759021142857,1.067699099266667,-1.3480768126776193,10.673195283142856
5.99511531,-10.432583673047619,0.8529880036428574,-1.4532994778157144,10.687724091238096
6.00003777,-10.495632535428573,0.6813165762095242,-1.554021955358572,10.727573219809525
6.004960154,-10.566717647666666,0.5498048652571432,-1.6496606732919052,10.78855429647619
6.009882616,-10.637590908095238,0.45741771694761935,-1.7449050043204766,10.85904082742857
6.014804777,-10.707519849428573,0.40080381184285746,-1.8409434309728574,10.934545956952382
6.019727236,-10.77486932861905,0.3760156706000003,-1.9389653342014288,11.010551472333333
6.024649469,-10.833134015666667,0.3759319090428575,-2.0374973845847624,11.077939740000001
6.029571852,-10.880460376047619,0.3963312439285717,-2.1299732416371433,11.133716651952382
6.034494313,-10.917071160904761,0.43061681695238124,-2.212919196219048,11.17842000104762
6.03941653,-10.942852746952381,0.4763043874319051,-2.282349482914286,11.212419683809523
6.04433899,-10.960356485238096,0.533108293844286,-2.3359481494,11.238777586666666
6.049261184,-10.972627367142858,0.5966802966961908,-2.3738513390476195,11.260015610952381
6.054183644,-10.975463867142858,0.6657634384752384,-2.3945764303333337,11.270602243333332
6.059106024,-10.964235850952381,0.7374931073795241,-2.398190191809524,11.264843191428572
6.064028256,-10.931340626285714,0.8067967755366671,-2.3910185722857142,11.235861036190476
6.068950625,-10.872185752238096,0.8711342542238099,-2.3748324825714286,11.179310707761905
6.073872858,-10.785473323857142,0.9250559679476192,-2.346997635714286,11.093182147047619
6.078795317,-10.676323754095238,0.9701297794571433,-2.3086905366190478,10.982433196714286
6.083717718,-10.549117632904762,1.005534399157143,-2.2671670573809526,10.852739001952381
6.088639949,-10.405694143761904,1.0340231572238099,-2.232341289571429,10.708268347904761
6.093562408,-10.246681258285715,1.0519865382666669,-2.2105317570476193,10.551340602761906
6.09848486,-10.072053568285716,1.0601387279761907,-2.2027127061904763,10.383150994095237
6.103407246,-9.878225326095238,1.0556536317238099,-2.2033151785714287,10.199372065380953
6.108329477,-9.663483119904763,1.0359874879000004,-2.210641656619048,9.998377746904762
6.113251641,-9.428583417428571,0.9951852510761908,-2.235386087809524,9.785415931190476
6.118174101,-9.171801475999999,0.927434252166667,-2.284929990809524,9.564398977714285
6.123096494,-8.891969544428571,0.8214180590285717,-2.361983276571429,9.342467803809525
6.128018727,-8.587818100142856,0.6673542467238098,-2.4631056444761907,9.127804488
6.132941187,-8.251024722904763,0.4538442443333337,-2.583000875619048,8.927227003095238
6.137863564,-7.861515431142857,0.16786699428571458,-2.7158681494761905,8.753864201999999
6.142785795,-7.3919208248095245,-0.2069858730952378,-2.857413053476191,8.636307419190477
6.147708178,-6.832809752,-0.6874363670476187,-2.9968794413333333,8.610851223000001
6.152630644,-6.174169083714286,-1.2873451903333328,-3.126878443142857,8.708050569666668
6.1575528,-5.4160648045714295,-2.016046044,-3.2427093073809528,8.951069693
6.162475337,-4.569542337,-2.886678408666666,-3.3433097884285714,9.355892057761904
6.167397703,-3.6514064669523805,-3.9070688111904754,-3.4220430282857146,9.933206643952381
6.172319934,-2.6727795800476195,-5.0442874227142855,-3.465451070190476,10.656596773333334
6.177242317,-1.7202332331904764,-6.298809593047619,-3.464753400666667,11.492954737380952
6.18216454,-0.7834142477142857,-7.616446151142857,-3.4300880204285717,12.399907779142858
6.187086923,0.19670436776190459,-8.941711382904762,-3.372782309752382,13.350974349142856
6.192009389,1.2543309105238094,-10.287809357571428,-3.2905368860714286,14.379432023190478
6.196931621,2.402841116952381,-11.696607887380951,-3.18597203342381,15.536871070714286
6.201854005,3.6377546931428566,-13.185471426609524,-3.0720800856000006,16.83746630842857
6.206776238,4.9306882709523805,-14.707945667161905,-2.954520754819048,18.232271376190475
6.211698697,6.2253468409523816,-16.17825277305238,-2.8363449416809523,19.625248263238095
6.216621079,7.473773778000001,-17.524167441490473,-2.7210663683952383,20.93079711038095
6.221543538,8.642384032761905,-18.72024098490476,-2.609603133871429,22.11682989004762
6.226465771,9.701180869761904,-19.779343843523808,-2.5004725640142857,23.18491068204762
6.231388231,10.626304675,-20.732205561190476,-2.3830982857761907,24.149284871666666
6.236310617,11.403562117285714,-21.60964350452381,-2.2486163902523812,25.035194524666665
6.241232771,12.036752771714285,-22.428574152952383,-2.1004757781095242,25.871043884333332
6.246155231,12.53619644752381,-23.177888279523806,-1.9499985844904766,26.651953399047617
6.251077464,12.924456539571427,-23.82717641142857,-1.8128919558714287,27.339458883809524
6.25599985,13.204948834000001,-24.339449563809524,-1.7014178165380955,27.883891846190473
6.260922083,13.36990638004762,-24.68727929142857,-1.6241952875857144,28.247607802857146
6.265844553,13.413326127142858,-24.839146749047618,-1.5783041843000003,28.39391891619048
6.270767014,13.338234833285712,-24.775598524761904,-1.5643311866333338,28.304388929047622
6.275689401,13.147543203333333,-24.525556109047617,-1.592901566157143,28.006461995238094
6.280611631,12.915362585142857,-24.074327785714285,-1.6755125139190479,27.518408919523814
6.285534014,12.625115621857143,-23.46998228238095,-1.8070592156333336,26.877289054761906
6.290456476,12.215626432809524,-22.760280517142856,-1.977647788452381,26.106964569523807
6.295378689,11.63728969990476,-21.92198489833333,-2.1789880721333335,25.171493016190478
6.300301072,10.879277101309523,-20.911043370380952,-2.3955367463047623,24.031039056380955
6.305223305,9.945217663071428,-19.71939597690476,-2.60202911922381,22.690461393761908
6.310145677,8.8619239865,-18.40225244595238,-2.781945171814286,21.225293612714285
6.315068139,7.6849380415476185,-17.057975768142857,-2.929321697809524,19.771236070238096
6.319990358,6.467904950357143,-15.757759195333332,-3.0334533169523814,18.437204882523808
6.32491274,5.252141268119048,-14.51627870012857,-3.08541602752381,17.266835668142857
6.329834973,4.06407078945238,-13.309425316223807,-3.0820939825238094,16.27252553609524
6.33475736,2.923719130547619,-12.09796749617619,-3.0410477008761907,15.447418558
6.339679821,1.848079360547619,-10.847687025271428,-2.983241174966667,14.754682256095236
6.344602054,0.8254622024523807,-9.534853035080951,-2.9179452253951905,14.14265376657143
6.349524519,-0.17429111397619063,-8.167910606604762,-2.847289275614238,13.577138434666669
6.354446905,-1.173197340261905,-6.774096406319048,-2.7733487544094766,13.04600090847619
6.359369136,-2.177048504404762,-5.387721206223809,-2.6952755125332857,12.55404466752381
6.364291524,-3.1814812734047617,-4.035654235366666,-2.618347129728524,12.113835440857141
6.369213757,-4.166953271404762,-2.741788282366666,-2.5519922305380476,11.742051103238095
6.374136148,-5.125068826547619,-1.534089869223809,-2.493161174585667,11.443244459428572
6.37905861,-6.057757539452381,-0.4471489221761901,-2.4456277532999526,11.214836501333334
6.383980843,-6.945168997452382,0.5032309263952384,-2.411632613109476,11.070581625142857
6.388903225,-7.763283505119047,1.3197444988714289,-2.3867129102047144,11.006514975142858
6.393825687,-8.49733560702381,2.0061120107285717,-2.359836857966619,11.016597328
6.398747948,-9.13243763507143,2.559887321252381,-2.3275465809190004,11.10331665895238
6.403670331,-9.68116652409524,2.9904120394428575,-2.3037234332047145,11.267596760190477
6.408592564,-10.156089953,3.3141253306809526,-2.290957685061857,11.50037575852381
6.413515057,-10.562814258333335,3.5384042773809523,-2.2968333860618575,11.779887274809523
6.418437444,-10.89791232052381,3.68184646822381,-2.3230917752047144,12.063581193000001
6.423359675,-11.164312635047619,3.74997670592381,-2.3645457838237625,12.320248266904763
6.428282134,-11.376368795190476,3.7433096578333336,-2.4177473570618573,12.538166291761906
6.43320429,-11.537474314619049,3.666784896796191,-2.4845346850618575,12.70266797904762
6.43812675,-11.642936207142858,3.5258743677048576,-2.562426542899953,12.797191274761904
6.443049134,-11.701780637142857,3.326901603470714,-2.6465190690951905,12.825273223333332
6.447971367,-11.719158808571429,3.074290796096429,-2.727411590095238,12.79010692285714
6.45289375,-11.707093057142858,2.7828091243245243,-2.792405683304762,12.706295356190475
6.457816288,-11.682335853809525,2.46640945283881,-2.834945779404762,12.594955133809524
6.462738367,-11.647743452380954,2.1390247964673814,-2.854537444390476,12.466251029999999
6.467660904,-11.596462704285713,1.8123862653626195,-2.8481957315761908,12.319610860000001
6.47258329,-11.530163310952382,1.491915513634048,-2.8150358738857144,12.159008701904762
6.477505516,-11.447750818095237,1.1936900866769051,-2.7615250206952386,11.991072434761904
6.482427976,-11.344226655714285,0.9500265713245242,-2.694185163266667,11.823402094761905
6.487350362,-11.226662363809524,0.7641694286007147,-2.617457256409524,11.65855510095238
6.492272574,-11.111153421428572,0.6281241004054765,-2.5358556821238096,11.505839685714285
6.497194957,-11.00984932142857,0.5329408641435718,-2.458729349457143,11.374562241904764
6.502117189,-10.927141416714287,0.47311410122928604,-2.3942969668857144,11.26932845809524
6.507039572,-10.857198351904762,0.4413625281530955,-2.3365495801238096,11.181013281904761
6.511962038,-10.790043785571427,0.43195809596261936,-2.2948391466,11.102856754285714
6.516884194,-10.723412286999999,0.4489356701197622,-2.2699882445047623,11.033736559047618
6.521806653,-10.658338274619048,0.48756014694357175,-2.265509176838095,10.975279721428572
6.526728896,-10.594626608904761,0.5447132413388098,-2.284942788790476,10.927927448095238
6.531651278,-10.527495066714286,0.6173096199388098,-2.3343446510285717,10.888533734761904
6.53657374,-10.458500090333334,0.7032042367854765,-2.4098007594095243,10.856138896666668
6.541496202,-10.391992978,0.7972953344482385,-2.508465803838096,10.83276291
6.546418434,-10.328635488619048,0.8958460455395241,-2.627840987314286,10.817508146190477
6.551340817,-10.274305253238095,0.9982476190090478,-2.765011143171429,10.814690496666666
6.556263274,-10.219826380904763,1.101521812019048,-2.9177496632666666,10.814252216666667
6.561185429,-10.158436230571429,1.2037166271714288,-3.078363949419048,10.807311295238096
6.56610766,-10.091852551571428,1.3062003907333337,-3.234626764404762,10.793065214285715
6.57103012,-10.023853937809523,1.4098497714095242,-3.3797276190714287,10.77487013238095
6.575952581,-9.95795172757143,1.516072342757143,-3.5118937662857146,10.756085102380952
6.580874958,-9.897540047333333,1.6264925371904764,-3.6291351999523815,10.740326468571428
6.585797189,-9.842006002333331,1.7379819694000003,-3.727433914238095,10.726431778571428
6.590719571,-9.78739511404762,1.8486298691714287,-3.800455910809524,10.709740792857142
6.595642048,-9.733635993380952,1.9564041012714288,-3.849825007571429,10.69004570304762
6.600564281,-9.677804356904764,2.0589169604380952,-3.8753779615714286,10.663225602333332
6.605486663,-9.611580758238095,2.150507197495238,-3.8753864765238095,10.618352031142857
6.610408867,-9.521739960095239,2.221427906142858,-3.849090144761905,10.53946320852381
6.615331327,-9.395018010285716,2.261375239904762,-3.797904854761905,10.411735412809524
6.620253713,-9.22543925352381,2.257255474714286,-3.7252046267619043,10.228679281380952
6.625175838,-9.004964783333334,2.1984032825142856,-3.637014252809524,9.987074646809523
6.630098298,-8.719552221761905,2.072501475561905,-3.542394728904762,9.691111807809524
6.635020735,-8.353449605761904,1.8629901444190478,-3.4427491029523813,9.37102912057143
6.639942968,-7.8862686178476205,1.559024008228572,-3.3435925643333335,9.09072252852381
6.644865351,-7.309951795704762,1.1548669089428574,-3.2452597505238097,8.908057578714287
6.649787826,-6.631253369514285,0.6496066798476194,-3.152735755619047,8.849205558857143
6.654709982,-5.864694790466667,0.038015851657143225,-3.0675184613809527,8.922297244571428
6.659632224,-5.0312791913714285,-0.6870215756761902,-2.98666218352381,9.132201674571428
6.664554606,-4.1160429453714285,-1.50625914867619,-2.8889867010952384,9.46750286457143
6.669477145,-3.2030506496095237,-2.4678791954857138,-2.74877526652381,9.92415191695238
6.674399532,-2.3024374551809523,-3.610964493533333,-2.5597322686904764,10.541208368380953
6.679321762,-1.3856190180857144,-4.911969766152381,-2.326717213976191,11.31278450552381
6.684244145,-0.4121332983238097,-6.31452049772381,-2.074125019309524,12.19873521695238
6.689166344,0.6723515285809523,-7.753994966866667,-1.8356242085,13.163748865047618
6.694088803,1.8836555574380949,-9.201634693438095,-1.6322004984047624,14.20252218504762
6.69901119,3.193941852485714,-10.671532054580954,-1.4680173075000003,15.321092445809525
6.703933431,4.5375070212476185,-12.16014021029524,-1.3331984995323811,16.488312382238096
6.708855813,5.838790539771428,-13.625164988057143,-1.2246938366133335,17.64276760961905
6.713778046,7.035317793961905,-15.015573424533333,-1.1319663145371432,18.73450426604762
6.718700506,8.109264724009524,-16.30169567272381,-1.0314362223180953,19.752862774619047
6.723622892,9.075084105342857,-17.482219369342857,-0.9148258368185717,20.721427962238096
6.728545123,9.925715546580951,-18.57419962595238,-0.7727481723042858,21.675627641095236
6.733467583,10.65909232215238,-19.602563847238095,-0.6178807417519051,22.657123626285713
6.738389969,11.284214585390476,-20.57501257085714,-0.47065765232809553,23.671293624000004
6.743312409,11.804587920619047,-21.486529713904762,-0.33850394257571453,24.66386997176191
6.748234642,12.229598386142857,-22.320289975619044,-0.22890356749000024,25.57546763347619
6.753156795,12.573473067714284,-23.059478487619046,-0.14664008929000025,26.37418517857143
6.758079251,12.833419413761904,-23.66561826095238,-0.08626942262333358,27.018857148095236
6.763001636,12.992510432333333,-24.09554041,-0.05115966424238121,27.464519398571426
6.767923872,13.012832096476192,-24.336408069999997,-0.0634697604328574,27.68404203809524
6.772846255,12.974651245666667,-24.322247913809523,-0.14734609776619073,27.662698037619045
6.777768717,12.88742492295238,-24.004719052857144,-0.30061295731380977,27.352581058571428
6.782690954,12.715270655333333,-23.402628943809525,-0.5025263878852384,26.747385219999998
6.787613337,12.411571547761904,-22.572652453095237,-0.7229532936471431,25.880750105714284
6.79253557,11.916641030714285,-21.58393989252381,-0.9299789124090478,24.794824702714283
6.797458275,11.212497381619048,-20.476141452285713,-1.1011694410757145,23.515184886047617
6.802380508,10.334165017803143,-19.249515612285716,-1.2184490614566668,22.061350366333333
6.80730289,9.353176350755525,-17.92103522122857,-1.283628487519524,20.520813741
6.812225103,8.344680645231714,-16.53722872584762,-1.2990473931052382,19.049624802095238
6.817147486,7.359227323231714,-15.143737094371428,-1.2839072499290478,17.748965982714285
6.822069719,6.40101635542219,-13.767274419180952,-1.2650981549033335,16.646705823190477
6.826992101,5.446907640565048,-12.407421855228572,-1.2479009649600001,15.724446132523811
6.831914554,4.495687219184095,-11.043113021038094,-1.2349289166123811,14.945808108428572
6.836836787,3.5571576595174283,-9.626751893419048,-1.2175421083552382,14.255800324142857
6.841759169,2.6328156403745715,-8.137577323085715,-1.1816126811123813,13.599362169380955
6.846681416,1.713171557041238,-6.5805573175619045,-1.1209123951028572,12.952863002714285
6.851603799,0.7709670815174283,-4.972761102514285,-1.0430802994266668,12.319330867
6.856526017,-0.2154832954349525,-3.3404605896571424,-0.9580849672076194,11.70382666652381
6.861448708,-1.2512289159111432,-1.7608446788952379,-0.8811165368228574,11.124188709857142
6.866370941,-2.3028513521016194,-0.27855650003809496,-0.8229528173180953,10.626360873190476
6.871293323,-3.3100230735301905,1.0772214675333338,-0.7739542003180954,10.22743763795238
