Time (s),Linear Acceleration x (m/s^2),Linear Acceleration y (m/s^2),Linear Acceleration z (m/s^2),Absolute acceleration (m/s^2)
0.123771716,-0.04210881037190476,1.8046000028761904,4.186616103190476,5.5660155799523805
0.128694178,-0.03818595320523809,1.643599333895238,3.8275072010000004,5.327008571666666
0.1336163,-0.03612709599604762,1.4845326170857143,3.4727916322857144,5.083201953619047
0.138538531,-0.033953000701142856,1.3247830410857144,3.121810731666667,4.836466644619047
0.14346099,-0.028081619622571427,1.165146750804762,2.7739089218571427,4.587114593714285
0.148383326,-0.014601286277333333,1.004894270547619,2.429501925380952,4.335994719285714
0.153305787,0.0035346665298095228,0.8443181257142857,2.085373452904762,4.085770024666666
0.158227943,0.020940523460761903,0.6840614561,1.7413401718571426,3.8351260504285714
0.163150155,0.03300219033457143,0.5247149295428571,1.394958411047619,3.5849419807142855
0.168072538,0.03898499981266666,0.36701764080000004,1.0432446514761904,3.337932128285714
0.172994751,0.03837590455980953,0.2082813040238095,0.6839022239523809,3.098146869952381
0.177917134,0.038681142784095235,0.04798982530000001,0.3230715139047618,2.860357142238095
0.182839347,0.04468766675076191,-0.11348808388095238,-0.03651538914285723,2.622063298523809
0.187761729,0.05597061951980953,-0.2759538492238095,-0.3972364323333334,2.385644158333333
0.192684191,0.06903304837933333,-0.4360079481952381,-0.7590382893809524,2.149293584047619
0.197606328,0.08027419132933333,-0.5939150452857143,-1.1206103336190476,1.9115891591904763
0.202528559,0.09144500079838094,-0.7487117619761905,-1.4789231391428572,1.6696481396666667
0.207451018,0.10167090530390477,-0.7352479043476191,-1.432849798904762,1.6225969131904763
0.212373485,0.11493023828342858,-0.7196394276095238,-1.3889256602380953,1.5769000233333335
0.217295641,0.1303002384372381,-0.7009929049619048,-1.3378703282095237,1.5242268503333332
0.2222181,0.14573352450980953,-0.6787082850952381,-1.2771050901761904,1.4638083623380953
0.22714047,0.16203823867028572,-0.6521805233904762,-1.2094100884095238,1.4022472458857143
0.232062626,0.18042109644409524,-0.6215246671000001,-1.1401743267061906,1.3455068266380952
0.236984784,0.2000644770182381,-0.587629524944238,-1.0677269940966667,1.2939620297
0.241907244,0.22346142927333335,-0.5485037141699524,-0.9815112340538096,1.2593301424142858
0.246829463,0.24766071424,-0.5041626651461428,-0.8791971365109523,1.2460656984142857
0.251751845,0.2636801905495238,-0.457230092736619,-0.7627526623204762,1.250107315652381
0.256674307,0.2735293344304762,-0.4081550469794762,-0.6346206653204762,1.2640361619380953
0.261596462,0.28446157275904765,-0.3605250945461429,-0.4933421940347619,1.2908080711285717
0.266518921,0.29888747844952385,-0.31311614336519045,-0.33895009351095234,1.3270458032238095
0.271441077,0.3164657641690476,-0.2653285238747143,-0.16750785732047618,1.3711136120333334
0.276363624,0.33570200275285716,-0.21809419017947618,0.023609100155714297,1.4188001791285716
0.28128601,0.35121047922142856,-0.1717063339747143,0.23069610034619045,1.4782781679380952
0.286208164,0.365025907752381,-0.1285688567080476,0.45858234001285714,1.560300396604762
0.291130615,0.37604952709523803,-0.08670638026661906,0.707522194774762,1.6604389350333335
0.29605254,0.37951843156190473,-0.04794809421280953,0.9665738185366667,1.7689520966047618
0.300974926,0.3728000982819048,-0.013441381306142855,1.2310720579652379,1.8839528620333332
0.305897388,0.35288552726285716,0.014078617853857143,1.4953260092509524,2.0065235601285716
0.310819621,0.3206332418104762,0.035726903851000004,1.7559355735842859,2.1346422624619046
0.315742028,0.28016067189142857,0.0516489989462381,2.0075848624890478,2.2689518261761905
0.320664261,0.23208276784857143,0.06381252306052382,2.2394114318414284,2.4132773609380953
0.325586644,0.17953019694857145,0.07161261890814286,2.445705236141429,2.567159983790476
0.330508872,0.12702157880095238,0.07724414237957143,2.6281823328509524,2.721588282719048
0.335431331,0.07546262584857143,0.08161728513957144,2.7897071001,2.866411279347619
0.340353718,0.028375434729523804,0.08592738024571428,2.9279155305380953,2.994725226619048
0.345275949,-0.020427373908571432,0.09111471358571428,3.030111477495238,3.0907565450476193
0.350198408,-0.07066575473714287,0.09611199964761905,3.092968957761905,3.148282567761905
0.355120559,-0.11419318332761903,0.10656947562857143,3.1207284359523806,3.17356765152381
0.360042713,-0.15219704239428572,0.1220726196095238,3.1184322493333334,3.1724150024285716
0.364965187,-0.1861576139942857,0.14703090373809524,3.0860132035714285,3.1471931412857144
0.369887572,-0.21552351968952385,0.17723190314761905,3.0266936761952383,3.1033515044761906
0.374809814,-0.23837675775380954,0.21077190082857142,2.9384391066714284,3.043175135047619
0.379732196,-0.2508631868395238,0.25140089886190475,2.8217743408095237,2.9732078793333336
0.384654658,-0.2573585206919048,0.30063523023809524,2.6756833862666665,2.8962843857619047
0.389576896,-0.2648992824061905,0.3595499902952381,2.4942417655857145,2.8059220073809525
0.39449905,-0.26857304448714286,0.42652056005380956,2.2801775279523806,2.706756173095238
0.399421504,-0.2586950916966667,0.4990918465428571,2.0454280490190477,2.610616334904762
0.404343889,-0.2278624263880952,0.5768200354409524,1.7943841900666666,2.520021199047619
0.409266122,-0.17298166613571428,0.6593345105904762,1.532326664257143,2.435162266095238
0.414188499,-0.09631809538809524,0.7456312751219047,1.2598442861142856,2.3614268936666667
0.419110732,-0.00285676353095238,0.8336282276933333,0.9802434274476189,2.2982704894761903
0.424032882,0.09926199537380953,0.92206651436,0.6955661490190475,2.247009048238095
0.428955264,0.1961610421452381,1.0068572770457143,0.40442534292380944,2.2068272810000003
0.433877745,0.277763848302381,1.0816452322219048,0.10439982306666662,2.1810219358571428
0.438799978,0.3443114663261905,1.1437335635333334,-0.2013474702190477,2.1751401326190476
0.44372236,0.3984822281166667,1.191351799747619,-0.5079456113142858,2.1958374622380954
0.448644607,0.44875122728809524,1.2228605605380953,-0.8126894576,2.2476634471904764
0.45356699,0.4980490383071428,1.239477132052381,-1.1109328439809525,2.3309442955714283
0.458489209,0.5430227054833333,1.2403907506285716,-1.4012242782190476,2.4393967424285714
0.463411668,0.5845336110214285,1.2256376076333333,-1.6781312283619048,2.567428970952381
0.468334055,0.620877849002381,1.1916196087285713,-1.938845651457143,2.7072301547142854
0.473256518,0.6533974676738096,1.1417792769380952,-2.181851179795238,2.854111196952381
0.478178751,0.681859324,1.0769845165619047,-2.4025639848904765,3.001786891095238
0.483100905,0.7058240849142857,1.000103804695238,-2.5993502139809523,3.14174468047619
0.488023274,0.7298652266952381,0.9114170915285713,-2.7683025044857144,3.263536261238095
0.492945429,0.7522399396904762,0.8134554273142857,-2.9057458355190473,3.360058281904762
0.497867668,0.766719985552381,0.7080972864952381,-3.0116459840761904,3.4274084037619046
0.50279013,0.7659008900095239,0.5971188108571428,-3.0934847479523806,3.470239276857143
0.507712514,0.7429637958380952,0.47973928740476196,-3.1615955148095236,3.4987148156666668
0.512634756,0.6957572258447619,0.3572848598619047,-3.2207119407619045,3.5181224365238095
0.517557139,0.6250424171971429,0.22635537843333328,-3.266343797904762,3.5258229051904757
0.522479372,0.5386602750733334,0.08835680886190475,-3.2922775063809526,3.5190170420476186
0.527401836,0.4425169442495238,-0.055862572614285726,-3.287278561333333,3.4917369216666665
0.532324223,0.34561318303523814,-0.20300719109047619,-3.2312274149047617,3.4409844990000003
0.537246454,0.2613105674590476,-0.3496131936142857,-3.1006952775690477,3.3744287108095237
0.542168826,0.18818523628285716,-0.4968128129952381,-2.884938038140476,3.3338383851904765
0.547091059,0.11514718901619048,-0.6452442389952381,-2.5836091406642856,3.341472687666667
0.552013228,0.035003853706666685,-0.7942707180428572,-2.198989677616667,3.399585166952381
0.55693561,-0.0568518141838095,-0.9441671438857142,-1.736206829188095,3.509390780809524
0.561857843,-0.1639979552695238,-1.0989631467857144,-1.1988431637595238,3.6772708167619044
0.566780298,-0.28023476684571424,-1.2576432877428572,-0.5820818426166665,3.9158627809523807
0.571702683,-0.39428090904571433,-1.418615432738095,0.11252144166904768,4.230167039428571
0.576624944,-0.49893286252666663,-1.577441618552381,0.8671673342880953,4.6053060252857145
0.581547327,-0.5910130525933333,-1.7310323842714286,1.6595300922404763,5.025526857857143
0.58646956,-0.6732054309790476,-1.8804174377380953,2.46387461005,5.470747603857143
0.591392014,-0.7587108086361903,-2.0219894391904765,3.2562132653833333,5.927564933047619
0.596314401,-0.8490629493552381,-2.1586405350714286,4.024795109954762,6.395795625666667
0.601236632,-0.9406491361409524,-2.304548720490476,4.766314106907143,6.877409369238095
0.60615899,-1.0417986582742857,-2.4491023392809526,5.505641492002381,7.383492167380952
0.611081223,-1.1479236632123808,-2.5805065802095237,6.26823301305,7.918220092285715
0.616003386,-1.2402524294809525,-2.6995756285238093,7.0458947337642845,8.466293285666668
0.620925845,-1.3098423792619047,-2.8108644314761904,7.822326884764284,9.014153187666667
0.625848016,-1.3602038564714285,-2.917840384238095,8.597224936907143,9.574930785047618
0.630770476,-1.3861278578857141,-3.0235566694761906,9.368828032859524,10.164802456714286
0.635692855,-1.3785221916809525,-3.1242688666666667,10.10742428505,10.77687114247619
0.640615088,-1.3495579545904763,-3.2115370091428574,10.77263706642857,11.38146691847619
0.645537471,-1.3089431461671428,-3.2762383846666667,11.338065828714285,11.917948233809524
0.650459704,-1.2616277644347618,-3.3087081000476193,11.788610708428573,12.346199530238096
0.655382163,-1.2135945716919048,-3.2993573801428573,12.118298326666666,12.652006125619048
0.66030455,-1.1668833808633334,-3.2449260950000003,12.321041720714286,12.827613689238095
0.665226781,-1.120187098282381,-3.1463067588047617,12.398338499999998,12.87415867247619
0.670149163,-1.0779102390157143,-3.00633266602,12.341029553619048,12.786451045761904
0.675071396,-1.0468802369204762,-2.828328091805714,12.150673162714284,12.569784529190475
0.67999376,-1.0311400466823808,-2.620866334505714,11.852531365285714,12.252853943142858
0.684915915,-1.0282266170633332,-2.3867021419819046,11.466832115999999,11.858293355238095
0.689838408,-1.0353002351585714,-2.125575425077143,11.01343659042857,11.411862292904763
0.694760641,-1.0402706664919048,-1.8404888954580954,10.503954796857144,10.938649722476189
0.6996831,-1.0338330469680952,-1.5326763750295236,9.939371188719047,10.458457812380953
0.704605492,-1.010328906120476,-1.1941427124104762,9.316213626542858,9.992865005285713
0.709527646,-0.9526295748919049,-0.8443244259342858,8.610127195495238,9.547780759619048
0.71445008,-0.860417521972857,-0.4953718486961905,7.805358916876191,9.126953851952381
0.719372313,-0.7608019938609523,-0.14908156688666668,6.920150946114286,8.743938344952381
0.724294696,-0.6686613299228571,0.2008977202085714,5.974030933638096,8.411534038761905
0.729216924,-0.5945083293290476,0.5582370910180953,4.962208346733333,8.121997182095237
0.734139306,-0.5454839475290476,0.9229457189704763,3.8795263731142855,7.864410779428572
0.73906152,-0.5314155668195238,1.2831517666847618,2.7434961757809524,7.645714555619048
0.743983903,-0.5491839484242856,1.6336830495895238,1.579176592447619,7.485043872761905
0.748906111,-0.5857992340904762,1.9728518593038096,0.40963841244761895,7.394610575619048
0.753828494,-0.6253115191657143,2.2924264764942857,-0.7412387227904763,7.380336184190476
0.758750717,-0.65821485338,2.579726813446667,-1.8576600137428572,7.4434657237142865
0.763673099,-0.6809036636942857,2.823126904684762,-2.924629476457143,7.582991717523809
0.768595332,-0.6857132816895237,3.024766386632381,-3.937003037647619,7.787304120000001
0.773517782,-0.6757491391609524,3.1856887681333332,-4.8876535026,8.04622784652381
0.778439938,-0.6503862360133333,3.3078800014428573,-5.7716432455047615,8.34414812547619
0.783362397,-0.6090730916085714,3.393359576,-6.59352367712381,8.66381856104762
0.788284787,-0.5541162829228571,3.442929194142857,-7.357529724028573,9.004606178
0.79320702,-0.49127509487047616,3.453969671666666,-8.061076338933333,9.364141149380952
0.798129402,-0.4217652849609524,3.4231037185714293,-8.68961633250476,9.728101990285714
0.80305165,-0.35142804903714286,3.3535859585238095,-9.23433174817619,10.07941360942857
0.807973804,-0.2879642873466666,3.2426960525476196,-9.687089477142857,10.393564708904762
0.812896267,-0.23528138237999996,3.099440146085714,-10.042970078190475,10.650516344952381
0.817818423,-0.19473652657047616,2.9284460970523813,-10.306518304761905,10.83787844852381
0.822740879,-0.16222595609666665,2.7334606732904763,-10.488261268095238,10.956734584761906
0.827663263,-0.1401247645585714,2.5166952865619048,-10.595802011809523,11.009937872666667
0.832585725,-0.12544605091428568,2.2788158655333333,-10.638907250761905,11.005762391857143
0.83750789,-0.1142866220290476,2.019799953438095,-10.62350359404762,10.95040834752381
0.842430121,-0.10445186025285713,1.7463239602000002,-10.550339176428572,10.848058262809523
0.84735258,-0.09421947837666664,1.456604435342857,-10.422841003952382,10.700488471095237
0.852274984,-0.08152647910523807,1.1514133385333334,-10.257654576190477,10.520796864761904
0.857197217,-0.061468193481428554,0.8351625828666668,-10.072982992619048,10.324483103428571
0.862119599,-0.038117477848095216,0.5145919550095238,-9.878653004238096,10.121329837904762
0.867041832,-0.015042095929047605,0.19854690915238102,-9.679481529333334,9.917929074333333
0.871964215,-0.0018867150433333202,-0.10873290470476185,-9.483981291476189,9.722108805571427
0.87688637,0.0016949053519047783,-0.40587495622857145,-9.301018737571429,9.542532246666667
0.88180883,-0.0040897623195237905,-0.6879559471809523,-9.139892328238096,9.387472513380951
0.886731054,-0.020299286624285692,-0.9527729466095236,-9.00095901004762,9.257052510714285
0.891653513,-0.049689999909999984,-1.200340418609524,-8.881345544380952,9.147428005285715
0.896575669,-0.08829485801952379,-1.4308047976095237,-8.778157075095239,9.055653292904761
0.901498037,-0.13866933470523807,-1.6425280911809526,-8.695190497761905,8.985788232285714
0.90642027,-0.20312880901476188,-1.8347106093714285,-8.63070394895238,8.935595385809524
0.911342652,-0.2767031902290476,-2.0014288936809526,-8.584859689238094,8.905437096952381
0.916265125,-0.3551475235290476,-2.1422779929333333,-8.557494413428572,8.893521451047619
0.921187358,-0.4416380467814286,-2.258924277090476,-8.550150848714285,8.90102179757143
0.92610974,-0.537500378605238,-2.352252185376191,-8.56100311747619,8.926647140238094
0.931031963,-0.6348873802242857,-2.4236457035999996,-8.582920869333334,8.963417132666667
0.935954117,-0.7244769022242857,-2.4720317522857145,-8.600939591857141,8.995446049809525
0.940876499,-0.8093771866714286,-2.4972955159047623,-8.605973448190477,9.013166231047618
0.945798971,-0.8908800439571427,-2.4959599915238093,-8.596514724666665,9.013583717761904
0.950721204,-0.9679360445999999,-2.470511464857143,-8.56353301104762,8.987156601714286
0.955643586,-1.0357363762619047,-2.428202226047619,-8.488844076904762,8.916026960952381
0.960565848,-1.0984345645285714,-2.375559466238095,-8.364455586476192,8.793558103857142
0.965488231,-1.1567517064047617,-2.3126119375238097,-8.194987410666666,8.624773164
0.970410464,-1.2097699925047618,-2.2368040822857145,-7.989270755285714,8.417670859619047
0.975332927,-1.2508650903571428,-2.1472551311904757,-7.747853301904762,8.171716438714286
0.980255314,-1.2813938514523808,-2.046775888838095,-7.464920339238096,7.8838480258571435
0.985177545,-1.309928899642857,-1.9416780358238095,-7.13823600052381,7.557424656380952
0.990099913,-1.3443459952666668,-1.8334550403571428,-6.772205977285715,7.204464494761905
0.995022146,-1.3828636633809523,-1.7233735181095238,-6.360152957038095,6.8293496490952394
0.99994429,-1.4138333768,-1.6138643764190475,-5.874233194790476,6.453345901714287
1.004866749,-1.432443184404762,-1.5100155132000002,-5.280739017885715,6.158171099238095
1.009788915,-1.4367470427809523,-1.4141005163952383,-4.573605951790476,5.979737491238096
1.014711375,-1.4353878525238095,-1.3244009954238094,-3.7616408268380956,5.9177479095238095
1.019633836,-1.4388240404190475,-1.2417015149333335,-2.8517985172190476,5.965946587428571
1.024556228,-1.4397973275142857,-1.1579563276857143,-1.8290877172190476,6.1271225154761915
1.029478151,-1.4225113759904762,-1.0699001337571428,-0.6818483500761905,6.410026971190477
1.034400611,-1.3678531376238094,-0.9888958533333333,0.5964025260666665,6.830665433238096
1.039323076,-1.2697019476809523,-0.926908660495238,1.9978039549238094,7.397746131666667
1.044245463,-1.1444472825857144,-0.8825767096714285,3.4820015262571427,8.083799451714286
1.049167694,-1.0174854241095237,-0.8526717594333333,4.995525695304762,8.84488102495238
1.054090043,-0.919180518747619,-0.8369031860523809,6.4803949482571435,9.642432590333334
1.059012199,-0.8921138054619048,-0.8451269524333334,7.890281103971428,10.451074872190476
1.063934625,-0.9334722423190476,-0.9007555302904762,9.233263509495238,11.285752228714287
1.068856857,-1.0035541972238096,-1.0179078635761905,10.541472769590476,12.166348186
1.07377925,-1.0651590036047618,-1.175153102195238,11.843014075495237,13.101019193952382
1.078701406,-1.1018334293190477,-1.339766962195238,13.163443990923811,14.104829556
1.083623865,-1.1222069099857144,-1.495873096452381,14.495837682447618,15.176857345380952
1.088546117,-1.1402695753190477,-1.6415287653714286,15.820234655828571,16.29887667004762
1.0934685,-1.1559418617,-1.7780471416,17.10945704392381,17.43833953195238
1.098390733,-1.159579192604762,-1.897644902990476,18.338713898009523,18.571836404476194
1.103313182,-1.1545482427,-1.9844578107285717,19.46230128790476,19.662855686142855
1.108235569,-1.1429104329666668,-2.0214285254714284,20.432120095571427,20.62258123304762
1.1131578,-1.1326649565380953,-2.012014098138095,21.234451656857143,21.419860880857144
1.118080187,-1.1177784325380953,-1.9724496681333332,21.867794899523812,22.04982932714286
1.12300242,-1.0899072921333333,-1.9235091926380952,22.32417587952381,22.50312460142857
1.127924792,-1.0631359084904761,-1.8858127629761905,22.577168872857143,22.753897262857144
1.132847024,-1.0531752883142858,-1.8589560013714286,22.602669579047618,22.778780053809523
1.137769174,-1.0787924776619047,-1.814826001042857,22.384262674285715,22.561844653809526
1.142691634,-1.1469878604190475,-1.7329508102142857,21.92414606095238,22.105177717619046
1.147614037,-1.2319801925333334,-1.6074196675619046,21.250395274238095,21.439252500857144
1.15253627,-1.3067519544285715,-1.448838143895238,20.403345629190476,20.61040749152381
1.157458653,-1.3389627167285714,-1.2618279124190477,19.42566000752381,19.673011505904764
1.162380886,-1.291817192552381,-1.042362957561905,18.356072572571428,18.69579114738095
1.167303268,-1.1725814726161903,-0.7686966211333333,17.193968874380953,17.748497092809526
1.17222573,-1.0268528527149048,-0.4324947148952381,15.92950865152381,16.857393659476188
1.177147963,-0.8947837128758571,-0.0615766680380952,14.558355296666665,16.011992804714286
1.182070345,-0.7920529513820476,0.30542543315238097,13.068042584190474,15.192266807238095
1.186992501,-0.7056353774672857,0.6551208545333334,11.465854564809524,14.398812035190478
1.191914966,-0.6171538540101428,0.9838144714857142,9.783228976095238,13.634522569000001
1.196837121,-0.5185152328768095,1.2898893746285716,8.059065647999999,12.913471281380954
1.201759566,-0.4227722351958571,1.561341563104762,6.3189050237142865,12.247759627571426
1.206681799,-0.33968804217204757,1.7807888012000002,4.584052368952381,11.648806731380953
1.211604181,-0.27413637660538087,1.9391299478666668,2.871534903238095,11.12184950757143
1.216526414,-0.22319842457204758,2.037289282347619,1.1911399127619045,10.659952308047618
1.221448568,-0.19030090057014282,2.088171474942857,-0.44041260200000004,10.262463939952381
1.226371028,-0.17347694817490472,2.1123027119857145,-2.004844292,9.943193870428571
1.231293489,-0.16389385388442854,2.116552569990476,-3.482780536761905,9.71741143995238
1.236215876,-0.15901080580347615,2.0949503800238096,-4.857147932476191,9.595450290428571
1.241138107,-0.16085128370347615,2.031242046280952,-6.113397042,9.573832427095239
1.246060499,-0.16814999731776187,1.920596139042857,-7.252095302,9.649050111380953
1.250982732,-0.18993161501299996,1.760768713709524,-8.261328867666666,9.818240014809524
1.255905115,-0.22460599549871424,1.5562744303761904,-9.128424156428572,10.080170183190475
1.26082727,-0.27019961484633326,1.3162812441857146,-9.84325141,10.423248712142858
1.265749523,-0.3243186610701428,1.0535840584238096,-10.41067686552381,10.816152558761903
1.270671985,-0.38240666281585706,0.7732621538047619,-10.84078248352381,11.176759343809525
1.275594369,-0.4361224742885714,0.47925253637619053,-11.148997011619048,11.45266375
1.280516529,-0.4837090464609523,0.1756115917571429,-11.349739347142858,11.63826960095238
1.285438989,-0.531676238245238,-0.13793327200476188,-11.455423128,11.741244814571429
1.290361222,-0.5852630969695238,-0.45423165462380954,-11.478342147047618,11.768896316619047
1.295283667,-0.6492034297123809,-0.7669404184809524,-11.440935997714286,11.742674626380952
1.300206054,-0.7260599988933333,-1.0748255203380952,-11.361737478190477,11.680872497238095
1.305128285,-0.8163558075266666,-1.3690959903857143,-11.255948702142858,11.596590474142857
1.310050676,-0.922055569502857,-1.6470562227190475,-11.129852203666667,11.497540600333334
1.314972909,-1.0341879045171427,-1.908194605147619,-10.984130768190475,11.38193652795238
1.319895063,-1.1390020010742856,-2.1503627478142855,-10.825735772761906,11.255583471761904
1.324817517,-1.2325204318952379,-2.3679544138619044,-10.664465131619048,11.126249704142857
1.329739902,-1.3209970493142855,-2.558788271938095,-10.502818061428572,10.995541218904762
1.334662146,-1.4010772392,-2.7154440873285717,-10.338161150095239,10.860252217
1.339584605,-1.463383288504762,-2.8365180833714283,-10.166066124,10.714520410809524
1.344506761,-1.5033782861476188,-2.919980560095238,-9.991370428000002,10.560656617047618
1.349429163,-1.5229649060523809,-2.9713241316666665,-9.815223920809522,10.399117993190478
1.354351624,-1.5267464347666666,-2.9939010825238093,-9.649016334666667,10.241327482761905
1.359273857,-1.5216117671,-2.987735368047619,-9.499104227095238,10.093664243619047
1.36419624,-1.510862671147619,-2.955623127285714,-9.372844105571428,9.963258642857143
1.369118473,-1.4930941008142857,-2.9007420825238093,-9.26486719195238,9.844993734857143
1.374040855,-1.4710414324285714,-2.822664033952381,-9.173430715095238,9.737725978285713
1.378962992,-1.4497151459714286,-2.7220116571333333,-9.099312600571428,9.64315227857143
1.383885452,-1.4305629077238096,-2.6023682811380953,-9.051898365857143,9.571215085333332
1.388807588,-1.4119242883714285,-2.4629765154142857,-9.031921068761905,9.521748455809524
1.393730048,-1.3900765237190476,-2.3121829445523807,-9.031071662857144,9.488882799571428
1.398652281,-1.359967475842857,-2.1524169864609526,-9.039920716000001,9.46382632642857
1.403574668,-1.3215181458380951,-1.9848522205095713,-9.050888924333334,9.438733269714286
1.408496901,-1.272468813833333,-1.8136505581952858,-9.055129459904762,9.406814784714285
1.413419284,-1.2051844327428571,-1.6409967511238572,-9.04769929247619,9.361567396333333
1.41834155,-1.1222827171999998,-1.4688535160143334,-9.033246539857142,9.308939653285714
1.423264009,-1.0341994776809524,-1.2976303261619524,-9.015158335333334,9.253558188238095
1.428186396,-0.9496225707666666,-1.127991947876238,-8.995281355666666,9.198990518619047
1.433108632,-0.8659466200047619,-0.9596058986667141,-8.972347713571429,9.14422596947619
1.438031014,-0.7770303821285716,-0.7976052737571904,-8.942233358000001,9.084968156666667
1.442953156,-0.6844331436066666,-0.6407211342524286,-8.906625929238094,9.023102396380953
1.447875385,-0.5951535260161904,-0.48854779961433326,-8.872546150476191,8.96697484247619
1.452797769,-0.5214710961209523,-0.33916389139528563,-8.838455926714285,8.915072149666665
1.457719987,-0.45755471270000003,-0.19244246589528563,-8.786178566095238,8.84873156504762
1.462642447,-0.390259286657619,-0.04899813780004755,-8.703863143857143,8.755292680428571
1.467564833,-0.31738019219571423,0.0886363382475715,-8.583051068380954,8.627231498761905
1.472487069,-0.2512892408338095,0.21220652500947626,-8.419201941666667,8.459954712333333
1.477409452,-0.19823438443380947,0.3211513327713811,-8.194545371142857,8.236865092857144
1.482331685,-0.16009090716238092,0.4212612846190001,-7.888938529095239,7.9427984490000005
1.487254144,-0.12830276361047616,0.5173410485285239,-7.472937144647618,7.595730608428572
1.492176531,-0.08960495321047614,0.608135478423762,-6.924941191314286,7.327599108619047
1.497098762,-0.04306400176761901,0.6924944757047143,-6.240216724171428,7.178338030571429
1.502021115,0.014443950284761954,0.7693009535656666,-5.400473473266667,7.1710760394761905
1.506943271,0.07649576025142862,0.8442649554238096,-4.389835963028571,7.3254197105714285
1.511865486,0.1325565711371429,0.9170710508714286,-3.195785355885714,7.656326590571429
1.51678787,0.18336085549428574,0.9965509084666667,-1.8242782560761903,8.167520224666665
1.521710322,0.2300901427180953,1.0779287184047621,-0.2934568646476188,8.842785042
1.526632555,0.2739730484466667,1.1544509062190476,1.371121709209524,9.64977021895238
1.531554937,0.3341002847704762,1.2120828132190478,3.1283710417333337,10.540408703809524
1.53647717,0.42300609181809534,1.2406484825809525,4.9083752251619055,11.448087346285714
1.541399553,0.5061355218942858,1.233919052904762,6.652337649209524,12.331153241952382
1.546321786,0.5619592813723809,1.1795570992857143,8.349864217685715,13.19245714509524
1.551244245,0.6154918023057143,1.0828566211238095,10.0232982934,14.051432126095238
1.556166632,0.7038017066009525,0.9669878086190477,11.69885738292381,14.93811534657143
1.561088863,0.8404329445609523,0.8409698066904762,13.398772655685715,15.901838085904764
1.566011245,0.9990482786138095,0.691767573404762,15.117145704447621,16.957250528714287
1.570933401,1.157703086199524,0.5050186714047619,16.80754117316191,18.069879293047617
1.575855625,1.3137367511233333,0.29302134407142855,18.435730146638097,19.217570603190477
1.580778086,1.472692176147143,0.08290177873809525,19.97722509497143,20.405625106857144
1.585700242,1.6525275623709523,-0.10126912588095237,21.406080582209523,21.639082954238095
1.590622702,1.8558118442380953,-0.25061774816666665,22.691900479619047,22.88535808661905
1.595545086,2.0668015579190477,-0.3685463212142857,23.80029149204762,23.996725824571428
1.600467334,2.2718271754904764,-0.46330755658095235,24.71759623504762,24.924974593142856
1.605389717,2.457815737942857,-0.5406377009809524,25.42458843,25.64532347952381
1.61031195,2.628630967352381,-0.6119764648904761,25.89984598571429,26.134684060476193
1.615234399,2.7892112986999997,-0.6854658938866667,26.11054783761905,26.35958868857143
1.620156786,2.9324371047761906,-0.7681972274271428,26.036088398095238,26.298294079999998
1.625079017,3.049696056533333,-0.8467676557604762,25.67821348238095,25.951830290952383
1.630001356,3.1444660991904763,-0.900556462465238,25.05708163095238,25.342202233333335
1.634923512,3.2111123912857145,-0.9095912720842857,24.212513015238095,24.51322784666667
1.639845957,3.242180438190476,-0.8668033228461903,23.214277040238095,23.540299141238094
1.644768112,3.2633369592857147,-0.7695307507938095,22.11595669238095,22.486948345238098
1.649690591,3.2919148660476187,-0.6164401772985715,20.92572518747619,21.38219208023809
1.654613052,3.305927299285714,-0.4275730794890476,19.63600818037143,20.26066605947619
1.65953529,3.274867727619047,-0.23113455691761906,18.23257814970476,19.158003063809524
1.664457444,3.190977011380953,-0.03835855244142857,16.696232599800002,18.06176845685714
1.669379827,3.065523962147619,0.16258278317761907,15.0354085508,16.96543021933333
1.674302288,2.9163366782857145,0.3845383493204762,13.294956556419047,15.909768319095239
1.679224521,2.7531724423000004,0.6167177242252381,11.504359276466667,14.925024704047619
1.684146904,2.5753263987095236,0.8278715323204763,9.68020601227619,14.015065903333333
1.689069156,2.3779265837809525,0.9885823410919047,7.835301203704763,13.18372199857143
1.693991538,2.1521323025190475,1.091821247282381,5.97513656132381,12.441261442380952
1.69891381,1.8884531131666666,1.1441880095542858,4.118086347038096,11.79864858952381
1.703835964,1.592946255452381,1.147403390635238,2.273408603704762,11.26535318047619
1.708758389,1.2830062181666666,1.0988738657495238,0.43823513275238096,10.847904705714285
1.713680774,0.9708523224999999,1.0042334372780952,-1.3773233005809524,10.545754746666669
1.718603007,0.6619103678809525,0.8794023866552382,-3.1387356943904763,10.36350607142857
1.723525403,0.3585648465952381,0.7353927241480952,-4.810447933914285,10.310006100952382
1.728447636,0.0704475173571429,0.5702021012433333,-6.36637829867619,10.389368177619048
1.733370019,-0.19813462230952375,0.37544629442428573,-7.784264987247618,10.593700397619049
1.738292248,-0.44688647835714285,0.13882081037666671,-9.05026264677143,10.914599322380953
1.743214707,-0.6807201433095237,-0.1419255247185714,-10.155683349866667,11.335938496380953
1.748137094,-0.8957977138333333,-0.45816791300428567,-11.102623476771429,11.84337602095238
1.753059309,-1.0917240451666665,-0.7979666359566666,-11.892420850914286,12.408924320714286
1.757981691,-1.2687490908333332,-1.1464971555280952,-12.533867268095237,12.972164716714287
1.762903919,-1.4246415140714286,-1.4956273886709524,-13.045074530761905,13.47250964904762
1.767826302,-1.563294985404762,-1.8416191136709525,-13.446156501333334,13.88894219409524
1.772748534,-1.6771254581238093,-2.178821923813809,-13.760787781857143,14.232565005428572
1.777670932,-1.7688785520714283,-2.5015271188614285,-14.00001979985714,14.508193916142856
1.782593165,-1.8461336925142855,-2.8038611720042854,-14.165695280857143,14.715608639761905
1.787515547,-1.9130113095428571,-3.081621751480476,-14.265065329047621,14.859609083333334
1.792437794,-1.9725215973285715,-3.336260647585238,-14.301920163809525,14.942227426666667
1.797360177,-2.018626976495238,-3.572691638870952,-14.274190448095236,14.959892192380952
1.80228241,-2.0335549796666665,-3.7928183021428574,-14.184558005238097,14.914234930476193
1.807204874,-2.006409596742857,-3.9852736903809527,-14.035324732380952,14.804565967142857
1.812127261,-1.9496402654380949,-4.138875211904762,-13.825674874285715,14.628900057619049
1.817049491,-1.8733455027142856,-4.2465619699523804,-13.561574390952382,14.39123247047619
1.821971869,-1.7722048801523809,-4.315470105047619,-13.262336776190475,14.109865248095238
1.826894102,-1.6470934017104761,-4.35461829952381,-12.944893291904762,13.802389217142858
1.831816509,-1.50497726382,-4.371064061190476,-12.618894349523808,13.479952576190474
1.836738741,-1.356599500467619,-4.368033397714286,-12.295595213809525,13.155183908095239
1.841661138,-1.208456125267619,-4.339599439,-11.985095386666666,12.837541894285716
1.846583371,-1.0612160754819047,-4.281760147571428,-11.702259562380952,12.540180896190478
1.851505753,-0.9164321698914286,-4.193902708190476,-11.451107523809522,12.266940077142857
1.856427986,-0.769555457267619,-4.07808503647619,-11.232786586666666,12.019897292857143
1.861350369,-0.6249060311342857,-3.93663527852381,-11.048439252380952,11.800375991428572
1.866272602,-0.4825935583533333,-3.7712404728095237,-10.898148536190476,11.609459626666668
1.871195061,-0.34942108605333333,-3.57951056107619,-10.778227851428571,11.444269852857142
1.876117448,-0.2210370862914285,-3.3660877545666663,-10.676933333809524,11.296540338095237
1.881039693,-0.08761332648190472,-3.1360503206271426,-10.589179947142858,11.164201963809523
1.885962076,0.053149099089523866,-2.890419360979524,-10.510679245238094,11.042825754761903
1.890884309,0.1966478093276191,-2.633784830412857,-10.43424579095238,10.924926772857143
1.895806648,0.33496185775619053,-2.364128030317619,-10.355696042761904,10.80658494095238
1.90072888,0.45843690413714294,-2.0812958959366665,-10.275433813333333,10.688384157857142
1.905651234,0.560367621784762,-1.7877192807461906,-10.194669088238093,10.571108830904762
1.910573467,0.6414313833799999,-1.4889028439366665,-10.10948703452381,10.452447077238096
1.915495849,0.7090210012895238,-1.1868872726033333,-10.01494276,10.327741479142858
1.920418131,0.7572981906276192,-0.8861874141747618,-9.912488392809523,10.199564712380953
1.925340514,0.7783871909895239,-0.5881776098890475,-9.80130440890476,10.068150765666665
1.930262732,0.7780207625661905,-0.29429080074619046,-9.676217715190475,9.928242490904761
1.935185191,0.7643149058233334,-0.0043269876509523224,-9.536025206666668,9.77922788042857
1.940107578,0.7391370481185715,0.2803292077300001,-9.387613478809524,9.627799721999999
1.945029822,0.6962206664757143,0.5590854969680953,-9.229919502619047,9.474809959666667
1.949952205,0.6421451429709524,0.8301307844442858,-9.061839626857143,9.319354338857144
1.954874438,0.585256332742381,1.0908171593014286,-8.877904438714285,9.155920588904761
1.959796826,0.5234033808995238,1.34202758773,-8.67367676395238,8.979466251571429
1.964719287,0.45963666582333335,1.5856520592538097,-8.444639252047619,8.788585263809525
1.969641506,0.3936502837138096,1.809526253539524,-8.157518523714284,8.551670257000001
1.974563583,0.29686847360428575,2.033256201758572,-7.848187810285715,8.319381058285714
1.979486042,0.13738085712809525,2.253155870344286,-7.473828724857142,8.079930871190475
1.984408275,-0.0698810912528571,2.450352972547619,-6.9605961784714285,7.822535418619047
1.989330735,-0.2828946664433333,2.614604444804762,-6.309275675376191,7.59709886595238
1.994253121,-0.49509642634809514,2.764783581190476,-5.549600013661904,7.457791537142857
1.999175356,-0.7210257546814285,2.914350430238095,-4.66719536837619,7.457380838095237
2.004097739,-0.9618460943957142,3.0710592951428572,-3.622046064947619,7.641105494047619
2.009019986,-1.208433532662381,3.2312457788571427,-2.3977576695666665,8.023787140047618
2.013942369,-1.440846001467143,3.384363679666667,-0.9966514709,8.60314710752381
2.018864525,-1.6331954296814284,3.5081489086190474,0.5568196855285715,9.354616649904761
2.023786985,-1.7776157171242857,3.5870866662380956,2.2186878264333334,10.234452897142857
2.028709217,-1.9103651511433333,3.6345491863809523,3.894162674433334,11.150708024333333
2.033631576,-2.0578941958285712,3.670264993428572,5.48981734357619,12.018606738619049
2.038553809,-2.177873621404762,3.687726474952381,7.0257610336238105,12.855822961000001
2.043476191,-2.881440672004762,3.7721919446190477,9.062818705766666,14.359648421333334
2.048398424,-4.139728942180953,3.9298519293809524,11.959643474338096,16.905853523190476
2.053320807,-4.2302763250333335,3.932829448190476,14.683132100480954,18.98500120685714
2.058243268,-4.045860425442858,4.055174929761905,16.094314481385716,19.808528513476194
2.063165496,-4.045509711714286,4.250617878809523,17.088561554719046,20.28634075509524
2.068087879,-4.165923426628572,4.309984445571429,18.32964224757619,21.009023722857144
2.073010111,-4.1399956644380955,4.180231872061905,19.66951855876667,21.896627426809523
2.077932566,-4.012597377914286,3.8902743486809523,21.04653349105238,22.840779400761907
2.082854722,-3.826839241342858,3.5546744380142856,22.28520910800476,23.71762319690476
2.087776857,-3.6102012893428577,3.2498093388714286,23.323304312571427,24.53844368614286
2.092699316,-3.4057439495333335,2.973707863204762,24.187213761380953,25.286833108333333
2.097621701,-3.2416292827190474,2.6814521096333332,24.894215265857138,25.91605360095238
2.102543948,-3.105644285780953,2.3469011726333333,25.39409900857143,26.35415838238095
2.10746633,-2.9726640924,1.9688303526809523,25.618580818571424,26.528348891904763
2.112388563,-2.813748464804762,1.5703801029666669,25.565062159999997,26.433598061428576
2.117310965,-2.6325318048190476,1.1964332432047617,25.22116011714286,26.055847569523806
2.122233198,-2.454105994657143,0.8999655359666666,24.587395759523808,25.396411241428577
2.127155577,-2.278439656752381,0.7070168213428571,23.713334719904758,24.50672210152381
2.132077964,-2.073550603371429,0.5915540158190475,22.716670604619047,23.507037194380956
2.137000423,-1.832163559704762,0.5145881161047619,21.704925605952383,22.50589513842857
2.141922578,-1.6271923710857144,0.4657765384857143,20.66261434604762,21.490481472238095
2.146844809,-0.8595233179428573,0.35420639591428577,19.035157947904764,19.765022975238097
2.151767197,0.43396019076666664,0.17323183296190484,16.459149218418094,16.981382031142857
2.156689429,0.540689525095238,0.15484502620000007,13.973543637846666,14.704857341
2.161611817,0.39340833957619054,0.02806297224761911,12.700366025418093,13.762018451285712
2.16653405,0.44969353072857143,-0.1538174564666666,11.735976950894285,13.266545429999999
2.171456432,0.6889638658714285,-0.15600620713333319,10.411551298941905,12.656050274190477
2.176378627,0.7919006715809525,0.0769257417095239,8.852067362037143,12.018863629428571
2.181301087,0.7753998125809523,0.45685217347142865,7.201054078418095,11.34624406847619
2.186223463,0.7078271472428571,0.8492241345190477,5.604591011322857,10.753677885142856
2.191145694,0.6081069076047619,1.1906172760428573,4.034513069894286,10.255108641809525
2.196068077,0.5053134297666667,1.4987025132809524,2.462515381799048,9.824214007047619
2.200990295,0.41432057176190473,1.8125294261857146,0.8888041227514287,9.472502281333334
2.205912755,0.341166000252381,2.1440128470428568,-0.6198243591533332,9.192000508476191
2.210834891,0.2722517627761905,2.471285704995238,-2.0394855634390474,9.010566162285714
2.215757045,0.16941181037142858,2.7701440410428573,-3.3979543001057144,8.932390712285715
2.220679514,0.0335468145761905,3.0124262840428573,-4.677922562010476,8.969133148000001
2.225601899,-0.12283232739523807,3.179972953661905,-5.8481652348676185,9.13619206942857
2.230524146,-0.29210780987142854,3.2736399541904766,-6.894668483343809,9.407128107428571
2.235446528,-0.46653571087142853,3.3036183856190475,-7.82723351377238,9.740290392666667
2.240368761,-0.6397961384904762,3.2806905734761904,-8.649870799391428,10.102574395761906
2.245291226,-0.7910398081571428,3.2139155268380954,-9.359878512343808,10.482129071
2.250213612,-0.9113222367285714,3.107624004238095,-9.967027676105713,10.882885592285714
2.255135843,-0.993546715057143,2.963419674357143,-10.479084729952381,11.290634091142858
2.260058303,-1.058998476147619,2.778740671357143,-10.90826412604762,11.658161797
2.264980458,-1.1508561436285714,2.54923891302381,-11.235670044095238,11.946902453857144
2.269902841,-1.2677907184333332,2.27357334602381,-11.45663674652381,12.136330565142858
2.274825059,-1.4487040532428572,1.9250070068809524,-11.576137179238096,12.20544807
2.279747442,-1.6334622906714285,1.5221735791666666,-11.603375570904761,12.172859219142858
2.284669923,-1.766236955957143,1.1066836785,-11.588156382047618,12.10788600047619
2.289592156,-1.8456689062857141,0.7063302922142858,-11.555148941952382,12.038861093761906
2.29451431,-1.9023746706476188,0.3339503875000001,-11.490451540142857,11.953121864714287
2.299436711,-1.9615471987619046,-0.01103480240476182,-11.39286023057143,11.844289649
2.304358944,-1.9957657258095236,-0.3419160460714285,-11.26706522947619,11.70890650947619
2.309281418,-1.9964476824285715,-0.6366628991190476,-11.12971137795238,11.553959157571429
2.314203879,-1.9866328750476192,-0.876478565690476,-11.004383858904763,11.411042237095238
2.319126266,-1.935995255238095,-1.0601830412428572,-10.877006712238094,11.263520862333333
2.324048497,-1.8596033085238095,-1.205775801690476,-10.721773328904764,11.089345498523809
2.328970956,-1.8041607880000003,-1.3207125167619047,-10.530622209619047,10.885851159476191
2.333893189,-1.7749736423333333,-1.4122435656857142,-10.340900920666668,10.68910949047619
2.338815367,-1.7680045991428575,-1.4748793301857142,-10.169785408904762,10.515480233238096
2.343737826,-1.7618115516666666,-1.5031546639,-10.016014825761905,10.36101637804762
2.348659978,-1.7377448366190476,-1.4897652836952382,-9.887386549142857,10.231407616666667
2.353582361,-1.7142112681476194,-1.4297098560952382,-9.774169604142859,10.119305897190477
2.358504593,-1.6843205038190479,-1.3320246183571427,-9.668453534380953,10.014282016904762
2.363427052,-1.6391381707047619,-1.2014407133095237,-9.566047077904763,9.909411722809525
2.368349208,-1.586778788390476,-1.0343533343571427,-9.47544856295238,9.812795990285714
2.373271643,-1.5296389773095238,-0.8384139524523808,-9.396238735714286,9.723615420428573
2.378194104,-1.4633917397285714,-0.6171648545476189,-9.322486377857143,9.634996150238095
2.383116337,-1.3973431175904762,-0.3832959490714285,-9.253900868523809,9.550200672571428
2.388038797,-1.3048431632095239,-0.14782271364285704,-9.205982276333334,9.484626679285714
2.392960952,-1.2396066891380952,0.09989314554761915,-9.146580809571427,9.410440711
2.397883412,-1.1793159253619048,0.3445458595952382,-9.070345946666666,9.319856788904762
2.402805812,-1.0951096351904763,0.5695890996428572,-8.988285291714286,9.219927303428571
2.407727968,-0.9893683929604764,0.783650473404762,-8.918556077095237,9.131674480238095
2.412650188,-0.8789626753747619,0.9674778055000001,-8.85942018595238,9.060944143
2.417572571,-0.7562160531128572,1.1164175683095239,-8.742377576190476,8.935750429809522
2.422495032,-0.5889743378747619,1.2244451428619048,-8.615735644285715,8.810123838761905
2.427417198,-0.48538024193190477,1.3297366201190477,-8.502544176,8.697163265095238
2.432339429,-0.40947914442714284,1.4356503783809527,-8.38076982042857,8.576559465190476
2.437261812,-0.3484851437461905,1.5342631403047622,-8.199721586142857,8.401780061190477
2.442184287,-0.30134595325095237,1.6120371902809527,-7.954222656428571,8.167774479380952
2.44710652,-0.2498546671890476,1.674607713947619,-7.677737383619048,7.905186624
2.452028903,-0.21138147549380953,1.731731045761905,-7.388881081619047,7.639192703190477
2.456951355,-0.17873328534619048,1.7860349983809523,-7.095541579380952,7.379807892190475
2.461873511,-0.16573923720333333,1.841931944714286,-6.793068590619048,7.126873774238096
2.466795722,-0.16325685701761905,1.9010322774285715,-6.474581508380952,6.875414776714287
2.471718105,-0.16197518969380953,1.9598828553333334,-6.121645203642858,6.617368307047619
2.476640337,-0.17681733093666668,2.0188772393809526,-5.724994328014286,6.367223375857143
2.481562797,-0.22009875694619052,2.0735918566190477,-5.258426147490476,6.152951976619048
2.486484953,-0.2800824702271429,2.110358760380952,-4.680668539157144,6.014849403142857
2.491407335,-0.3625381847509524,2.1325679051428574,-3.9644551084904758,5.964089945571429
2.496329568,-0.42921251587000003,2.1302873292857143,-3.1170870952047616,6.048429023904761
2.501252028,-0.4950154206938096,2.1109373284761905,-2.143092340395238,6.272342912666667
2.506174179,-0.6056935641509524,2.0865614243333335,-1.0317893063476187,6.63827857052381
2.511096638,-0.7510032759999999,2.0341016649714283,0.2605417988904763,7.133062472761905
2.516019023,-0.8744769429666667,1.9429751882476192,1.7357990819380953,7.797453626190476
2.520941232,-0.9800979416571429,1.8194690935238096,3.3197322536047618,8.641387583666667
2.525863692,-1.1573799855142857,1.6984037096666666,4.980512910271429,9.535810721380951
2.530785852,-1.3188975119333333,1.573354850904762,6.613228362461905,10.401305179333335
2.535708235,-1.4739447505333334,1.4327248043809524,8.102814556652381,11.197579226857142
2.540630444,-1.6154407049761905,1.2653594236666668,9.427014846271428,11.96006321890476
2.545552827,-1.725863656804762,1.064259375095238,10.681209332890475,12.777814139857144
2.55047505,-1.8337908514857144,0.841451331904762,11.950186850271429,13.697167020428573
2.555397432,-1.9358537523238095,0.6040145207619049,13.304071479271428,14.74701052690476
2.560319894,-2.0101794657047622,0.34663728228571433,14.748760321557143,15.915155585476192
2.56524204,-2.0403149922714285,0.07989381533333335,16.214430350652382,17.128130822285716
2.570164271,-2.0533458505380953,-0.17539184509523803,17.637004751461905,18.32165962152381
2.57508673,-2.0574278036809526,-0.40775823099999997,18.97053389177143,19.468513613714283
2.580009182,-2.056035708819048,-0.6154386153333332,20.189473474904762,20.54561593190476
2.584931568,-2.041560854257143,-0.7981367572761904,21.255160694047618,21.519617123238092
2.589853799,-2.0215789988285713,-0.9428499447857142,22.133706750190477,22.351281127619046
2.594775934,-2.0017874752333333,-1.0507287092380952,22.81926282114286,23.012745474285715
2.599698393,-1.9743802406095239,-1.1260922771571429,23.31966490857143,23.498335010952378
2.604620768,-1.934251810895238,-1.162185756252381,23.626562707619048,23.795426294285715
2.609543001,-1.8614218604666666,-1.1627306108238094,23.72773279333333,23.887211304761905
2.614465155,-1.7763987695142855,-1.1131217529857143,23.589463278095234,23.743828096190473
2.619387614,-1.7118425767285714,-1.0069166067380952,23.17683079,23.334475368095237
2.624309999,-1.6478910049714286,-0.8410614629666666,22.515827904285715,22.683192712857142
2.629232232,-1.555050723690476,-0.6282375611095238,21.672489528523812,21.860749294095235
2.634154643,-1.4306690069333332,-0.3897429945857142,20.742496852857144,20.970627089809522
2.639076876,-1.2750477677999998,-0.13278918177619042,19.807968002666666,20.101886178238097
2.643999336,-1.1096868132333333,0.14730686665238105,18.872573953952383,19.270788054190476
2.648921717,-0.957071575347619,0.45915773236666674,17.84939880812381,18.412911555238097
2.653843948,-0.8194812858609524,0.7869971069380954,16.684245957314285,17.500987496904763
2.658766102,-0.6874358621847619,1.117619677795238,15.343052746647619,16.50742223261905
2.663688485,-0.5796201963180952,1.4469058217000001,13.81239266245714,15.451689097190476
2.668610727,-0.4940077175847619,1.7617535294619047,12.15803981607619,14.416239196666666
2.67353311,-0.40138343076095234,2.033074428795238,10.456326367695238,13.458268757238093
2.678455343,-0.3220087172038095,2.2451210009380955,8.751429486171428,12.597627034190477
2.683377816,-0.23604909820380954,2.399771382557143,7.056870207314286,11.850495946095238
2.688299972,-0.12697895324190475,2.5151069548809524,5.397422037790475,11.216926633714285
2.69322236,-0.0268662368609524,2.6035338584857146,3.79172000112381,10.668848765142858
2.698144821,0.040596286915238075,2.669236427414286,2.2329544082666666,10.20926182752381
2.703067283,0.08568962159666664,2.708454137904762,0.6987808968380954,9.815755451333334
2.707989521,0.11623290637285713,2.7116063778095243,-0.8076085393523807,9.507979756095239
2.712911903,0.12859505162523807,2.6775063760238096,-2.2698542984,9.290771939428572
2.717834136,0.13384624353,2.6061898499952383,-3.670464813638095,9.178891761333333
2.72275627,0.12154391012523807,2.497044513057143,-4.9884269603047615,9.172929702285714
2.727678653,0.07837304927285713,2.3461846064761906,-6.202292195066667,9.26688767942857
2.732600885,0.026810670468095224,2.149547134961905,-7.2785814174,9.446486603904763
2.737523249,-0.025479517955714306,1.9163316155809524,-8.213388241257142,9.701170641523808
2.742445482,-0.08591742432714287,1.6470991835333333,-9.025189742971428,10.029175062619046
2.747367941,-0.14287204517952384,1.3528146127238099,-9.7157282514,10.395075602857142
2.752290097,-0.20766737754142858,1.0374974587714287,-10.280980967,10.765654034190478
2.757212557,-0.27882985150428574,0.7101223192476193,-10.727069366190475,11.102087652999998
2.762134941,-0.36143394327571426,0.3673618925809525,-11.079980168857142,11.387805143952383
2.767057422,-0.4391488945233334,0.017128326390476307,-11.338318506714286,11.614039754142858
2.771979655,-0.5119506093757143,-0.3284495720857142,-11.510086627047619,11.77615933704762
2.776902037,-0.5911811336376191,-0.6526425274666666,-11.608061290761905,11.878178022190477
2.781824246,-0.6593720857804761,-0.9460920996095236,-11.646155584238095,11.931248777619047
2.7867464,-0.7227207523233333,-1.2133551033714285,-11.626812344333334,11.934415227619048
2.791668783,-0.8005576589614285,-1.4681340561809524,-11.562776565238096,11.894862868095238
2.796591015,-0.8631182797471427,-1.7231410109904761,-11.481600397904762,11.841769393333333
2.801513398,-0.8978698035661904,-1.9818000502285713,-11.379566010761904,11.77229598952381
2.806435631,-0.9096457085666666,-2.2358252824666667,-11.259412583714285,11.687001581904761
2.811358013,-0.9045018035952381,-2.4734154194666664,-11.118050439047618,11.579913668095239
2.816280251,-0.8758078040333334,-2.689123082014286,-10.961547397714286,11.455809652380953
2.821202711,-0.8305366131666667,-2.8759114649857143,-10.788201740999998,11.311590795238095
2.826125097,-0.77776670989,-3.029717604285714,-10.603514172095238,11.151930577142858
2.831047567,-0.7103256597304762,-3.1546906459428574,-10.414132981285714,10.982588663809523
2.8359698,-0.6511439957695238,-3.2556620722380956,-10.238416036238096,10.82404006047619
2.840892182,-0.5954964739019049,-3.335932266095238,-10.08157271447619,10.680760650476191
2.845814381,-0.5326113775019048,-3.3823503085238094,-9.933853285809525,10.540132228666668
2.850736535,-0.47848385178285724,-3.396474599809524,-9.80500189490476,10.413168846095239
2.855658918,-0.426846233492381,-3.372682122952381,-9.705522946238096,10.307340931809524
2.86058115,-0.3784266642542857,-3.318598264761905,-9.639493760904761,10.227107828666666
2.865503581,-0.3338185722495238,-3.235643693380952,-9.601102692857143,10.166476851380953
2.870425966,-0.29502738267809525,-3.125516034333333,-9.57681837547619,10.11299400304762
2.875348116,-0.26683428777809526,-2.9932548943428574,-9.554788453380954,10.058240225857142
2.880270653,-0.2537758581019048,-2.8496440819857143,-9.536328134238095,10.006674624333334
2.885192809,-0.2541273339161905,-2.6986333671761904,-9.522675514380953,9.960723225809526
2.890115196,-0.2615310014019048,-2.539498458352381,-9.510236195285714,9.915832822380953
2.895037658,-0.2731686677971429,-2.370149077457143,-9.501596905095237,9.873747568714286
2.899959891,-0.28573628727809525,-2.1880022642461903,-9.494453702809524,9.831603609666667
2.904882258,-0.3015962878114286,-1.993167269822381,-9.488942646000002,9.789186676
2.909804491,-0.3223437166590476,-1.7908980832271428,-9.485675357809523,9.748737371761905
2.914726626,-0.3476096700304762,-1.5879325171271428,-9.476883434285716,9.70518808395238
2.919649085,-0.37710524137333334,-1.3860486164080952,-9.459036236857141,9.655068861190475
2.92457147,-0.411494193687619,-1.1898117094033331,-9.432021050380952,9.599125674904762
2.929493703,-0.444679671102381,-1.0001060452128572,-9.39584323352381,9.537718809333333
2.934415857,-0.47256605150000003,-0.8134764802366666,-9.344505991380952,9.46437133704762
2.939338335,-0.4981396223133333,-0.6315202940461904,-9.266681217095238,9.367891554190477
2.944260797,-0.5261630025666667,-0.4558613385985714,-9.15777719595238,9.244528455571428
2.949183183,-0.5573733363857143,-0.2890182478366666,-9.014287608047619,9.091599466190477
2.954105356,-0.5917725733380953,-0.126796146265238,-8.840713637238096,8.91402814895238
2.959027816,-0.6287410003904762,0.03379428102047628,-8.641166437285714,8.717662770761905
2.963950049,-0.6644013836285715,0.19919018235380961,-8.412758645619046,8.501432665476191
2.968872417,-0.7013389084904762,0.3776416579728572,-8.138824054238095,8.257175630999999
2.97379465,-0.7439453346333333,0.5660503222585715,-7.804439079285714,7.986152157666667
2.978716823,-0.7940446691761904,0.7603668910776191,-7.388090638976189,7.705991475571428
2.983639206,-0.8535769084952382,0.9601642205300001,-6.8568568173571425,7.468316917
2.988561677,-0.9183342399714285,1.1520521242919048,-6.179289925738095,7.331532774333333
2.993483833,-0.9866729037857144,1.3314665001823809,-5.333993928880953,7.341672323904762
2.998406301,-1.0581372805619047,1.4970392626680953,-4.3088196515,7.522156036142857
3.003328534,-1.130677084104762,1.6481512145523811,-3.105068950166667,7.871519346142857
3.008250688,-1.2034480372666667,1.7774915438904764,-1.7230515874523806,8.38793948552381
3.013173153,-1.2946391843428573,1.8791165932952385,-0.1681448331666666,9.06263672452381
3.018095537,-1.4129202762904762,1.9435534490523811,1.5354510548333336,9.878197967095238
3.023017999,-1.5787297571904761,1.9703921149714285,3.322658204166667,10.781350399380951
3.027940218,-1.8214234680761905,1.9846104950238097,5.1491692695476186,11.742173932809525
3.0328626,-2.084548646414286,1.9474473034142856,6.953676797595238,12.700506186476192
3.037784833,-2.358024179842857,1.8503046836761905,8.592291951785715,13.539963693523811
3.042707206,-2.6515859478,1.6926804418190475,10.1205795215,14.345287637333332
3.047629362,-2.9187328133190475,1.4674596792761907,11.632171205738095,15.20330860404762
3.052551821,-3.1469584730904763,1.194751393847619,13.180441726309525,16.16544197904762
3.057474054,-3.3425692432380947,0.9233110014190478,14.859969167928572,17.310903632190474
3.062396208,-3.4895882435238095,0.6656778035619049,16.646900228357143,18.6049041132381
3.067318619,-3.5928531940952384,0.4230250410857144,18.424326471357144,19.936966432619048
3.072241081,-3.6752780050476197,0.19892028470476203,20.095414099547618,21.236234075809524
3.077163314,-3.744579053952381,-0.003688993199999882,21.616817310214287,22.47784568795238
3.082085778,-3.7916005280952385,-0.19488732516190466,22.962970722619048,23.6408646067619
3.087008165,-3.8139140945238097,-0.3784895120619047,24.114229429666665,24.684806424476193
3.091930396,-3.8155843813333337,-0.5435279398223808,25.05403291652381,25.56260405376191
3.096852773,-3.808521861,-0.6826356013938094,25.76738221333333,26.23845775238095
3.101775006,-3.809823671857143,-0.7898777428223809,26.232526143333335,26.680990927142858
3.106697398,-3.823747634761905,-0.8629324084414285,26.420854114285714,26.858051780476195
3.111619554,-3.838338829095238,-0.8983675968223809,26.30120667952381,26.737358117142858
3.116542008,-3.8281722975714287,-0.8898477429652379,25.8774841852381,26.32100155904762
3.121464241,-3.7761010100476193,-0.8206918795842856,25.163824989523807,25.62512323904762
3.126386623,-3.6747081051428574,-0.6868355887461903,24.22586872447619,24.721624690857144
3.131308813,-3.499920209142857,-0.5139812958033333,23.11191424833333,23.667352652380952
3.136231273,-3.3049062660000006,-0.27601168795571424,21.885830685809523,22.554896801095236
3.141153506,-3.0944667316190477,0.017780168139523895,20.692745855366667,21.54500334209524
3.146075874,-2.847671820952381,0.36043607666333344,19.478143413319046,20.598184773428574
3.150998336,-2.6072869073333336,0.7524527826633334,18.152234979509522,19.659173786285713
3.155920569,-2.387832627352381,1.1751451723776192,16.669316512795238,18.69837953914286
3.160842931,-2.1836318117761904,1.5726585619490474,14.950830930366667,17.632719404333333
3.165765164,-2.0123711937333333,1.9292306677109523,13.034711900033333,16.489443464
3.170687552,-1.8829019551619048,2.236988908139524,11.042437433890475,15.376457574523808
3.175609784,-1.7826724279095238,2.4876984304728573,9.056227928176192,14.374621059285714
3.180532177,-1.7024713356714285,2.6751697634728573,7.106070399128571,13.507276901190474
3.18545441,-1.652129337861905,2.806383002720476,5.204625373890476,12.770554598333334
3.190376782,-1.628164819290476,2.88905805243,3.3432443881761906,12.149194542619048
3.195299015,-1.6301003467190476,2.9213806703,1.5116791667476188,11.62826778309524
3.200221169,-1.6433404457190477,2.9003872887376194,-0.2862501427761904,11.187810002142857
3.205143634,-1.6453458298142858,2.8202699069661903,-2.0315362665857144,10.82683008547619
3.210066018,-1.6341389644809525,2.6823363348709526,-3.6871680584904762,10.572762882142857
3.21498848,-1.6181781462428573,2.49388224049,-5.214556040871429,10.453203328333334
3.219910732,-1.5993914377190475,2.2613975705852383,-6.603214382776191,10.465705239761906
3.224833114,-1.584001297052381,1.9844386168233334,-7.839047596109524,10.607114770238095
3.229755347,-1.5650456235761905,1.662136559204286,-8.918393889633332,10.855436184619046
3.234677802,-1.5428501424333332,1.297464034632857,-9.837436272538095,11.176961764523808
3.239600188,-1.5188664765285713,0.9042394319661905,-10.60027664572857,11.540269749142858
3.244522342,-1.4999352863380953,0.5012750102519048,-11.224579940999998,11.91625604004762
3.249444573,-1.494078284195238,0.0982115880614286,-11.731600057047618,12.279356700142857
3.254367032,-1.5034009047666668,-0.29297402484333335,-12.136761278952381,12.607532941095238
3.259289193,-1.5256428122238097,-0.6750709398909523,-12.45138147842857,12.882821535857143
3.264211653,-1.5600614774666668,-1.0420200780814286,-12.688332784095238,13.10451587495238
3.269134042,-1.5997355267952378,-1.3932693187957144,-12.856798126142857,13.272779027190476
3.274056198,-1.6362056192714285,-1.7262509392719048,-12.962848935238096,13.38911868
3.278978658,-1.6609241451428574,-2.0434433688433336,-13.008304731904762,13.451163316666666
3.283900895,-1.6735739026666667,-2.337652133843333,-12.99971871095238,13.46319904952381
3.288823277,-1.6713083755238094,-2.6050458023195238,-12.941565467619046,13.428656267142859
3.293745515,-1.659133281,-2.843748951033809,-12.838983717142858,13.351103935238095
3.298667898,-1.6342493238571427,-3.0493134215719047,-12.699586186666666,13.236448529999999
3.303590121,-1.6057904163333334,-3.2156267592,-12.538725216666668,13.098322395714288
3.308512504,-1.580517751761905,-3.3414638610000003,-12.366606848095238,12.946338092857141
3.313434689,-1.5555301847142857,-3.4292667139047617,-12.18360355904762,12.779384475238095
3.318356918,-1.5302665232857142,-3.481778621666667,-11.989618755238094,12.596954473333334
3.323279379,-1.5042939469047618,-3.5011977581904765,-11.78608303952381,12.399602982857143
3.328201773,-1.4822434242857143,-3.491123233571429,-11.580368631904761,12.195011450952382
3.333124006,-1.4613456668571427,-3.446933280904762,-11.38393184047619,11.992679493333334
3.338046465,-1.4404977616190475,-3.3700499024285713,-11.20775517904762,11.803520321428572
3.342968866,-1.4179813350476191,-3.2580079579047614,-11.05639530304762,11.631895763809522
3.347891097,-1.4012186697142857,-3.119905105728572,-10.919221923095238,11.47057075247619
3.352813479,-1.3913530054285714,-2.955219920252381,-10.788116636190475,11.312504970095238
3.357735698,-1.3829875786666666,-2.771526107352381,-10.659306026,11.15588124509524
3.362657852,-1.3718361456666668,-2.5726324382285712,-10.531394867190476,10.998738990571429
3.367580297,-1.3573630025714285,-2.3572880148714286,-10.406802494904762,10.844404615047617
3.372502682,-1.347202476952381,-2.1290890608238096,-10.287728626904762,10.696317609857143
3.37742492,-1.3402774787619047,-1.8889623942523808,-10.173955417333335,10.554654435666667
3.382347302,-1.3405306225238096,-1.6409752544904759,-10.062992594952382,10.417552317761904
3.387269535,-1.3483675320476192,-1.3894651112523808,-9.952964237380954,10.284594903809525
3.392191941,-1.364283675190476,-1.136077160538095,-9.850958733095236,10.162337357857142
3.397114174,-1.3835620993333333,-0.886703111490476,-9.753591400809524,10.046624925095237
3.402036566,-1.4027887185238097,-0.6430574491095238,-9.652543794047618,9.928501376380954
3.406959028,-1.4170934756666667,-0.4069900632047618,-9.542727924142858,9.803790172476191
3.411881261,-1.431599758952381,-0.1760302958238094,-9.42501944557143,9.67478664752381
3.41680361,-1.4541937056666665,0.05114474689047625,-9.304205984904762,9.54797806047619
3.421725843,-1.4872571287619047,0.276284086652381,-9.185259319190477,9.428432772285715
3.426648249,-1.5319437073333333,0.4977041817476191,-9.064174243,9.313576534666666
3.431570405,-1.5790879500476191,0.7108336567476191,-8.929303214476189,9.190748815857143
3.436492864,-1.6243212848571429,0.9055984184619048,-8.771613643333334,9.050603975142858
3.441415097,-1.6667758113809525,1.0840065587,-8.587614876857142,8.890289472619047
3.44633747,-1.708559144190476,1.2443750864142857,-8.37755814047619,8.711495997714286
3.451259703,-1.751133146809524,1.395043613809524,-8.152598744285715,8.527394797095237
3.456182086,-1.7952561492380954,1.5385324254285717,-7.913149197809524,8.341731078142857
3.461104328,-1.8386645715238095,1.6780511907190478,-7.639148587190476,8.139195349857143
3.46602671,-1.8835953815714288,1.811028043452381,-7.303845927761904,7.9051105963333335
3.470949172,-1.9347103835238093,1.9368849028095236,-6.87810389337619,7.656132001571429
3.475871405,-1.9922737621904762,2.061982523857143,-6.334228744090477,7.45102636204762
3.480793787,-2.052309376952381,2.186339758714286,-5.661223935233333,7.340880904190476
3.48571602,-2.1101687069047617,2.311871664904762,-4.8690576113285715,7.339879866714286
3.490638418,-2.1716111331904764,2.4346634660952384,-3.963666281757143,7.446589826857142
3.49556065,-2.2415896541904763,2.5490961302380954,-2.9391349627095233,7.663183770904761
3.500483023,-2.3261708476666665,2.6569866112857143,-1.7939256049952383,7.998319527476191
3.505405256,-2.4295415198095234,2.7574813309523813,-0.5157580165190476,8.472728018571429
3.510327638,-2.5482675121904763,2.8353596585714285,0.924284115957143,9.11585400247619
3.515249861,-2.6585654077619045,2.869207092714286,2.5461905326238097,9.939567757428572
3.520172321,-2.740472555190476,2.853585283,4.3092276691,10.902185638761905
3.525094477,-2.7973786535714287,2.7912155659761906,6.097515921957143,11.893131372190476
3.530016918,-2.8535745484761903,2.6823557558857143,7.8109394691,12.832968362666666
3.534939303,-2.9050232115238095,2.5228001787904764,9.460273877242857,13.755059715761904
3.539861536,-2.9401837757619047,2.3259834732666667,11.113127593242856,14.737449872666664
3.544783903,-2.9430622940952382,2.1044883330761905,12.83958711914762,15.853551766619045
3.549706136,-2.913139769047619,1.8582711390285713,14.665806382480953,17.126960430095238
3.554628534,-2.8505535267999997,1.6056338548857143,16.55056512729048,18.502702882047622
3.559550995,-2.7720184780761903,1.372827853457143,18.44199779867143,19.923070360047618
3.564473169,-2.704913863138095,1.182651661695238,20.288016737385714,21.360247665238095
3.569395629,-2.6617182919,1.0419689516047619,22.030123731528573,22.797935449952384
3.574317861,-2.635079767042857,0.9281254254333333,23.62102113390476,24.19699523595238
3.57924025,-2.6129411487571423,0.8178888999095238,25.012184415190475,25.473994817809523
3.584162483,-2.6043580571857143,0.7122180958142857,26.162421203428575,26.550960363190477
3.589084637,-2.6083693929952383,0.6247617672904763,27.059113774761904,27.395866610000002
3.594007009,-2.606469015280952,0.5665981584809524,27.695100557142858,27.994520150476195
3.598929471,-2.5825006365666665,0.5489897883857143,28.056636810000004,28.333203110952383
3.603851704,-2.534548824709524,0.5762539292904763,28.150487263809527,28.420729377619047
3.608774062,-2.458757443090476,0.6589139345285715,27.98348372285714,28.270413562857147
3.613696295,-2.365222212804762,0.8063024154809524,27.54334331666667,27.879198998571425
3.618618673,-2.274000607804762,1.0307515051,26.809728486190476,27.237735584761904
3.623540905,-2.2008787989952383,1.3245597496238095,25.82102796023809,26.389719700476192
3.628463288,-2.1506038932809526,1.676318787409524,24.693211464666668,25.45872088471429
3.633385512,-2.098642755138095,2.0673685003095237,23.518886679857143,24.53712452090476
3.638307894,-2.050234655566667,2.492786826166667,22.294172883047615,23.61732849595238
3.643230127,-2.018738369138095,2.9331076358333332,20.951426984319045,22.637171280285717
3.648152524,-2.0111845192333333,3.367781535547619,19.424468501699998,21.53568555019048
3.653074757,-2.0304997562809524,3.7841698655476197,17.699244620033333,20.294422664
3.657997216,-2.074984851290476,4.159350950119047,15.81256858112857,18.98390927790476
3.662919608,-2.133554086728571,4.471117994642857,13.805869768271428,17.690851147047617
3.667841839,-2.194963324571429,4.706493274071429,11.7091750037,16.479298977238095
3.672764298,-2.2749749024285713,4.8424893220190475,9.588904138461904,15.354372115809523
3.677686415,-2.3538896639523808,4.902900133809524,7.47245555465238,14.331795549619047
3.682608798,-2.4319297642380953,4.914099085904762,5.394851442271428,13.42519155342857
3.68753103,-2.512981761,4.880112514628571,3.3933608036999994,12.659648812476192
3.692453408,-2.592836612666667,4.788769463704762,1.4860208898904759,12.05705361152381
3.697375641,-2.672611367047619,4.6329964143952385,-0.3076542148714287,11.62494194295238
3.702298023,-2.7586445069523813,4.408009645490476,-1.9687858463,11.36438986295238
3.707220228,-2.847807129142857,4.110088742919047,-3.493204359157143,11.248384723904762
3.712142611,-2.946665076904762,3.7330388313000005,-4.886213817252381,11.233051075809524
3.717065091,-3.045164023047619,3.2843787868714287,-6.162909023442857,11.289911529142858
3.721987324,-3.1427686383809523,2.7741175463952383,-7.316393731538096,11.409355068666667
3.726909707,-3.2406999666666665,2.22351197682381,-8.34018461320476,11.582706920571429
3.731832168,-3.325621587809524,1.6546144116333334,-9.229152604300001,11.787018487285716
3.736754401,-3.3994833116666663,1.086400131347619,-9.982639759966666,12.015439536809524
3.741676555,-3.4684577498571425,0.5332180516809525,-10.622876824585713,12.257939144142856
3.746598928,-3.535833512,0.004189386252381052,-11.162639567285714,12.512551908380953
3.75152116,-3.609661369095238,-0.49073008412857133,-11.612412657523809,12.770200560857141
3.756443553,-3.6931698947142855,-0.9442918896999999,-11.983531997761904,13.025406327999999
3.761365786,-3.7818993216666663,-1.3503439341285712,-12.265703860285715,13.251434031238094
3.766288168,-3.866481417761905,-1.7164064503666667,-12.448811349809525,13.415030384476191
3.771210396,-3.933087700952381,-2.0535117813190475,-12.527361733809522,13.490521085238093
3.776132856,-3.955904358952381,-2.3365246823666665,-12.53846214,13.506304716666667
3.781055242,-3.9569154580952386,-2.567116728842857,-12.489291645714285,13.466323640952382
3.785977454,-3.9364468370952377,-2.7502199667,-12.394914491428572,13.379416659999999
3.790899914,-3.8879417011428576,-2.8907365855666662,-12.259579159333333,13.245295743809525
3.7958223,-3.823380515761905,-2.9866801103095235,-12.08178193252381,13.06421479
3.800744511,-3.7531308560952383,-3.035464349238095,-11.868232363904761,12.844391423333331
3.805666665,-3.6803095795714293,-3.0402730135714284,-11.624406315333333,12.591614364428573
3.810589043,-3.602781715904762,-3.0007704439523812,-11.362086932238096,12.315353592857141
3.815511275,-3.5207798140952384,-2.919653637052381,-11.100876036619049,12.033264005666666
3.820433648,-3.4455665407142857,-2.796858591690476,-10.849231538809523,11.755704595714285
3.825355881,-3.378107354809524,-2.6325629225666667,-10.61226599595238,11.487573146238097
3.830278263,-3.315646069428572,-2.436929501227143,-10.395572163238095,11.235505099714285
3.835200515,-3.2608296871904763,-2.223653593222381,-10.203107516190475,11.007781748380953
3.840122898,-3.214075678904762,-1.9966115028795237,-10.037573224142855,10.807755218619047
3.845045359,-3.1752931049999997,-1.7572118426890475,-9.893079031190476,10.631324047904762
3.849967831,-3.144803876,-1.5047861323557141,-9.760113761428572,10.47031561252381
3.854890064,-3.1257006781428576,-1.2446990396414286,-9.633579208619048,10.322796101428573
3.859812446,-3.1106631528571427,-0.976367421117619,-9.518176850714285,10.190496958809524
3.864734674,-3.1005555902380952,-0.7081221328319047,-9.419532367,10.07997799947619
3.869657057,-3.1012184960476192,-0.43914728368904765,-9.333870342714286,9.990063623619047
3.874579304,-3.1109653540952382,-0.16801371326047615,-9.255593209095238,9.915176367285715
3.879501457,-3.1255788349047617,0.10218423454904764,-9.186006227952381,9.854695572619047
3.884423874,-3.145220359190476,0.3683872293109524,-9.125775155619047,9.80933913738095
3.889346336,-3.1765141714285714,0.6265242737871428,-9.07222561604762,9.778119677380952
3.894268582,-3.2172149363333333,0.8754219397871429,-9.028424762523809,9.762602386904762
3.899190965,-3.259599027238096,1.1118080856919048,-8.996559233857143,9.762024140238097
3.904113198,-3.305164643761905,1.334450706072857,-8.974089713285714,9.774601528809523
3.909035595,-3.3578921613809523,1.5471339864061906,-8.960046314047618,9.799817844857143
3.913957828,-3.417439585714286,1.7472436952633332,-8.952596664428572,9.834059076428572
3.918880288,-3.4758771034285716,1.9351699366014286,-8.94153790247619,9.865049774095239
3.923802674,-3.530975148904762,2.1066349843823806,-8.911177953095239,9.87834179147619
3.928724905,-3.5825562023809527,2.2581386083538093,-8.85122415,9.865183525761905
3.933647288,-3.6248714924761907,2.38850379982381,-8.754994392428571,9.816396125238096
3.938569444,-3.6563385896190477,2.5008054687714285,-8.62864171895238,9.737234693523808
3.943491673,-3.679764679619048,2.6027037018571426,-8.475783756809525,9.633869009428572
3.948414066,-3.7011184352857147,2.697230515,-8.301623934809523,9.515795514904761
3.953336528,-3.7189364774761904,2.786549318380952,-8.105429989952382,9.384000581380953
3.95825877,-3.7313129108095238,2.8701184136190476,-7.873959836476191,9.230564273285713
3.963181153,-3.7474146230952385,2.946163132047619,-7.578222138523809,9.04605174609524
3.968103386,-3.768323421571429,3.0105769407142855,-7.180773373161904,8.832081837952382
3.97302585,-3.783847275333333,3.0565206096190476,-6.652730386876191,8.630351641095238
3.977948237,-3.782926468714286,3.081081855857143,-5.97698256092381,8.504460923238096
3.982870468,-3.755166133333333,3.0853205181428573,-5.130096970590476,8.502574404
3.987792869,-3.7150287969523808,3.066523801714286,-4.1018694824476185,8.655928845904763
3.992715102,-3.6827064582857143,3.022232611952381,-2.8940358744,8.974892377333333
3.997637256,-3.6652156966666674,2.948999995238095,-1.530023746685714,9.442755360666668
4.002559653,-3.6598321256666666,2.8423615636666666,-0.03613253025714277,10.028666355428571
4.007482114,-3.6651682627142854,2.6929663727780953,1.5624877029333333,10.709146265904762
4.012404333,-3.6850044614285715,2.495282473587619,3.2298922408380952,11.457274269238095
4.017326716,-3.7240610804285716,2.2640576698733335,4.918054363361906,12.237732637333332
4.022248948,-3.794276328333333,2.023757616206667,6.566115661504762,13.008226906380953
4.027171427,-3.882743801380952,1.786760233206667,8.141541400028572,13.752812651809522
4.032093814,-3.962717272,1.5479109452542859,9.670124222647619,14.508752521285714
4.037015967,-4.0161250432380955,1.3064763711114287,11.234988994266667,15.36357712309524
4.041938427,-4.0326298077619045,1.0404035642542857,12.911353529457145,16.385494484238095
4.04686066,-4.014215855333333,0.7418683762066667,14.690956034314283,17.55764694666667
4.051783042,-3.9643776643809523,0.42844089387333334,16.525135912695237,18.818818346190476
4.056705275,-3.897529568,0.12150880787333339,18.35997621045714,20.117472642238095
4.061627429,-3.8220523255238095,-0.16302147979333328,20.143259307980955,21.424917865238097
4.066549793,-3.743450760809524,-0.423229910507619,21.822153328314283,22.719348288857145
4.071472254,-3.66648885747619,-0.6633650012219048,23.345340331142854,23.978252136809523
4.076394372,-3.6056545291428574,-0.8847149047457143,24.661863826285714,25.143310891904758
4.081316832,-3.581339626047619,-1.088956004555238,25.726100739571432,26.13170616276191
4.086239064,-3.5999097199047623,-1.269948951298095,26.500422431904763,26.873929173333334
4.091161519,-3.6358475740952385,-1.4229386595266664,26.97393163,27.33510683
4.096083675,-3.659400196238095,-1.546919181674286,27.159297942380952,27.51598577142857
4.101006057,-3.6659879513333338,-1.6392680893314286,27.09377152523809,27.45017363380952
4.105928281,-3.659769097904762,-1.689378993564762,26.815708704761906,27.175067640476193
4.110850741,-3.6412631953809527,-1.6715235646952382,26.34146890095238,26.706718673333334
4.115773127,-3.6096450884761904,-1.564218710647619,25.68276019238095,26.059823065714287
4.120695353,-3.5601128112380955,-1.371534565409524,24.86955638066667,25.27166888142857
4.125617507,-3.479497188571429,-1.114829417504762,23.956752708095237,24.41096549980952
4.130539933,-3.373984194904762,-0.8145005099809524,22.980978419809524,23.534712491190476
4.135462088,-3.2744146130952383,-0.47513489140952375,21.926377795095238,22.652680659190473
4.140384442,-3.1969628390476195,-0.10470132245714281,20.714353500980952,21.70241566338095
4.145306904,-3.157340645761905,0.30506663449523813,19.272680256409526,20.629406931619048
4.150229365,-3.1528430836190475,0.7501571100666667,17.612138517647615,19.461189184619045
4.155151589,-3.158699086666667,1.2029035808285715,15.78846163617143,18.256525673809524
4.160073972,-3.1568251393333333,1.639515619209524,13.858873386361907,17.075706471285713
4.164996127,-3.1313599063809527,2.041385563352381,11.873680769457142,15.951278583190478
4.169918591,-3.070227665538095,2.405450648495238,9.876479122314285,14.903354635095237
4.174840824,-2.9787425270714287,2.742844976828571,7.894548843742856,13.945249587
4.179763206,-2.871036715404762,3.0635608754000003,5.944774646600001,13.099832613190475
4.184685439,-2.770259952214286,3.372512962876191,4.049254618028572,12.396366150333332
4.189607822,-2.689960909690476,3.6627519592380957,2.2254868651714284,11.856685048428572
4.194529969,-2.6304994409761906,3.9305962417047615,0.4857316889809524,11.473441275095238
4.199452428,-2.590821866452381,4.169645767185715,-1.1570720024476189,11.210161273190476
4.204374894,-2.5645833909285716,4.3733522956523805,-2.695984185304762,11.028899850333334
4.20929705,-2.5462529190714287,4.532409296219048,-4.128429439114285,10.909384008904762
4.2142193,-2.5331344022142854,4.628750199428572,-5.449013418161904,10.86222196652381
4.219141683,-2.527754691309524,4.645315011428572,-6.64094691387619,10.909275641285713
4.224063916,-2.531217687119048,4.573461626328571,-7.693001046447618,11.058906804142858
4.228986312,-2.539882976309524,4.4093066703814285,-8.611210599114285,11.297247494333332
4.233908774,-2.551779348166667,4.167944430743334,-9.402241596542858,11.584304831047618
4.238831007,-2.564311355309524,3.8698335709814287,-10.082121511828571,11.878774909714284
4.243753389,-2.5905916449285713,3.5350353371719043,-10.659591641047617,12.163249908380951
4.248675622,-2.6267384560238094,3.1824901382671427,-11.13506353504762,12.420850315857143
4.253597776,-2.6716994089761905,2.8195991397433335,-11.502745832952382,12.630332331904762
4.258520217,-2.740521690690476,2.447352959457619,-11.763447239571429,12.784124892238097
4.263442372,-2.8357542568809526,2.0692531092195243,-11.921360652142857,12.871038942380954
4.268364841,-2.961527402880953,1.6954513556004762,-11.991717475333333,12.895601556190476
4.273287226,-3.1216697933904762,1.3356521748861905,-11.99076089457143,12.86670811761905
4.278209458,-3.3017718933809523,0.994931890362381,-11.932512465380952,12.790995068047618
4.28313187,-3.474086755809524,0.6744458954576191,-11.814971560952381,12.660827251142857
4.288054103,-3.6073197013333336,0.3735513285052381,-11.639603751380953,12.473279883952381
4.292976562,-3.690013227095238,0.09111747522904763,-11.40881942604762,12.227416230761904
4.297898949,-3.7288716975714284,-0.1673139509090476,-11.129627727761905,11.929123440571427
4.30282118,-3.738641648142857,-0.39101971451857137,-10.824407873190475,11.60515053552381
4.307743562,-3.7319937434285713,-0.5717428619019047,-10.51995640752381,11.286115762238094
4.312666014,-3.718117066857143,-0.7068285283685714,-10.23398962495238,10.991491615761905
4.317587939,-3.694070486857142,-0.7946803365495237,-9.964049316809524,10.716905503190477
4.322510298,-3.6510027250476194,-0.8339900993399999,-9.705597650428572,10.45458059742857
4.327432759,-3.593876486809524,-0.8218464335257142,-9.45687225904762,10.202616116476191
4.33235493,-3.5367131007142856,-0.7554034323880953,-9.21552569552381,9.96106046252381
4.33727739,-3.4864791008095244,-0.6440136676547619,-8.992569378619047,9.740049302857143
4.342199622,-3.4414544787619046,-0.4945389503214285,-8.79507178352381,9.545907407619048
4.347122034,-3.396947520190476,-0.3172769052738095,-8.624331156666667,9.378918337666667
4.352044267,-3.360292230380953,-0.11991090041666663,-8.478654180428572,9.24110221
4.356966649,-3.3349964164761907,0.0987126752976191,-8.361766134238096,9.138094624238095
4.361889125,-3.3123103210000004,0.3369848597261905,-8.27667027447619,9.066897457761904
4.366811358,-3.290569225952381,0.5859230909642857,-8.221782457238096,9.024052419666665
4.371733817,-3.270539079428571,0.8386268484880953,-8.193202245761906,9.006872233
4.376655949,-3.249653645952381,1.0898685210595238,-8.188980147904761,9.013808071571429
4.381578332,-3.2272020180952383,1.3325881429166668,-8.205192929190476,9.040936428285715
4.386500473,-3.208122014952381,1.5605877108690476,-8.237403143,9.085925389952381
4.391422701,-3.1945177827142857,1.773461760107143,-8.278449376380953,9.14314103095238
4.396345163,-3.190049205428571,1.969146332145238,-8.324588866380953,9.208241895095238
4.401267553,-3.198669013428572,2.1432897628547622,-8.380587804809524,9.286233315285713
4.406189785,-3.2172311146190475,2.298941338607143,-8.449846335714286,9.379530605095239
4.411112183,-3.238146157428571,2.4367934762285715,-8.526705878047618,9.479792492666668
4.416034416,-3.2549820172857147,2.5562920966476192,-8.599447295714286,9.572925068190475
4.420956798,-3.270098402333334,2.655746522257143,-8.66036612642857,9.652087664761904
4.425879269,-3.2844377812380956,2.736206139714286,-8.707150232190477,9.715313256666667
4.430801502,-3.294553643142857,2.796046376142857,-8.736689930809524,9.757860602809524
4.435723884,-3.2975450697142854,2.8339046182380954,-8.73999177838095,9.76993942090476
4.440646332,-3.295615786571428,2.8537630863809524,-8.70648147942857,9.743164302095238
4.445568488,-3.289246070904762,2.8537436552857143,-8.630200862857142,9.672146875809524
4.450490709,-3.277012552476191,2.8336601313809524,-8.509423028809524,9.554790825095239
4.455413091,-3.253872508047619,2.796195790857143,-8.348514874761904,9.394238098
4.460335324,-3.2183604580952383,2.742481072714286,-8.15312362852381,9.195849841666668
4.465257707,-3.180379277190476,2.677774889095238,-7.913444746095238,8.958436230761905
4.470180168,-3.149746088761905,2.603250849761905,-7.615189245761904,8.68182811657143
4.475102338,-3.1243150915238096,2.516847758,-7.237086108761905,8.366051715095239
4.480024798,-3.09014875547619,2.410739563714286,-6.748467593,8.032443054333333
4.48494703,-3.035976898095238,2.2819168482190477,-6.112173591380953,7.765312069857143
4.489869408,-2.9717699913809525,2.1313937561714287,-5.3073262600952384,7.644808263619048
4.494791641,-2.913455520333333,1.960676232952381,-4.326743568666667,7.699361130761905
4.499714023,-2.869955619142857,1.7729552303047622,-3.176529691142857,7.929355113142857
4.504636242,-2.838820377952381,1.5666004646857146,-1.8678051514761909,8.322206552190476
4.509558702,-2.810201996809524,1.3264980316857145,-0.425519522761905,8.849211348857143
4.514480867,-2.7815122376666666,1.0455565566857143,1.1101706939047618,9.473303206476189
4.519403249,-2.756116901047619,0.7135667347809524,2.714804888047619,10.184866718857144
4.524325726,-2.7223452385714286,0.33676501697142863,4.360565878238095,10.97084922247619
4.529247959,-2.691807905761905,-0.04246945598095232,5.99748440047619,11.781303106333334
4.53417036,-2.6971716652857145,-0.389105410695238,7.590492941523809,12.583622292571429
4.539092516,-2.7353421959523807,-0.7083367505523809,9.151263589380951,13.404069226999999
4.544014746,-2.7589231444761904,-1.040402355552381,10.751709495904763,14.326300062142856
4.548937129,-2.7293969108095237,-1.4146293571238093,12.434598321857143,15.398362640333335
4.553859591,-2.6553893372380952,-1.814539687885714,14.199202004761904,16.621580038619047
4.558781824,-2.561180526238095,-2.2040249278380952,16.00882499638095,17.944742681476193
4.563704201,-2.465461288095238,-2.5526070253142854,17.810438486333332,19.296602482142855
4.568626663,-2.3903226624761906,-2.851108465742857,19.537715560809524,20.62603948142857
4.573548819,-2.343028000380952,-3.108854185838095,21.13439112704762,21.905064971809526
4.57847105,-2.325117236047619,-3.3501532757904764,22.564109309142857,23.127896269
4.583393456,-2.344687087142857,-3.5856388919809525,23.79760958,24.277968798333333
4.588315689,-2.4007504212857143,-3.8143421382000002,24.805373624285714,25.278155664714284
4.593238072,-2.4747435591904763,-4.0272364672,25.567828133809527,26.056925576190473
4.598160304,-2.5480664116666665,-4.213372417742857,26.07838885047619,26.5897193147619
4.603082687,-2.60981826552381,-4.359737083904762,26.34360495095238,26.876635844285715
4.60800492,-2.6567014625714287,-4.447913220857143,26.381021863333338,26.930945205714288
4.612927302,-2.6931272233809525,-4.454260792,26.221514202380952,26.780902349523807
4.617849764,-2.7230280353809526,-4.365018691285714,25.898711431904758,26.459608963809522
4.622772206,-2.7456378936666663,-4.167582633209047,25.410443805714284,25.96466053
4.627694439,-2.7794532662380953,-3.865399816923334,24.749465307142856,25.29513204142857
4.632616822,-2.8176284177142854,-3.5028712997804754,23.942672230333333,24.49449426014286
4.637538968,-2.8240277994285714,-3.120451770399524,23.009556407285714,23.602796690333335
4.642461199,-2.794132652761905,-2.72490181459,21.937697410857144,22.637031217428575
4.647383581,-2.7635384628095236,-2.2894737174471427,20.652980353223807,21.57766406242857
4.652305814,-2.739144081190476,-1.8003567535423808,19.151384276842855,20.414925080142854
4.657228245,-2.769209748238095,-1.277421794494762,17.442542453461904,19.191852099
4.662150477,-2.817510607714286,-0.7612738857804763,15.581088647842856,17.953363064238097
4.667072937,-2.8451682272380956,-0.2866141249709523,13.702686687033333,16.70182659838095
4.671995079,-2.8272228496190475,0.13380917836238101,11.846626568176191,15.506045421190477
4.676917538,-2.740703558604762,0.5005702724100001,9.978937208414285,14.459196686809523
4.68184,-2.611138889643333,0.8377091296004762,8.122114240795238,13.569010278714286
4.686762376,-2.462151559495714,1.1672534581242857,6.305478609366666,12.806914522523808
4.691684607,-2.329655228100476,1.4879664672671429,4.536339546509524,12.154300691095237
4.69660699,-2.206559851957619,1.7909468448385713,2.8047647160333335,11.612358648714286
4.701529117,-2.089530900290952,2.0601068430290477,1.116188335557143,11.171917984428571
4.706451347,-1.9843920932433332,2.288262603552857,-0.5225535663476191,10.829334399190476
4.711373706,-1.9006447573861904,2.4621352674195243,-2.1081956092047616,10.576463434428572
4.716295939,-1.832509757005238,2.5709946006909528,-3.635517742538095,10.400975091571429
4.721218322,-1.767232663052857,2.608965313914762,-5.090021755871429,10.297711358238095
4.726140812,-1.7081151414814286,2.5764235528285715,-6.442423398252381,10.278112385857144
4.731063045,-1.6616784342909523,2.473274695114286,-7.664897269680952,10.365873543000001
4.735985428,-1.6295392805766666,2.3030872729238094,-8.731908739538094,10.566268076666667
4.740907646,-1.6184888973385714,2.0765400374,-9.622665346490477,10.868242258857142
4.745830106,-1.6355701352909524,1.809520606590476,-10.342550763871428,11.234398153666667
4.750752492,-1.6847185245290475,1.5178013118761906,-10.902464810523808,11.610616220095238
4.755674704,-1.7836740025290478,1.2147661094,-11.35047099747619,11.962854765238095
4.760597087,-1.8707490997671425,0.9060423417809524,-11.698267346952381,12.247571848285713
4.765519238,-1.953288907957619,0.5898996237809525,-11.957650071809523,12.463289708761906
4.770441467,-2.0521495748623813,0.26110995816190485,-12.201415607666666,12.669499974619049
4.775363846,-2.1637900934814285,-0.07894104569523802,-12.408858481666666,12.850883705142857
4.780286308,-2.2978750944480955,-0.4144727572666666,-12.505961782380954,12.947106318571427
4.785208545,-2.4429622888380953,-0.7349819980285714,-12.507577442857144,12.96565039714286
4.790130928,-2.5935676182714285,-1.0393722808857142,-12.444691431999999,12.932791650476194
4.79505339,-2.723656285333333,-1.3184213254571429,-12.327391035047619,12.855311938571427
4.799975622,-2.8391134795238093,-1.5716862748857143,-12.152814093904762,12.726535665714287
4.804897776,-2.9419726246666666,-1.797857745695238,-11.933586166619047,12.556869011809525
4.809820236,-3.0303579511904766,-2.0008080756952378,-11.684428215523809,12.358517837714286
4.81474259,-3.100642425666667,-2.176809272514286,-11.419083777333332,12.141344218619047
4.819664823,-3.1633062873333335,-2.325780272404762,-11.147756894761905,11.915584411428572
4.824587206,-3.224775234809524,-2.447684560438095,-10.876968020619048,11.68688713452381
4.829509362,-3.2797239053333334,-2.5416688464285717,-10.612723577809524,11.459520478761906
4.834431591,-3.3169513316190478,-2.6072817472857146,-10.35582297204762,11.23181270395238
4.839354042,-3.3308967181428577,-2.6433195045714286,-10.11341349304762,11.008770086952381
4.844276427,-3.3238953408571428,-2.651258076904762,-9.891104471428571,10.79622031404762
4.849198654,-3.2921364874761903,-2.633494218142857,-9.689214706714287,10.593066723380952
4.854121037,-3.2406810124761902,-2.5937716506666666,-9.506480353666667,10.399589361904763
4.85904327,-3.186647347047619,-2.533638267295238,-9.335799081666668,10.21432953657143
4.863965639,-3.136678922761905,-2.455459458490476,-9.17450305442857,10.037514819952381
4.868887871,-3.09429459347619,-2.3582008836,-9.024195217333334,9.871641729333334
4.873810331,-3.0540800208095233,-2.2355133554061903,-8.891246024,9.720177113952381
4.878732726,-3.0192155043333333,-2.0845550259919046,-8.781862032190476,9.589036687238096
4.883654957,-2.9931239287142857,-1.910702358072857,-8.700108028761903,9.483224745142858
4.88857734,-2.968985262380952,-1.7272103588680952,-8.63815552847619,9.394896192904762
4.893499583,-2.9364864599523806,-1.5409836957442857,-8.597460973857142,9.323564784857142
4.898421965,-2.8975416479047618,-1.3565957479061903,-8.58177430295238,9.273614580714286
4.903344227,-2.860312405142857,-1.1732218936538092,-8.587691806666665,9.244137960142858
4.90826661,-2.8293132555238096,-0.9900846612966665,-8.607481729476191,9.228811759285716
4.913188866,-2.798808688238095,-0.8075590918109522,-8.626159577238095,9.211968283809526
4.918111249,-2.7688051632857142,-0.6327064679823808,-8.634676433857143,9.186947935761903
4.923033482,-2.7406457265714286,-0.46521185022047606,-8.632069133666667,9.153743444190477
4.927955831,-2.722652821380952,-0.3039928493919047,-8.622757820952382,9.119685541904762
4.932878063,-2.715612434285714,-0.15187094503952372,-8.611647605952381,9.089743706904763
4.937800523,-2.717651719190476,-0.010491568772857063,-8.590135801428572,9.055569125619048
4.942722919,-2.7250779129523814,0.1176455201795239,-8.544465905142857,9.003772828666667
4.94764515,-2.7294503848095237,0.22575932846523816,-8.462855702380953,8.920675538333333
4.952567533,-2.727274803952381,0.31078527901761915,-8.339537370809524,8.799280704666668
4.957489694,-2.7174417972857143,0.37040837641761915,-8.171043350619048,8.635374513761905
4.962412153,-2.6986912659523807,0.41057904277904766,-7.960200570904762,8.431445140857143
4.967334366,-2.6784887881904758,0.43992218517428583,-7.703249011761906,8.188845642142857
4.972256749,-2.6609724022380954,0.46311170856000006,-7.391999931619047,7.909035516238095
4.977178986,-2.6431949706666664,0.477183946894762,-7.014988829723809,7.598357800523809
4.982101369,-2.625026350952381,0.47702275607095246,-6.563453235819047,7.288759738809524
4.987023602,-2.601255638285714,0.4606319470804763,-6.025226040961905,7.017983535190477
4.991945999,-2.5773580131428573,0.4324485184195239,-5.381802279342857,6.8290094252380955
4.996868231,-2.564716537809524,0.38946118596238105,-4.605905571152381,6.754842327428572
5.001790691,-2.572366254714286,0.32256932840523816,-3.6756141228190478,6.821758167761904
5.006713082,-2.6081883964285715,0.22556061191476195,-2.5939550783428573,7.034359896904762
5.011635313,-2.6751379796666663,0.09509761631952389,-1.373697637104762,7.389889458333333
5.016557696,-2.7655375969047618,-0.07272333968999992,-0.03539184567619052,7.882808189333334
5.02147994,-2.8512689897142858,-0.2838395315661904,1.422363833704762,8.517109646952381
5.026402322,-2.9195390826190475,-0.5262463454233333,2.9909534985619044,9.281554925238096
5.03132455,-2.9834411314761904,-0.7756407338709523,4.628108531704761,10.128342963476191
5.036246933,-3.0648591915714283,-0.9999584519852381,6.275051033895238,10.993300164714285
5.041169189,-3.1775919085238096,-1.1787521632995237,7.859602890752381,11.822238076047618
5.046091572,-3.311605618095238,-1.3204676444899999,9.344106704990477,12.602813218571427
5.051013805,-3.4388958556190476,-1.4590369739661904,10.767150251085715,13.397126718952379
5.055936188,-3.5370854252380957,-1.6271163601376188,12.192757955276189,14.280148878999999
5.06085842,-3.6040241888095235,-1.8274812088233334,13.647631153942857,15.279044927095237
5.065780865,-3.6467603330952376,-2.059597024984762,15.137096084133335,16.395774847238094
5.070703251,-3.667922139095238,-2.311187603327619,16.638446032990476,17.610098558761905
5.075625711,-3.666815706571428,-2.5652126396990473,18.109029011942855,18.884347504333334
5.080547935,-3.6464751901428576,-2.8088792062752383,19.50559991433333,20.174740727333333
5.085470089,-3.6087251389999997,-3.0316484539133333,20.793056284809524,21.416103549095237
5.090392476,-3.5659058093333327,-3.228029125937143,21.943344526047618,22.549402581
5.095314709,-3.515138620380953,-3.390135884385714,22.918232283190473,23.51510636604762
5.100237087,-3.4462032828619042,-3.519385789242857,23.677577247142857,24.265338649047617
5.105159548,-3.3464449019095235,-3.613856650666667,24.191696031904762,24.767862844285716
5.110081781,-3.205203428109524,-3.676626364523809,24.469000499523812,25.028889853809524
5.115004164,-3.027569799157143,-3.7069891749523807,24.532747269523806,25.070585304285714
5.119926396,-2.8331098499380953,-3.693713120238095,24.40316409238095,24.913814586666668
5.124848779,-2.655811221795238,-3.624368735904762,24.07337711047619,24.55567441047619
5.129771026,-2.5073837524142855,-3.5053536326190473,23.54581437857143,24.000564454285715
5.134693485,-2.3667967063666664,-3.3552555755714284,22.855277425714284,23.282219366190475
5.139615872,-2.2082930774619047,-3.197101428566666,22.06462269809524,22.462720928809524
5.144538094,-2.0209519777952383,-3.0514374306190475,21.23797677861905,21.605919414142857
5.149460248,-1.8243690757476192,-2.912092329647619,20.398385615952378,20.73886302042857
5.154382634,-1.6543292232714284,-2.7446508082666665,19.492827166238094,19.822689424333333
5.159305096,-1.5343227074142858,-2.5211318974095236,18.448179268047618,18.803914262714287
5.164227339,-1.4559914186047618,-2.2470586202190477,17.237252742285712,17.68037173447619
5.169149492,-1.3989100371285714,-1.9355363293619046,15.868759474761905,16.48836131528571
5.174071875,-1.3482767031285714,-1.6124698960761905,14.358835766761905,15.283747078095237
5.178994108,-1.3093411383190476,-1.3038488585047618,12.7481407,14.118610426285713
5.183916491,-1.2904795152714286,-1.0244364810285713,11.080158848428573,13.027120854714285
5.188838938,-1.2943884673666668,-0.7803339008190475,9.393597422952382,12.033897633238094
5.1937614,-1.3113581822238096,-0.5702634667285713,7.71849260052381,11.147079363285714
5.198683555,-1.3355702757952381,-0.39298118442380947,6.0812578672380955,10.37678973447619
5.203605771,-1.3706808459333333,-0.24071994568095226,4.493608203904762,9.740041253047618
5.208528154,-1.4234070863142858,-0.10349389343809515,2.9613886353333334,9.24565190447619
5.213450382,-1.4973048936857143,0.023352155608000084,1.480872792,8.881430222095238
5.218372764,-1.585740705352381,0.1414475337080001,0.045521284380952445,8.62459506352381
5.223294997,-1.6829476044285716,0.24321267390323817,-1.3401308946666666,8.457410936857142
5.22821738,-1.7810961802857144,0.31988386267466673,-2.6696979413333333,8.377932003047619
5.233139841,-1.8762397993333333,0.36229691005561915,-3.9296867718095236,8.38510728590476
5.238061997,-1.9672175135238095,0.3593905761984762,-5.107404616571428,8.486216165428571
5.242984242,-2.0557263749523806,0.3021794382413334,-6.202291850380952,8.679397336142856
5.247906701,-2.1418824707142856,0.191726344912762,-7.209630033761905,8.959379470809525
5.252828857,-2.216459614952381,0.03270438832228579,-8.12160362347619,9.317968466904762
5.257751284,-2.271709232190476,-0.17072066143961898,-8.935066335190477,9.743392167761906
5.262673745,-2.311624703047619,-0.40969604439199997,-9.643063521285715,10.217942014142857
5.267595901,-2.350745990238095,-0.6726056100586666,-10.24256184552381,10.715371393809525
5.272518375,-2.398054423857143,-0.9500281858205714,-10.742988132285713,11.191067860142857
5.277440531,-2.460227659857143,-1.2348827965824762,-11.139494214761905,11.606142714476189
5.282362894,-2.532211559238095,-1.519352463534857,-11.44232354847619,11.948599958190476
5.287285127,-2.6057120391904762,-1.7960487083919996,-11.663455440714285,12.220935936904763
5.2922075,-2.6769538493809524,-2.058928136792,-11.81343055904762,12.427981730285714
5.297129732,-2.745906370047619,-2.3060918582634287,-11.906190690428572,12.580049346904762
5.302052192,-2.8091300385238096,-2.543103762092,-11.951160385238095,12.683914577619047
5.306974584,-2.861333949190476,-2.771480802025333,-11.94547803047619,12.735679153809523
5.311896738,-2.901237805666667,-2.991334366411048,-11.891970816095238,12.736691305238097
5.316819197,-2.930016949047619,-3.196495037695238,-11.798721676666666,12.694155658095239
5.32174143,-2.947597231142857,-3.3847078553190477,-11.675504593666668,12.617472958571428
5.326663812,-2.953711850285714,-3.554760958466667,-11.530886286761906,12.515038667142857
5.331586274,-2.9486617474285715,-3.7021037737619045,-11.36638223542857,12.387930886190478
5.336508502,-2.936804464857143,-3.8217692091428566,-11.186627296857145,12.240315231904763
5.341430656,-2.9230475084761904,-3.9107514449523806,-10.993526821761904,12.07452298047619
5.346353057,-2.9112815515714283,-3.96787939752381,-10.78784788204762,11.891733938571427
5.35127529,-2.9003324053809525,-3.9899727844285713,-10.573636009285716,11.693905728619049
5.356197673,-2.894189970761905,-3.9778616882857145,-10.361028398714287,11.491167739571429
5.361120134,-2.896096638190476,-3.929920877761904,-10.155551456,11.288938681190476
5.36604229,-2.9097464991904762,-3.846545826857143,-9.962084043095238,11.09337036152381
5.37096475,-2.930114450809524,-3.7299815927142856,-9.78139504904762,10.90483392352381
5.375886982,-2.9559723989047617,-3.5830532539047617,-9.617588497047619,10.727342020714286
5.380809117,-2.9839373996190472,-3.411420211861904,-9.475059145666666,10.564772017428572
5.385731808,-3.006474449428571,-3.216871069952381,-9.347627911952381,10.40966622952381
5.39065404,-3.021255356857143,-3.00327763667619,-9.227480752,10.25491670752381
5.395576432,-3.0296567394285714,-2.776307493070476,-9.112412270761904,10.101090905095239
5.400498665,-3.0340026446666664,-2.541241295632381,-9.002775419142857,9.951294141571429
5.405420824,-3.0374782199047616,-2.3030776782180955,-8.900488989666666,9.809017846714287
5.410343206,-3.0349217823809527,-2.0648922583038094,-8.806544599047621,9.673492355095238
5.415265401,-3.0243061156666666,-1.8336044553371427,-8.718644232952382,9.542610528333332
5.420187784,-3.006377731047619,-1.6089675940895236,-8.634217375761905,9.415312221333334
5.425110254,-2.981617779952381,-1.3904471571228572,-8.550376596904762,9.289161613238095
5.430032716,-2.9553537822857145,-1.1754526740609523,-8.473927702190476,9.172238014571429
5.434954872,-2.926098744047619,-0.9655622885847618,-8.406844343428572,9.065956205619049
5.439877088,-2.889614548,-0.7670883326847618,-8.343936443333334,8.964813918428572
5.444799548,-2.8488124098095238,-0.58322962158,-8.285527456380953,8.869529779285713
5.449721933,-2.804724454904762,-0.4136238172371428,-8.232286248904762,8.780681406095237
5.454644194,-2.7598303159523807,-0.26128505129904755,-8.181372551714285,8.697357110904761
5.459566577,-2.7156814166666665,-0.12908580998476182,-8.122849328190474,8.611016339142857
5.464488805,-2.6733708041428574,-0.014773191741904682,-8.043708892142856,8.509995484380951
5.469410959,-2.6234078521428574,0.08256337725333343,-7.936835084666667,8.384599860047619
5.474333418,-2.561773708952381,0.16476308982476198,-7.801929314952381,8.232180916333332
5.479255817,-2.4874812365238093,0.2329390897009525,-7.640844140761906,8.053279661190476
5.48417805,-2.4034778561428576,0.28697170779142867,-7.454845973428571,7.848953941142857
5.489100456,-2.3130164771428574,0.3302116135104763,-7.24579783847619,7.622082599952382
5.494022612,-2.2187979505714286,0.3656616136485715,-7.0114605427142855,7.371482786476191
5.498945072,-2.122473711095238,0.3924349000095239,-6.738898084333334,7.085779526190477
5.503867319,-2.0259650435000003,0.41188385089523816,-6.41160185,6.7557045806666665
5.508789702,-1.942196613309524,0.42275432888095255,-6.010601520552381,6.418109477904762
5.513712164,-1.884033475642857,0.4244976625619049,-5.507629905457144,6.16577509252381
5.518634396,-1.8506962345000002,0.4239762808666668,-4.870097625838095,6.04343194504762
5.523556779,-1.8381753876428573,0.41630171027619056,-4.081438779838095,6.066952082285714
5.528479012,-1.8340565364047619,0.3952232337709525,-3.159011875028571,6.220507129428571
5.533401166,-1.8240226791666667,0.3468036148804763,-2.1273467542666666,6.471643083333333
5.538323625,-1.8116284836428573,0.2791653766090477,-0.950815280552381,6.859390848952382
5.543245981,-1.7958953437857141,0.20973209053285724,0.3767894674476192,7.406462742809524
5.548168137,-1.7755139158333333,0.14249556628047627,1.804612920161905,8.06379511147619
5.553090596,-1.745690777214286,0.06290742127095247,3.277814331066667,8.777245930380953
5.558012843,-1.7153487773571432,-0.02730605352428563,4.768371752066667,9.525362790761905
5.562935303,-1.7043033952142859,-0.09956467283857134,6.211151247495239,10.252135040142857
5.567857458,-1.7398573955,-0.14004000515285706,7.567722490638095,10.941862822333334
5.572779841,-1.8168601138333331,-0.17582295683857133,8.882911693114286,11.65544797490476
5.577702303,-1.8946754081190473,-0.25718733588619036,10.227506103638095,12.460607153761906
5.582624535,-1.9333286399285716,-0.4108453370957142,11.643029042209523,13.391104304095238
5.587546933,-1.9317215000238095,-0.6190070544671427,13.131643238257144,14.447232139333334
5.592469166,-1.9127743074047618,-0.8450222887623808,14.655672424828573,15.590916911285714
5.59739131,-1.9090339229285713,-1.0472005768433332,16.166937781971427,16.78373082580952
5.602313769,-1.9431744019285717,-1.2068282954290475,17.620476336161907,18.005739544714288
5.607236129,-2.011786018095238,-1.333970917800476,18.986300422590475,19.249112020428573
5.612158362,-2.0897713445238093,-1.446778728105238,20.24107697985714,20.469335273285715
5.617080744,-2.1542450586666666,-1.5516882020338094,21.351580687476194,21.56819101838095
5.622003244,-2.205910342047619,-1.6498851569719046,22.28271157357143,22.494594841666668
5.6269254,-2.248626141285714,-1.7377646316290476,23.01347955047619,23.224275144761904
5.63184763,-2.2909009910476192,-1.8077860134238093,23.546920685714287,23.76006988380952
5.636769999,-2.3362691401904763,-1.850101820071428,23.897173472857144,24.114978695714285
5.641692461,-2.375708801380952,-1.872044341895238,24.011985597142857,24.23514963714286
5.646614693,-2.406958801380952,-1.8794981496714283,23.864184061428574,24.092649455238096
5.651537086,-2.434974278714286,-1.8604639115809523,23.491593133809523,23.72492532904762
5.656459319,-2.4716991356666664,-1.7854176710190477,22.937450272857145,23.176773493809524
5.661381705,-2.5145806130952377,-1.6496771978285711,22.23022451852381,22.48308679528571
5.666303938,-2.5422657047142856,-1.4854514378761905,21.433845747238095,21.71987735109524
5.671226307,-2.521518270190476,-1.3201280158047617,20.588388306714286,20.939265054190475
5.67614854,-2.4575023140476193,-1.1392863059238094,19.656071447285715,20.121780658523807
5.681070999,-2.389915210857143,-0.9023155974476189,18.581435692517143,19.233846249523808
5.685993145,-2.3637875432380953,-0.5891884544,17.33150431175524,18.265125597714285
5.690915528,-2.3828927335714285,-0.21643473206666658,15.916925158517142,17.229481196095236
5.69583776,-2.412481591857143,0.17423417102857147,14.388794445755238,16.162830855619045
5.700760162,-2.418494690095238,0.5383159397904763,12.786184198517143,15.117688586904762
5.705682624,-2.381988829147619,0.8547448509333334,11.145918256755238,14.124748020333332
5.710604856,-2.3033200247666668,1.130505660552381,9.492407890469524,13.19198051504762
5.71552722,-2.195894411704762,1.385178091361905,7.838549660279049,12.319824933904762
5.720449453,-2.075059506242857,1.6269253230761906,6.189804759279047,11.515785466809524
5.725371835,-1.9424281298714285,1.8498395136,4.555501530040952,10.780232266714286
5.730294054,-1.798893801625238,2.046281697552381,2.945850554612381,10.11496443195238
5.735216437,-1.6511249946014284,2.211437982552381,1.3766030817552382,9.532322687666667
5.740138898,-1.511019991555238,2.349895263790476,-0.14019616348285693,9.05044400004762
5.74506115,-1.3951491396980953,2.466049213552381,-1.598682084435238,8.697364871476191
5.749983533,-1.3108038982933334,2.5496416426095236,-2.976437930625714,8.478718402904763
5.754905766,-1.2451152796838096,2.586858882147619,-4.251060257768572,8.396990789571428
5.759828181,-1.1841181369838094,2.5633445013809526,-5.3963826034828575,8.447028249095236
5.764750414,-1.1185481855695238,2.469077788704762,-6.407383554387619,8.610029344761905
5.769672797,-1.0485693807599998,2.308225793561905,-7.285944347387618,8.869137810380952
5.774595253,-0.9819605714742856,2.0918058923714287,-8.04202088781619,9.19634840252381
5.779517486,-0.9231499059504762,1.8325081808476191,-8.685161737435239,9.554376254380953
5.784439869,-0.8742173366171428,1.540684759657143,-9.228001991714287,9.908136287666666
5.789362097,-0.8270458630933333,1.2209070893238096,-9.674483832857144,10.23180042852381
5.79428448,-0.7789664802838094,0.8777233220857144,-10.036375363904762,10.511169054428573
5.799206689,-0.7524250485695237,0.5184665549904762,-10.331936109714285,10.753020995857142
5.804128843,-0.7597252380933334,0.15193478556190482,-10.565973031999999,10.955103941238097
5.809051225,-0.7936306221838094,-0.21067768900952374,-10.74765282595238,11.119144518761905
5.813973467,-0.8468924755647619,-0.5646444928190475,-10.883111499666667,11.247386614047619
5.818895927,-0.9210884310552381,-0.9015553082952381,-10.973253931380953,11.338694770904763
5.823818347,-1.0327268166599999,-1.1998766348666667,-11.020267077904762,11.392877318476192
5.828740502,-1.1910254403647618,-1.450892627295238,-11.02949101590476,11.420796696190475
5.833663039,-1.358815487134762,-1.6779795800095239,-10.981575284761904,11.402713822761905
5.838585439,-1.5033514858252381,-1.902683340390476,-10.893276532761904,11.349426855761905
5.84350767,-1.609124338347619,-2.1333207204380953,-10.783312616333333,11.277989017428572
5.848430053,-1.6780492436333336,-2.3683843357238095,-10.644868805857143,11.183316187571428
5.853352218,-1.7262943415619048,-2.5933457158761906,-10.488727524619048,11.074352922333333
5.858274447,-1.7749563427428572,-2.7948939147380947,-10.321206865190478,10.954669766619046
5.863196832,-1.8333430063476193,-2.9616431537238093,-10.154808453285714,10.832882126142858
5.868119065,-1.904797627857143,-3.0832203967142857,-9.996118545904762,10.713564089
5.873041442,-1.9807773374761903,-3.1610630239999997,-9.846044495190476,10.596554610285713
5.877963904,-2.0475642000476193,-3.201815446238095,-9.70663715547619,10.481953380571428
5.88288606,-2.1030192035238096,-3.210860399952381,-9.580524626238095,10.372042727333334
5.887808538,-2.1545588232857145,-3.185404067952381,-9.466095334190475,10.265617734904762
5.892730771,-2.210801397095238,-3.124236822142857,-9.361404010190476,10.16125909352381
5.897653231,-2.274901736380952,-3.029635395333333,-9.260701360904763,10.054127868380952
5.902575617,-2.336817026142857,-2.908741536619048,-9.165719667952382,9.946364752809524
5.907497848,-2.3822300774761906,-2.773079389638095,-9.069007601142857,9.831559043714284
5.912420231,-2.407587216,-2.636513440385714,-8.971497490190476,9.712497736333333
5.917342367,-2.4212905055238094,-2.4913004892190473,-8.874876635333333,9.591862789809525
5.922264596,-2.4224938835714287,-2.336215962247619,-8.78380171452381,9.47564313852381
5.927187053,-2.3987095413333335,-2.189949440823809,-8.70169398895238,9.370629281761904
5.932109437,-2.339981016714286,-2.060696349961905,-8.628906658666667,9.27202315252381
5.93703167,-2.277634070095238,-1.9260905363857141,-8.585313206571428,9.19923488595238
5.941954058,-2.241741787857143,-1.7695975850238095,-8.549432436571427,9.135519419904762
5.946876291,-2.238418266952381,-1.5843367754333333,-8.502282710238095,9.060960616
5.951798673,-2.2634861753809523,-1.3708923949142855,-8.442870230857142,8.973160218952382
5.956720901,-2.3020904064761902,-1.1394883004571428,-8.366927396619047,8.869791417809525
5.961643361,-2.328994217428572,-0.8991888173142856,-8.286139783333333,8.761280188190476
5.966565747,-2.3243929772380953,-0.6578332448857142,-8.22119671952381,8.66740620047619
5.971487954,-2.3158205463809525,-0.4316198578380952,-8.141188485238095,8.567363875619048
5.976410337,-2.3136102131428573,-0.24497123355238085,-8.02823999947619,8.442178157238095
5.981332468,-2.320315020428571,-0.09086147738095228,-7.861868472333333,8.27343573204762
5.986254697,-2.323901108333333,0.044228859514285825,-7.634975001952382,8.051131823
5.991177097,-2.306124204666667,0.15934157152380962,-7.358909902142857,7.778942658619046
5.996099558,-2.256300347190476,0.2570312824238096,-7.031796097809524,7.45034732852381
6.001021824,-2.1787422469714284,0.34620347540952395,-6.665525030566665,7.082948123666666
6.005944207,-2.1072920078380952,0.43551295210000013,-6.244217302176191,6.728756767238095
6.01086644,-2.080753147647619,0.5358738565000001,-5.742478935557142,6.475411811761905
6.015788813,-2.10715848212381,0.6553411859142857,-5.09761183322381,6.376723447523809
6.020711046,-2.1541704819809526,0.7798330421285714,-4.292539979795238,6.441546671428571
6.025633501,-2.1981064847904763,0.8914232835380954,-3.385411622985715,6.611744888904762
6.030555887,-2.2303213988380954,0.976994710257143,-2.3980912681761906,6.8522133970952375
6.035478118,-2.2635374892666666,1.0387222354904764,-1.328205287890476,7.165961536809523
6.040400486,-2.316016869885714,1.0921787604857145,-0.16658155998571425,7.574087154904762
6.045322718,-2.3832355368857145,1.146889713504762,1.0845885075380952,8.088256082714286
6.050244843,-2.4569035399809525,1.1944021454380953,2.426222962871429,8.704514677809524
6.055167534,-2.5198179114571424,1.2224778574904762,3.8434283873000004,9.400406480904762
6.060089766,-2.563204393504762,1.2362038591761906,5.304693837538095,10.149712913
6.065012168,-2.5969654860761904,1.2405268109380954,6.7602429867285725,10.891308781190476
6.069934401,-2.657844920933333,1.2379934318904762,8.155821075776192,11.542327247
6.074856555,-2.724547252742857,1.2311754779857143,9.466457096490476,12.13650314995238
6.079778928,-2.7686263975523806,1.2350386707476193,10.750447615728572,12.764973919904762
6.08470139,-2.7605940188380953,1.2365729113333335,12.075305781728572,13.527857671952379
6.089623623,-2.6919349233142857,1.2244944345285715,13.476488501157142,14.482813258047619
6.09454599,-2.614680159638095,1.2007327681033335,14.93285167977619,15.608756453904762
6.099468223,-2.570040254347619,1.155191436222381,16.365655588585714,16.840913846809524
6.104390606,-2.5527434448238098,1.0911220544366667,17.697096874438095,18.078145848238098
6.109312833,-2.5366352526761906,1.0032793856509525,18.890060809285714,19.235355772142857
6.114235293,-2.469496726952381,0.8928289589366668,19.91294613204762,20.220178186714286
6.119157363,-2.3480303947142853,0.7666429627461907,20.730003718761903,20.996465611190477
6.124079822,-2.2038312507761906,0.6224971050319048,21.351679664285715,21.583901725238096
6.129002055,-2.058634151433857,0.4517718616033334,21.843595684761905,22.049579392857144
6.133924433,-1.914665718286238,0.2581381519842858,22.20036996952381,22.38917793904762
6.138846666,-1.7558642903767143,0.04499491679380959,22.408363522380952,22.5872917252381
6.143769072,-1.5741723812719526,-0.17110289220619043,22.441686537619052,22.611734002380953
6.148691305,-1.3910488076100476,-0.3685284620157142,22.28860496142857,22.44740961190476
6.153613765,-1.221102139895762,-0.5296155094919046,21.925008862380952,22.071205917619046
6.158536161,-1.066424574295762,-0.6466280783490477,21.34996899904762,21.484299778095238
6.163458621,-0.9300046223814762,-0.7308862231490476,20.589431261333335,20.713337332095236
6.168380853,-0.8121832866100476,-0.793195316577619,19.719020637428574,19.834016900857144
6.173302925,-0.6847327608719523,-0.8471667001109524,18.827479633428574,18.932183998142857
6.178225154,-0.5406570464767143,-0.8794105082299999,17.915152417790477,18.01947005785714
6.183147635,-0.4062219036767143,-0.8773680841347617,16.914914955885713,17.116659511142856
6.188070019,-0.3125787577719524,-0.836416321272857,15.763166502933334,16.177622901095237
6.192992242,-0.29228994976719047,-0.7657701303633333,14.407953303790475,15.166409472428573
6.197914625,-0.3091488084862381,-0.6795204175190476,12.874471569457144,14.106645289380952
6.202836858,-0.32587352270052383,-0.5790951315857142,11.229765797266666,13.076931887333334
6.207759231,-0.3474588551957619,-0.47771374740476186,9.567332036980954,12.15878019409524
6.212681464,-0.3719209505243333,-0.3739346017857142,7.927905851219048,11.368073415190477
6.217604154,-0.4184310012005238,-0.2755526027952381,6.322630061171429,10.705841089190475
6.222526396,-0.48886366629576183,-0.18722265183333325,4.725597968314286,10.154882748238096
6.227448779,-0.5839647159005238,-0.10068441365714279,3.1168612035523813,9.680097526809524
6.232370935,-0.6976990436714287,0.005730301771428631,1.4938416221238096,9.266356471571429
6.237293135,-0.8330581364857143,0.13886444260952388,-0.09915860787619031,8.934655060142855
6.242215518,-0.9936105672047619,0.2983330565476191,-1.6371251540666663,8.683666996809524
6.247137756,-1.1683907557857143,0.4621521510380953,-3.099988031685714,8.52159440204762
6.252060138,-1.338672616590476,0.6121442451809525,-4.468766578352381,8.447264946809524
6.256982371,-1.4870147576857142,0.7058574808190476,-5.718013220733333,8.481860968238095
6.261904778,-1.615882285952381,0.7374943376619048,-6.844223161209523,8.656332686809524
6.266827011,-1.7352547644857141,0.7195563397000002,-7.833327114447619,8.963216741857142
6.271749393,-1.8502956174,0.6628627218904762,-8.683017438161905,9.364704428333333
6.276671597,-1.9664108042809525,0.581203815709524,-9.40762551892381,9.841291578190477
6.281594287,-2.077617236485714,0.4685678626380953,-10.012603041380952,10.367907719904762
6.28651652,-2.1735484712857143,0.3200486759238096,-10.509564410904762,10.852650451380953
6.291438898,-2.262558235952381,0.13830272668571436,-10.922812359380952,11.262225781428572
6.296361054,-2.3414273346714287,-0.06949027631428564,-11.246577989285715,11.590683772476192
6.301283284,-2.4134342414380954,-0.2891426508857142,-11.487669581238094,11.845155444095237
6.306205672,-2.4853224753714285,-0.5078266486476191,-11.645020620952382,12.025486483761906
6.311128134,-2.5460666644285714,-0.7219390269333333,-11.728229794999999,12.136729079380952
6.316050251,-2.5891570476190475,-0.9321796010285714,-11.75759174690476,12.195278847809524
6.320972482,-2.6153253316190477,-1.1361743207809523,-11.745939799523809,12.21220074904762
6.325894865,-2.622884477809524,-1.3404924638380953,-11.688021841190476,12.182502319047618
6.330817098,-2.6082007146190476,-1.544786847347619,-11.591408774761906,12.11210422047619
6.33573948,-2.5737559113333335,-1.7521256573000001,-11.457871028285714,12.003556797142856
6.340661956,-2.518898294047619,-1.961227371138095,-11.293526513333333,11.863120194285715
6.345584189,-2.4451101507142856,-2.1696362803142857,-11.106556347714285,11.698362716666667
6.350506571,-2.3592939603333334,-2.3766748503285715,-10.906277747571428,11.518444770952382
6.355428775,-2.2622135252380953,-2.5820134674714286,-10.714535667761904,11.342102144761904
6.360351158,-2.166678099333333,-2.7503982270142857,-10.537526357904762,11.17783995095238
6.36527339,-2.0768599055238095,-2.8763068515714285,-10.359742664238095,11.01061284952381
6.370195763,-1.9855918542857143,-2.9693013314761907,-10.18491922095238,10.84234528904762
6.375118225,-1.8892284290476191,-3.0381510029047623,-10.025775001142858,10.684914388571428
6.380040457,-1.7872347660904762,-3.0904952399523813,-9.882126989761904,10.538934947
6.384962855,-1.6877184764952384,-3.123079101095238,-9.76051058095238,10.410754606571428
6.389885011,-1.6035102406571426,-3.1324566771904765,-9.654800324142858,10.296373937571428
6.394807242,-1.531083379395238,-3.1121909673809527,-9.564749990238095,10.193471331190477
6.399729715,-1.4648927108666667,-3.061101919,-9.49228073295238,10.102223337095237
6.404651871,-1.4006189930238095,-2.9842402593333333,-9.435231844523809,10.020859693333334
6.409574561,-1.3384492822285714,-2.8831644057190475,-9.389157840142857,9.945731547619047
6.414496794,-1.2808793782666665,-2.7610411728142856,-9.349849564619047,9.874426096476192
6.419419177,-1.2271469490571427,-2.6191061705809524,-9.309539159047617,9.800753771476192
6.424341395,-1.1735875180285713,-2.457734547462857,-9.260299591714286,9.718062570238096
6.429263778,-1.1202676579666666,-2.272264118272381,-9.199142092666667,9.62299177952381
6.434186015,-1.0661823720904762,-2.067226637977143,-9.12099865495238,9.511702269857144
6.439108169,-1.013985656552381,-1.8420974934533332,-9.027405965809525,9.386166890000002
6.444030576,-0.9641121341809524,-1.5981699238342855,-8.923308190761905,9.251316519
6.448952809,-0.914161608304762,-1.3424309672628572,-8.81088824495238,9.109426607904762
6.453875269,-0.8599642288,-1.076871776453333,-8.687878268095238,8.959562315666668
6.458797659,-0.8014591361142855,-0.8061145895009523,-8.541740144999999,8.792774965238095
6.463719891,-0.7392890397314286,-0.5338676383580951,-8.360998516999999,8.600676161190476
6.468642351,-0.6762827046733333,-0.2593612511199999,-8.148667971285715,8.38792980852381
6.473564742,-0.6081839424876191,0.014208991260952472,-7.904659452904762,8.154448129333334
6.478486973,-0.5302322302019048,0.2822393735942858,-7.634435676380953,7.905372860142858
6.483409356,-0.4562281363971428,0.5450344699276192,-7.339938981190476,7.643409224142857
6.488331517,-0.3934477561495238,0.7982032799276191,-7.010907536428571,7.363456698095239
6.493253976,-0.34907847175119044,1.0368215743561906,-6.648695468904761,7.0699622646666676
6.498176146,-0.3197573773988095,1.2549143848800002,-6.248493705466666,6.7715296973333325
6.503098606,-0.30105461493214286,1.4583908592609525,-5.797273144838094,6.488240109047619
6.508020756,-0.3008328998464285,1.6474173796419047,-5.289077687838095,6.236278157238096
6.512943216,-0.321539280975,1.8164607162180952,-4.711201642219048,6.03397599852381
6.517865449,-0.31725413843690475,1.8855772405085718,-4.064431323885715,5.8581625848095245
6.522787889,-0.331333993027381,1.8868653366180954,-3.334172087076191,5.7692885749047615
6.527710122,-0.41539389848452385,1.9163372899714286,-2.41908856507619,5.881832333285714
6.532632582,-0.5529075161654762,1.9859894315428572,-1.328683918171428,6.196024222095239
6.537554982,-0.7212518918035714,2.074386241914286,-0.1632078456476187,6.61798605604762
6.542477213,-0.8934844203416665,2.1453365286285715,1.040608568257143,7.104040209714285
6.547399596,-1.0791258453321428,2.1700825265333332,2.3284515006380953,7.697081461666667
6.552321743,-1.2939234272559523,2.1315880985428572,3.7163460858761903,8.421178811809524
6.557243972,-1.534098708522619,2.0172847622714287,5.191456253638096,9.264939422619047
6.562166442,-1.7944706663988093,1.8413700035571428,6.6829121264476194,10.16547017542857
6.567088827,-2.058920864067381,1.6160036722714286,8.0709321424,11.014348299
6.572010987,-2.2940871547445236,1.3483021032238096,9.300590859685714,11.746969488333335
6.576933447,-2.4703402933111906,1.0502799124619049,10.389551053257142,12.388992376095237
6.58185568,-2.612469002120714,0.7487478709857144,11.44219085549524,13.047805180999998
6.586778062,-2.763209387168333,0.46134182384285727,12.600105584638097,13.8659606
6.591700295,-2.914823962344524,0.17721463384285727,13.891717619161904,14.883730958380951
6.596622755,-3.026357006485714,-0.11538670177619036,15.270718214828573,16.057735810809525
6.601545141,-3.0962508151,-0.40923880396666656,16.672216317009525,17.320105621190475
6.606467372,-3.143657863190476,-0.6856312297761904,18.015224400999998,18.573547540238092
6.611389765,-3.1666944339761907,-0.9250426065380951,19.249808221857144,19.743346179619046
6.616311997,-3.1631492915952375,-1.1244425149190476,20.33540775804762,20.78091160119048
6.62123438,-3.174673818428571,-1.220899800447619,21.26079938661905,21.70251920509524
6.626156549,-3.1601752014714286,-1.2735765633142857,22.00740846142857,22.447081734761905
6.631079009,-3.0802319646047622,-1.3936178031190476,22.46795163952381,22.897251876190477
6.636001236,-2.9590558239380953,-1.5879870851666666,22.66145270333333,23.07108687904762
6.640923619,-2.8267446841285713,-1.812171416642857,22.681789036190477,23.065029975714285
6.645845852,-2.7073086301285714,-2.0079263704047614,22.55878575761905,22.917367984761906
6.65076824,-2.5919297734619047,-2.1386665588,22.238915807619048,22.57804426904762
6.655690473,-2.4670515713190477,-2.1762633683457144,21.68881330095238,22.013244964761903
6.660612938,-2.3309741899857146,-2.1127747969314283,20.93314606842857,21.24833905
6.665535324,-2.1756249921285717,-1.9639842728361903,20.03784386361905,20.34939347004762
6.670457555,-2.003027271652381,-1.7416667021219048,19.127809615761905,19.446757768333335
6.675379947,-1.8573639307952383,-1.4630052807409524,18.282008126,18.63740401709524
6.680302179,-1.772825317747619,-1.1345929976933333,17.465769455761905,17.923581625
6.685224553,-1.7367503217476192,-0.778941857455238,16.559850031680952,17.240030145857144
6.690147015,-1.6972381756523813,-0.4209925778838095,15.430400584871428,16.469225387619048
6.695069218,-1.6473877458428572,-0.06103171531238093,14.046080257871429,15.57957126661905
6.699991601,-1.6119677027000001,0.3018067686876191,12.463335841109526,14.603290864238096
6.704913757,-1.5980385116047617,0.6641989671638096,10.752998974109525,13.598496156523812
6.709835998,-1.5852949420333333,0.9986493483066665,8.991087945157144,12.635432564238096
6.71475838,-1.564525229552381,1.286483731497143,7.213950233966668,11.78196070042857
6.719680613,-1.5375982295666668,1.5354955375923809,5.435780283966667,11.086005364238096
6.724603077,-1.5034697509857142,1.7733671560685715,3.6650654334904766,10.56180633947619
6.729525463,-1.4721017032761905,2.0232371612114286,1.9128509106333338,10.203450725666666
6.734447694,-1.4406743219809524,2.2980012108304764,0.22189220634761955,9.978210824714287
6.739370058,-1.4211252757476192,2.57756244664,-1.39471582317619,9.842422347571429
6.744292519,-1.415048326795238,2.8278650111638095,-2.9097126246047615,9.771211712809524
6.749214743,-1.4100420929380952,3.0364165826400003,-4.323503645080952,9.778142513285715
6.754136897,-1.3972315220809524,3.1917700152733333,-5.6157614536523806,9.856344127095237
6.759059275,-1.389231386652381,3.286328877809524,-6.771645242699999,10.020512452809523
6.763981507,-1.4116258621285713,3.3298496860476194,-7.816014395414284,10.274279441380953
6.76890389,-1.4647001993190476,3.3305114962857143,-8.74716212965238,10.616729919428572
6.773826084,-1.5200022913190476,3.291201920857143,-9.564409452271429,11.009884338761905
6.778748466,-1.531429148842857,3.222052352904762,-10.27331826012857,11.39546546047619
6.783670928,-1.4966716226809524,3.105957877209524,-10.845679076557142,11.735105492095238
6.788593161,-1.427343671504762,2.934928827476191,-11.27447926490476,11.998673446571429
6.793515543,-1.3493006697733332,2.7191350702761903,-11.581926278285712,12.177729365190476
6.798438005,-1.277845524592381,2.4758050684285715,-11.775509880285714,12.27111072252381
6.803360209,-1.2656526168304763,2.184230346190476,-11.868564719809523,12.302424929666667
6.808282362,-1.2519346191638094,1.8862612433333334,-11.882397720380952,12.273036247476192
6.813204745,-1.2225133322542858,1.5942290015238099,-11.859901201714285,12.218410799285715
6.818126964,-1.2197278567733334,1.3081208142380953,-11.801933697809524,12.14086683047619
6.823049347,-1.2449817146638096,1.0264309092380952,-11.694114594809523,12.02118702652381
6.827971579,-1.2764620951304761,0.7393219543333335,-11.53273178352381,11.848341012952382
