Time (s),Linear Acceleration x (m/s^2),Linear Acceleration y (m/s^2),Linear Acceleration z (m/s^2),Absolute acceleration (m/s^2)
0.129715165,0.6399825417385715,0.5524527682766667,-0.2413659975285714,0.9540983265380951
0.134637319,0.5866625411719048,0.534157578114762,-0.2596154255190476,0.9360835836380953
0.139559773,0.5282512537623809,0.5260320061385715,-0.27567104495238093,0.9246073333809522
0.144481929,0.4710408239719047,0.5274780063052381,-0.28896614054761904,0.9179702653190476
0.149404156,0.4192771091957143,0.5357335306004762,-0.29994514014285717,0.9141498863190476
0.15432631,0.3713052985814286,0.5481504837338095,-0.3075752825714286,0.9120306624619048
0.159248692,0.32639705956238096,0.5616252944433333,-0.3111662353571429,0.9093046606999999
0.164170944,0.2837293442409524,0.5750050102004762,-0.3128226165047619,0.905821860509524
0.169093327,0.24316548590619047,0.5889646791480952,-0.3133774264761905,0.9025670733666666
0.17401556,0.19921772287761902,0.6021333461909524,-0.31296328347142854,0.898618352652381
0.178937951,0.1549843883157143,0.6139335842576191,-0.3110433312952381,0.8931315407
0.183860107,0.11125895877285716,0.6227735349338095,-0.30998480744285717,0.884809855942857
0.188782256,0.07027395761142857,0.6277519163861905,-0.3114324268714285,0.8729928138190476
0.193704485,0.029971337387619052,0.6256807259385715,-0.31353276044285716,0.8545482369666667
0.198626874,-0.007412854227619049,0.6156609155147619,-0.3188278554333333,0.8300665966619049
0.203549107,-0.04504171253238095,0.6019255346052381,-0.32849128401428573,0.8050664059761905
0.208471261,-0.07953838037047618,0.5809423906766666,-0.3399870941952381,0.7769759997333333
0.213393654,-0.0820449994252381,0.597343247662381,-0.3543364753238095,0.7908219350380954
0.218315809,-0.08662414186809524,0.6047210094776191,-0.36242176023809525,0.7969673027333334
0.223238288,-0.09076409440714286,0.6089800570214285,-0.36664166406666665,0.8008908864428571
0.228160521,-0.09488904671004764,0.6096993903552381,-0.3686303787142857,0.8026824063333332
0.233082675,-0.09402595158528572,0.6019650091604761,-0.3698200931,0.8020899068857142
0.238005071,-0.08598090477576191,0.58977738951,-0.3745080949142857,0.7999792944523809
0.242927304,-0.07653623730433333,0.5697162471195238,-0.3780511425952381,0.7895302230761905
0.247849439,-0.06832971370433334,0.5407754843290477,-0.38550247534285714,0.7754533645142858
0.252771593,-0.06593600039480953,0.5055925307385715,-0.39510728559047625,0.758658802952381
0.25769398,-0.06780533403290476,0.46840252981476194,-0.40794676185714285,0.7407867968999999
0.262616442,-0.07297685794719048,0.43058838521952375,-0.4241994768190477,0.7231814949380952
0.267538593,-0.08095957178290476,0.3932892879052381,-0.44081200019047617,0.7053095135714286
0.272460747,-0.09361433361004762,0.3555883807861905,-0.45601347512857143,0.6862996001714285
0.277382975,-0.10551819044814287,0.3181637610814286,-0.4710976183238095,0.6683451004857143
0.282305389,-0.11872314288147619,0.2808964273861904,-0.48542176114285723,0.6508434541238095
0.287227545,-0.13422638052909525,0.2445719050623809,-0.49758152378095233,0.6359487633
0.292150004,-0.15245295137719048,0.21020104701952377,-0.507437666947619,0.6242908545238095
0.297072256,-0.17158318966290476,0.1813123322095238,-0.5176473813238095,0.6198933262190476
0.30199441,-0.19375319032861904,0.1584626660752381,-0.5255531909761905,0.6220991334571428
0.306916793,-0.2162578090762381,0.13537514184238097,-0.5323237152190476,0.627667316652381
0.311838949,-0.2422560949143333,0.11695038075666667,-0.5386667137904761,0.6379169295857143
0.316761177,-0.2682575706643333,0.09850357127571427,-0.5416738561047619,0.6470235702571429
0.32168363,-0.29744052345004757,0.08323242808857143,-0.5444110944,0.6589865764285714
0.326605709,-0.3212965717014762,0.06292147624571429,-0.5435946668761905,0.6684130634
0.331527938,-0.3420927144852381,0.04100628579190477,-0.545065857104762,0.681370151295238
0.336450322,-0.3584628566285714,0.01634119070095238,-0.5428058107619047,0.6917328533047619
0.341372555,-0.3718576189904762,-0.011523905872380955,-0.5396271915571429,0.7016153506857142
0.346294713,-0.3817875236190476,-0.04291542858666667,-0.5378341901761905,0.7128672874095239
0.351216867,-0.39145080886666667,-0.07726290316285714,-0.5320746189,0.7225590036333334
0.356139326,-0.3999524755095238,-0.1115977607104762,-0.5241517609,0.730090744547619
0.361061697,-0.4061849997142857,-0.1478507610104762,-0.5149369523571429,0.7352302948238096
0.36598393,-0.4110678093761905,-0.18361871219142858,-0.5044948557952381,0.7385808222095238
0.370906084,-0.41538823786190476,-0.21774680690095236,-0.49411309474285714,0.7407128766714285
0.375828466,-0.417124475752381,-0.25067133127714286,-0.48560900062857143,0.7424517290333333
0.380750699,-0.4154085233095238,-0.28158152236285716,-0.4768473818095238,0.7416959268285714
0.385672853,-0.4117234760809524,-0.30897442703904765,-0.470099048947619,0.7401102771095238
0.390595235,-0.4052827145380953,-0.33306038016285716,-0.46468642920952385,0.7373929206
0.395517372,-0.40112461930476195,-0.3546210945247619,-0.4594944289714286,0.7360513944285715
0.400439601,-0.396363572,-0.37227104631476193,-0.4555605238333334,0.7338116918095239
0.405361986,-0.38951399922857144,-0.38633676051380955,-0.45369957174285713,0.7310699826809524
0.410284146,-0.38068695153809523,-0.39316628412857146,-0.45103342901428567,0.7253319605047619
0.415206374,-0.3715617131666667,-0.39548771296666674,-0.44842223893809524,0.7186552206761905
0.420128836,-0.3611044756047619,-0.39022752235095237,-0.4431559528619047,0.7078033176238095
0.425050978,-0.34886657056666665,-0.38000514106190475,-0.43783271596190476,0.695010504604762
0.42997336,-0.3367618081142857,-0.3618601414752381,-0.43065466908571426,0.6794233704142857
0.434895516,-0.3235429035809524,-0.33625052262285715,-0.42254043050476187,0.6620547913619047
0.439817731,-0.31224818953809524,-0.30488085636095236,-0.4158511431380953,0.645980298252381
0.444739887,-0.3018375699047619,-0.2668403319228571,-0.4091100465619048,0.6311613367095239
0.449662283,-0.28984699859523805,-0.2237266191657143,-0.40232300048095243,0.6170721830190476
0.454584516,-0.27922723690476187,-0.17406081048952382,-0.39551257234761905,0.6049036598142857
0.459506976,-0.26696652244761904,-0.12149590568952381,-0.38847823937142856,0.595611446552381
0.464429147,-0.2534639026404762,-0.06569747728952381,-0.3804675723761905,0.589641505
0.469351301,-0.23799233120571428,-0.009072954060952385,-0.36996890603809524,0.5859265767476189
0.474273683,-0.22117052231333337,0.04711114193428571,-0.3575169532714286,0.5854437184238096
0.479195858,-0.2004768557895238,0.10227128547714286,-0.34330190549095235,0.5867206682571429
0.484118318,-0.17745018931809522,0.15708376081047618,-0.32930871471423806,0.5917913171142858
0.48904055,-0.15180818882285715,0.2084639509247619,-0.3160232856304286,0.5984822195761904
0.49396268,-0.1251761409847619,0.25800128462952376,-0.30359580961804766,0.6066945634238096
0.498885063,-0.09287718864190475,0.3051148550628572,-0.29139390454328573,0.6135863529285714
0.503807219,-0.05826818875619048,0.3477420463247619,-0.27879009510804764,0.6204362546238095
0.50872934,-0.02250918962285714,0.38473099865809524,-0.2648253331699524,0.6262246456142857
0.513651799,0.014047857515238097,0.41573052220095236,-0.2500139997270952,0.6321128731714286
0.518573959,0.05318447731047619,0.44267014135333327,-0.2347491905937619,0.6381648824571429
0.52349619,0.09040019267238095,0.4620248085138095,-0.22331038161280953,0.6450127791095238
0.528418572,0.12395800220571429,0.4800669036533333,-0.2141031911128095,0.6507439794
0.533340738,0.15528033528190474,0.4970324756238095,-0.20913942841280955,0.6607016128571429
0.538262967,0.18061919293904763,0.5130390468190476,-0.20704500066995235,0.6713088628428572
0.543185352,0.2028907168104762,0.5308273817904762,-0.20825723851280953,0.6840548136095238
0.54810757,0.22383200267238093,0.5494871920142858,-0.21186157254138097,0.6994010523857143
0.553029953,0.24112424037714286,0.5703943825952381,-0.22021128494614284,0.7202921805095238
0.557952186,0.2579790019866667,0.592530190952381,-0.23292276024138095,0.7446897725428572
0.56287433,0.27330004952,0.6192024776095238,-0.24783028351757141,0.7750104451666667
0.567796484,0.28567843064142856,0.649606906247619,-0.26225723583661903,0.8089378788761905
0.57271889,0.29595738272571426,0.6853394309857143,-0.278267188889,0.8483974985142857
0.577641123,0.3052940017428571,0.727642763252381,-0.29184842686519047,0.8930977446952381
0.582563491,0.3102469061095238,0.7754783801095239,-0.30230690326471427,0.9420108323761905
0.587485646,0.31224828674285715,0.8257495250428571,-0.3069317602557143,0.9921314863142856
0.592407875,0.3101354298095238,0.8800290482761904,-0.30384461741857144,1.0451880501238096
0.59733027,0.30612662008095237,0.9347695708619047,-0.29507685559761904,1.0982573958428572
0.602252426,0.2967128100761905,0.9906394311857143,-0.2789252370295238,1.1514985953619048
0.607174654,0.2828213820790476,1.0445467631571428,-0.25525790436,1.2020130714904762
0.61209713,0.2610098584596667,1.0972756204809524,-0.22247104791238095,1.2505748790761906
0.617019286,0.2341433348234762,1.1446074276428573,-0.18375376169333335,1.293347799947619
0.621941669,0.20312600049109522,1.1857589994809525,-0.1432201438457143,1.328295538942857
0.626863892,0.1724010471625238,1.218808568704762,-0.10154219132190476,1.354386031995238
0.631785969,0.14030323779109524,1.2412660448761905,-0.058927380798095244,1.3734424012904762
0.636708178,0.1050782863434762,1.2526891884761906,-0.014814715483809526,1.3841510777
0.641630563,0.06893085793395239,1.255868761352381,0.03243280787333333,1.3923840606476192
0.646552795,0.03486776279585715,1.2487518078190476,0.0847677111209524,1.3960950802523808
0.651474949,-0.001442427451761903,1.2329419511095239,0.13689899781142859,1.3940282884380952
0.656397332,-0.03808371369461905,1.2073054754,0.18877218787333333,1.3845108065619047
0.661319556,-0.07338676212795238,1.1723080001095239,0.23693604465428572,1.3658842881142856
0.66624171,-0.10553857118033332,1.1271680473190475,0.27650085357333337,1.3326363766809526
0.671164092,-0.13059504828509524,1.0728163332809524,0.3055580441057143,1.2848234235761904
0.676086554,-0.14912995271842858,1.0117758079999999,0.32388080674380954,1.2254345104714286
0.681008787,-0.16305628597842856,0.946001331747619,0.32955747363904764,1.1633751578809524
0.68593094,-0.17833309515461904,0.8796047149761905,0.32449890265333337,1.1042376292761904
0.690853308,-0.20335233354509524,0.8174898092333335,0.3100153791438095,1.0525647173428572
0.695775464,-0.23032576272604763,0.7558852867095238,0.29315952140857143,0.9997284227238096
0.700697703,-0.25831771607366666,0.694996051147619,0.27917061710857144,0.9453245992428572
0.705619858,-0.2826160973117619,0.6333157625904762,0.27191718880857146,0.8887776142142857
0.71054227,-0.30193481204795236,0.5720696200809524,0.27386342805619046,0.8375474789952381
0.715464503,-0.3145770976904762,0.5090691908238095,0.28331823754190477,0.7970401229047619
0.720386886,-0.322770002692381,0.4471353838571429,0.30161837914666667,0.7726551343333332
0.725309132,-0.32880485979809526,0.38178505001190477,0.3324520492038095,0.7679726562857143
0.730231286,-0.33278809771238094,0.3087600036690476,0.37937357202761907,0.7904850581904761
0.73515344,-0.33239033605047624,0.22392890779285712,0.43816933068476194,0.839178645857143
0.740075905,-0.33105619393619046,0.11793219120714286,0.5042682818609523,0.9161883846619048
0.744998289,-0.32524024234095233,-0.018624425621428572,0.5730831441895238,1.021577972657143
0.749920522,-0.32288986231714284,-0.18948837758809522,0.6388269595419048,1.1596936271714284
0.75484269,-0.3186972432219048,-0.40695985230238096,0.704568243075238,1.3412620695619046
0.759765072,-0.3177120039885714,-0.6734189440928572,0.7647119579561904,1.5707025762476188
0.764687223,-0.32145857314571424,-0.9903343759738096,0.8158048153847618,1.8529400945047618
0.769609452,-0.33668243104571427,-1.3575869997071428,0.8559363381609524,2.191733987604762
0.774531837,-0.36671166973619046,-1.7653682731928573,0.8767923382904763,2.5802112647095234
0.779454061,-0.412975239607619,-2.201029800197619,0.8792210049323811,3.0022628765285715
0.784376214,-0.4683205233285714,-2.6359631148976193,0.8601606699419048,3.4182383249761905
0.789298368,-0.5088883794333332,-3.0445236463642855,0.8230024787514286,3.7961534558190473
0.79422077,-0.5269298539142857,-3.400612077478572,0.7709061431133332,4.10619993732381
0.799143003,-0.5279344249238095,-3.6972788926214286,0.7002426682609524,4.356478477704762
0.804065385,-0.521954234147619,-3.9323733802976184,0.6175192891371428,4.5510087361857146
0.808987837,-0.5302626135714286,-4.1142544220738095,0.5290021937514285,4.699139323071428
0.813909993,-0.5561045166904761,-4.249004757040477,0.4398130517609524,4.804231055385714
0.818832147,-0.596843610195238,-4.339636378259524,0.35594333906571424,4.867813694
0.823754356,-0.6473932741428572,-4.392922045135714,0.2813227203609524,4.897436462190476
0.828676512,-0.6993099869571429,-4.410030235761904,0.20957767028,4.900128013190476
0.833598885,-0.7548218440238096,-4.386765378129904,0.13597462350666664,4.883804668761904
0.838521118,-0.8113635579380953,-4.323712996344191,0.05888391168761903,4.854186479
0.843443271,-0.8708643217619048,-4.216448471934667,-0.018435466274285734,4.81370160947619
0.848365664,-0.9402878937190476,-4.061572762058477,-0.0944073279457143,4.761616837333333
0.853287897,-1.0090988448714284,-3.859426095677524,-0.1691037609409524,4.685352000333334
0.858210051,-1.0720115616190478,-3.604275953487048,-0.2468298071647619,4.5642488308095235
0.863132447,-1.133679750438095,-3.292108098963238,-0.31820709449809526,4.402712614238095
0.868054909,-1.1938293689952382,-2.9178842366299045,-0.3734059995361905,4.199854845285715
0.872977142,-1.2502579376857144,-2.4842075623918096,-0.3991848068742857,3.9570828938571427
0.877899524,-1.297392981409524,-2.0001675291537144,-0.3852298069742857,3.6807549096666667
0.88282168,-1.3335313172666667,-1.4787077169632379,-0.3335397137066667,3.3852753196666674
0.887743834,-1.3646774121714285,-0.9492925977251429,-0.24397742819238097,3.103557362571429
0.892666048,-1.4054539856333332,-0.4385203013918095,-0.12440495338285716,2.8623474114761907
0.897588204,-1.4553404620619048,0.0278282672272381,0.012046955093333332,2.6884897021428573
0.902510591,-1.5112306532380952,0.44610908441771424,0.1549233360457143,2.5786258343333333
0.907432824,-1.567314224604762,0.8182778524653335,0.2899573806171428,2.533942274904762
0.912354978,-1.6101933661238097,1.1549756579891428,0.3980770472171429,2.548734650285714
0.91727738,-1.627260509,1.4596235577986667,0.4523573793742857,2.6100325379999996
0.922199612,-1.6329120795238095,1.732349645132,0.4383379525409523,2.7191496877619046
0.927121766,-1.6331838426666667,1.975947112879619,0.3689326210552381,2.865403257904762
0.932044226,-1.6309267964285714,2.19200087120819,0.26383928451714284,3.0316112555714283
0.93696661,-1.6198907466666665,2.3820525407285715,0.13595886024285714,3.2001967770952384
0.941888843,-1.5955227954714286,2.549324495380952,-0.0027274220333333367,3.3599367769047617
0.946811212,-1.556803413857143,2.6984846364,-0.14588794688095236,3.5029734249047624
0.951733368,-1.5024576499714286,2.8361122039523807,-0.2903753761142857,3.628646940619048
0.956655516,-1.4406774129476192,2.969440494190476,-0.4344826667857143,3.748812342047619
0.961577745,-1.3786577440761905,3.109947550809524,-0.5698658526571427,3.877889005952381
0.966499872,-1.3070113658999998,3.2600191206666667,-0.6989683793238095,4.010611428
0.971422255,-1.224771034157143,3.421123782761905,-0.8231478589523809,4.14904367247619
0.976344488,-1.13306536989,3.593349598666667,-0.9480450011857142,4.291284012714286
0.98126665,-1.028020515337619,3.7777442761428572,-1.073703479242857,4.4416133419047625
0.98618911,-0.9191753708376191,3.968175093285714,-1.195139569909524,4.594674663857142
0.991111266,-0.7985001817042858,4.161000194952381,-1.3079368529095237,4.747767474619048
0.996033648,-0.6753011814757143,4.3487761474285715,-1.4073051356142858,4.8963703571904755
1.000955881,-0.5399067047614287,4.531865210714286,-1.4905878518095237,5.047188564047619
1.005878264,-0.3961451323804762,4.711435056809524,-1.5556279477285715,5.205900001333333
1.010800478,-0.24167832166619052,4.885479529619047,-1.601204803965381,5.370495500190477
1.015722631,-0.06770208195190477,5.056366205142857,-1.6252374226391904,5.542189097857142
1.020645009,0.1153971084290476,5.229130120428572,-1.608790898915857,5.727107301285715
1.025567165,0.3191212032385714,5.411519652238095,-1.5469632348401905,5.918459149238096
1.030489399,0.5370725861433333,5.606079271761905,-1.4599452360449523,6.112992128619047
1.035411783,0.7543090141909523,5.819290808190476,-1.357908327768762,6.316738451047619
1.040334016,0.9665030595719047,6.049170403190477,-1.257103903754476,6.532900052285713
1.045256418,1.1555427780909522,6.297100680190475,-1.1661690964306668,6.762932225285715
1.050178651,1.3313420230004762,6.560064894809523,-1.0998379993354286,7.009978630142856
1.055100804,1.4956210666861904,6.8348429770952395,-1.0500762385259048,7.270487782904762
1.060023192,1.6484008786147617,7.117171310285714,-1.0050659953830476,7.537327441523809
1.064945425,1.7827183078861903,7.396015893857142,-0.9522584259068572,7.798922137571428
1.069867579,1.921230266471905,7.660421916428571,-0.8911215670973334,8.051142756142857
1.074789956,2.0456744616814286,7.905717804333333,-0.8178397538544763,8.28646000409524
1.079712112,2.150853792795238,8.129980541428571,-0.7262464698878096,8.502077072285713
1.084634341,2.2362770792904763,8.32755313604762,-0.6227545150259047,8.695537025857144
1.089556726,2.321106124504762,8.482195967761905,-0.5115284700878096,8.854040474857143
1.094478969,2.393713414704762,8.577819211190477,-0.3974548983735238,8.960954828809523
1.099401352,2.4243722246190478,8.619343825809523,-0.2654807575735238,9.018271652142857
1.104323508,2.3910687466857143,8.58484642852381,-0.09203051894971427,9.019537230904762
1.109245737,2.3086565080666666,8.379667248142857,0.1465623455407619,8.947363122142857
1.114167892,2.225057554871429,7.780540977285715,0.4902171540632857,9.03167738347619
1.11909026,2.2086120259666666,6.518200113523808,1.0033016684228095,9.71723908547619
1.124012493,2.233211453204762,4.464923347428571,1.735217328256619,11.181264121285713
1.128934875,2.3031688230619047,1.6100426285238092,2.684999962085714,13.437143149238095
1.133857103,2.4068393066333336,-1.8281230815238099,3.7394733198142855,16.247007921142853
1.138779257,2.507061837442857,-5.390649148857143,4.626325220157143,19.094537847999998
1.143701411,2.543664493490476,-8.493057785285714,5.155308933809524,21.381431063238093
1.148623809,2.483549587538095,-10.912475348428572,5.416243176009523,22.922747908999998
1.153546041,2.2701811546809525,-12.845050574190477,5.47429031734381,23.942009181476188
1.158468199,1.941142784442857,-14.446650176714282,5.384865934248571,24.632816513380952
1.163390582,1.5376458832047621,-15.817430304238096,5.230241307486667,25.115935461
1.168312815,1.0881353997285714,-17.027039154333334,5.073571599962857,25.463933321476194
1.173234998,0.5871362442047618,-18.128361691857144,4.944742029915238,25.72846984052381
1.17815738,0.08550725491904768,-19.164185468666666,4.8670463167676195,25.9327636157619
1.183079613,-0.3704590247,-20.177921648666665,4.854558316315238,26.101292730999997
1.188002067,-0.7771739863666667,-21.19121891152381,4.922476553072381,26.264589365714283
1.192924223,-1.1466596144142858,-22.190351295,5.08550668642,26.469730487
1.197846606,-1.4574461455095238,-23.150331487428573,5.328948398705715,26.737110940666668
1.20276881,-1.6507258603190476,-24.049729450857143,5.652105629705714,27.078817305047615
1.207690964,-1.6875624787904762,-24.85188621695238,6.0159921678009525,27.49318121404762
1.212613132,-1.6527910023190473,-25.436831952476187,6.158492341277143,27.827356589142855
1.217535515,-1.648836716742857,-25.537082809666664,5.950674241848571,27.78215399147619
1.222457776,-1.776830572890476,-24.86195414519048,5.351036443753334,26.98542831461905
1.22737993,-1.9933244292238095,-23.295655717000002,4.414712937277143,25.382022287190477
1.232302312,-2.298670991985714,-20.838395900257144,3.1244861598961906,23.073361894809523
1.237224554,-2.6508738616047616,-17.7249668024,1.6687646224200001,20.26589849904762
1.242146937,-2.986922487366667,-14.430984841304761,0.39118522408666656,17.414603578
1.247069093,-3.236959430890476,-11.554492658638095,-0.45070038805619056,15.070311104571427
1.251991552,-3.3548390997380952,-9.330827375590477,-0.9143066775323812,13.408735498095238
1.256913785,-3.293851244019048,-7.571854412971429,-1.0654110142476192,12.230090292761904
1.261835939,-3.096224252020952,-6.1269838501619045,-0.9898959142952383,11.369595330380953
1.266758321,-2.8016276381257144,-4.895042309019048,-0.7995931931952381,10.727556215428573
1.271680477,-2.4345328233638095,-3.7986376656380956,-0.5929099165190477,10.250188907142856
1.276602617,-2.0179850055066666,-2.7744935836380953,-0.42159815487619057,9.891904560666667
1.281524846,-1.5848893062304763,-1.7835803739714289,-0.32887382309523816,9.630619096857142
1.286447231,-1.1737670238495237,-0.7847891787809522,-0.3394096337666668,9.440823151571427
1.291369463,-0.7986310628019047,0.23816798745714285,-0.4600796798809525,9.28284066061905
1.296291846,-0.4643464336590476,1.2927681584095239,-0.7103349069761906,9.126551030142858
1.301214008,-0.18238657642095232,2.369579222219048,-1.0848987655952382,8.968553088238096
1.306136237,0.026477425579047673,3.450222240314286,-1.6119523715000001,8.805076692047619
1.311058621,0.13729413846000005,4.515787757933333,-2.2560351902619047,8.635392665857143
1.315980844,0.21627942222666668,5.533332140980953,-2.7688877000714287,8.61947845204762
1.320903227,0.3092787546076191,6.457771344266668,-3.0603926962142856,8.82429995342857
1.325825459,0.44698465404095244,7.263145489790477,-3.1534397985,9.173310748380953
1.330747584,0.6131400377552381,7.959025755409525,-3.139237476214286,9.538545847714285
1.335669738,0.8084293260409523,8.556327508190478,-2.997802988357143,9.80633764295238
1.340592126,1.0069707061838096,9.07324502652381,-2.7926816755,10.009579074428572
1.345514359,1.18775094666,9.525275526380952,-2.589233788642857,10.208375575476191
1.350436526,1.351371611612381,9.924192815142858,-2.4405951769285714,10.447669571285715
1.355358986,1.4903715108409525,10.278882413047619,-2.3693204649761905,10.733968756333333
1.360281371,1.6120025058838094,10.59907254757143,-2.3774426479761908,11.045479979285714
1.365203522,1.7218934057428572,10.885408651428572,-2.4504786942142855,11.351576838333333
1.370125905,1.8144895520857143,11.143341314571428,-2.5795538893142855,11.640888870904762
1.375048061,1.9000629386571426,11.357110477857143,-2.7297474145142857,11.888025301571428
1.379970289,1.9759757463238097,11.533272107761904,-2.866201937109524,12.092072277571429
1.384892444,2.046487740238095,11.67921951857143,-2.983675218652381,12.262941154238096
1.389814827,2.103459738666667,11.798844655761904,-3.084196697971429,12.403755277619046
1.394737036,2.151669263952381,11.904990514761906,-3.180086124380952,12.52978098095238
1.39965919,2.1889229786666666,11.9913717,-3.258969267047619,12.632201183333333
1.404581664,2.211474554952381,12.060899099047619,-3.3140695547619043,12.712909221428571
1.40950382,2.2166883605714287,12.110529445714285,-3.3347161836666666,12.76591328857143
1.414425993,2.2105230775238094,12.139388493333334,-3.337174040809524,12.793305707619048
1.419348376,2.187447315285714,12.159128734285716,-3.326518569523809,12.806390527619048
1.424270522,2.1642846040476194,12.161054747619048,-3.285331567,12.795318746666666
1.42919275,2.1370061353333334,12.149936403809523,-3.2281730855238093,12.766336655714285
1.434114906,2.1026284185238096,12.127560025238093,-3.157080423190476,12.72183298047619
1.439037371,2.0616658473333334,12.097335633809523,-3.0872799100952384,12.668097905714287
1.443959755,2.0134243739523807,12.057927903809523,-3.005544424047619,12.601670782857143
1.448881988,1.9633670365714286,12.005084810000001,-2.940210717047619,12.526717936190474
1.453804366,1.9016114219428575,11.946548326190475,-2.892671528285714,12.449828720000001
1.458726522,1.8329385236714288,11.881859325714284,-2.8684543313809523,12.372998084761905
1.463648646,1.751677530309524,11.81011418,-2.8526648566190476,12.290364596190475
1.468570875,1.6590681545761903,11.738212631904762,-2.832254477857143,12.205359382380953
1.473493265,1.5629760553190475,11.660585767619049,-2.800960427190476,12.112323152380952
1.478415498,1.458216479257143,11.58912854047619,-2.7702622867619047,12.024227144285714
1.483337651,1.350514194209524,11.515711694285715,-2.7565363815714283,11.939013534285714
1.488260029,1.233569961733381,11.435745421904763,-2.749188763761905,11.848220327619046
1.493182262,1.1183151533348095,11.34924162095238,-2.7471695173809523,11.752916282380951
1.498104416,1.0016730564033811,11.254710289047619,-2.7483402774761907,11.650835272857144
1.503026798,0.8878081520605238,11.158440409047618,-2.7545776594761904,11.549853966666667
1.50794926,0.7792125296462382,11.059698014761905,-2.761273088952381,11.447915421428572
1.512871416,0.6748126271510001,10.959661166666667,-2.7636046069523807,11.345128606666666
1.517793647,0.567553482755762,10.862117904571429,-2.757862988047619,11.243012816666667
1.522716029,0.47038462844623813,10.763488089380953,-2.753703934904762,11.14162941952381
1.527638185,0.37579696036528576,10.67219652547619,-2.7646374590000002,11.05071083047619
1.532560339,0.2879582438938572,10.586711521142856,-2.7721341224761904,10.965277927142857
1.537482539,0.20373752935576195,10.504535993904764,-2.7826303982380955,10.884370857619047
1.542404923,0.1174543365843334,10.423359009095238,-2.7754036813333336,10.800793335714285
1.547327079,0.037752336741476246,10.344802312333334,-2.781054780666667,10.723408621428572
1.55224928,-0.038919280648999945,10.270023437476189,-2.7783752056190476,10.648658099999999
1.557171665,-0.12713966124899995,10.18941348,-2.758098818095238,10.565369332285716
1.56209382,-0.2265271849299523,10.090095066666667,-2.725132772,10.463500778190475
1.56701613,-0.30716794937757136,9.961890857,-2.703436442904762,10.336579167809523
1.571938592,-0.3812312802632857,9.815244697809524,-2.6981753963809525,10.198147989333332
1.576860976,-0.4669555205299523,9.634788763380952,-2.6701374396190474,10.024310411619048
1.581783108,-0.5531870452775713,9.361729826857143,-2.506927294533333,9.746252888
1.586705339,-0.6740559027061428,8.96828913747619,-2.0493904836285717,9.587474174904761
1.591627493,-0.8979783835157142,8.546237968761904,-1.2745471881523809,9.76165949442857
1.596549876,-1.1907052433076188,8.12057234595238,-0.18253597481904751,10.264706660619048
1.601472108,-1.5420981971857142,7.647747550266667,1.4496859171333334,11.301449159666666
1.606394291,-1.801066249604762,7.168834285436191,3.1514322788952387,12.392533864428572
1.611316674,-1.819233105295238,6.418028067150477,4.864104001514286,13.498124158714285
1.616238806,-1.549514197180952,4.301105642864762,6.987785750942857,15.59928372538095
1.621161034,-1.2964201413571428,0.6411803182933328,9.35818417032381,19.013005760619045
1.626083419,-0.984180608,-3.16105042604,12.046196486276191,22.731808225380952
1.631005876,-0.6365826158714285,-6.958550400706667,14.136371138704764,26.117794455857144
1.635928031,-0.2213173523047619,-10.752852433040001,15.03604246632381,29.062774132999998
1.640850262,0.054544982423809577,-14.516470039611429,15.309020647276192,31.88657237442857
1.645772626,0.25240179181428574,-17.5825931848019,15.197416161085714,34.01929704680953
1.650694782,0.41241997760952387,-19.71976592899238,14.500330712323809,35.404116733
1.655616936,0.5046047880000001,-21.119953012706667,12.849489135561905,36.93629606252381
1.660539164,0.48082388294285716,-22.05701196094476,11.258679903990478,38.243727285
1.665461549,0.5076835949857144,-22.740710229087618,10.323002580085713,38.875346307190476
1.670383801,0.5379161678095239,-23.288707862706666,9.864632053561904,39.06535672757143
1.675306183,0.5471538318952381,-23.750294485659047,9.603909643466666,39.07950596133333
1.680228416,0.5520195009904763,-24.101180101130474,9.37894979318095,39.070174751904766
1.685150594,0.5396386001809524,-24.26825591679714,8.985640844285715,39.20935620452381
1.690072977,0.5810454587047619,-24.238553003606665,8.297105926,39.24858493852381
1.694995233,0.7796035593190476,-24.116692488130475,7.337846347761904,38.93449836480953
1.699917616,1.0821320385761906,-23.93082300441619,6.094513893619047,38.30152280271428
1.704839772,1.500552325004762,-23.684588910301905,4.3207919032857145,37.14484005
1.709761971,1.878635565433333,-23.446590058233333,2.4795578776190474,35.93379164571429
1.714684355,2.027483131204762,-22.934964382280953,0.6478605499523805,34.698241597333336
1.719606242,1.8756873238714287,-21.04465132442381,-1.5344036756666672,32.431403452666665
1.724528702,1.7444337407761905,-17.605186392042857,-3.944908391571429,28.844914438666663
1.729451111,1.570823394157143,-14.023542061138095,-6.630041190095239,24.940283520809526
1.734373343,1.379033165347619,-10.438436460233332,-8.678114890714287,21.370237464809524
1.73929542,1.1272203326333334,-6.835738565328571,-9.50794012752381,18.257652068619045
1.744217663,1.0336211834904763,-3.232049076233333,-9.688921598957142,15.299161385142858
1.749140048,1.0280076634904762,-0.29129221013809464,-9.472539068466668,13.06509643966667
1.754062295,1.0585948143952382,1.766637464433334,-8.662163424747618,11.618852290190475
1.758984677,1.166489286109524,3.1328692920047625,-6.885083614333333,10.068327483285714
1.76390691,1.4095877096809524,4.0763814364333335,-5.168465624357142,8.783228583761906
1.768829293,1.6234210389238097,4.814991227433334,-4.124171399508572,8.22103255804762
1.773751448,1.8156895169571428,5.478059703576191,-3.5553065857323807,8.15273861804762
1.778673602,2.018619467871429,6.096649252385715,-3.1933765077466667,8.293065485619048
1.783595851,2.2283904198238096,6.661147424190476,-2.9190467546038095,8.512468500380953
1.788518236,2.4412458951095237,7.154233671619049,-2.6445060918419045,8.707278325666667
1.793440416,2.6166030325380953,7.585287957333334,-2.391766276365714,8.896226857142858
1.798362875,2.7213307463523813,7.963067645333333,-2.2207011388419047,9.119902303714287
1.803285031,2.7782963174285715,8.28945155395238,-2.1146014311276193,9.349026668666667
1.808207247,2.7818328426190475,8.606119246952382,-2.02989467055619,9.575422790904762
1.813129629,2.7496637503333337,8.941565264,-1.9649995856038094,9.81293511042857
1.818051785,2.7229563281428573,9.27829574395238,-1.9272068802704763,10.067474547857142
1.822974024,2.732695556809524,9.60493455609524,-1.949463175175238,10.362613995380952
1.827896409,2.760960703809524,9.922459602285715,-1.9860561241752381,10.663731199380951
1.832818641,2.7859406584761905,10.237881796619048,-2.0431599851276188,10.972165044380953
1.837741019,2.8037275132857142,10.544764586666666,-2.127599467127619,11.277986933238097
1.842663175,2.8164273216666666,10.830865314619048,-2.2423937952228568,11.569605220857143
1.847585329,2.8119614691904764,11.09022056457143,-2.3870071236466663,11.835057197190476
1.852507807,2.800829660333333,11.311041332285715,-2.548373215946667,12.06418301457143
1.857429963,2.7877527078095237,11.481941768190476,-2.7069803568561905,12.246168200238095
1.862352194,2.7620829514285714,11.604971159190477,-2.8719111216038096,12.379309256190476
1.867274348,2.7237260455714285,11.691241945714285,-3.0504814574371424,12.475698150000001
1.872196807,2.671472765190476,11.749297323809524,-3.2280039843809525,12.544526477619048
1.877118963,2.617196435047619,11.77669784,-3.403686600061905,12.587831459523809
1.88204136,2.5639392989047622,11.781692232380953,-3.559729360380952,12.610967083809523
1.886963593,2.5160063448095236,11.764544623333332,-3.6820281232857144,12.61148762904762
1.891885975,2.4772487708095237,11.727250961904762,-3.7828987893333332,12.594381228571427
1.896808199,2.455619108047619,11.678774016190477,-3.8610820315714287,12.56588932190476
1.901730353,2.449071725190476,11.623991239523809,-3.90944418447619,12.527407930952382
1.906652507,2.4537801515238096,11.56746451047619,-3.9281584648095236,12.480722213809523
1.911574956,2.4518305800952382,11.51059227904762,-3.934714044761905,12.429455495238095
1.916497035,2.4356735774285716,11.454171317142858,-3.9185214723333335,12.369407430952382
1.921419264,2.3993616217619045,11.394962856190476,-3.895622843714286,12.301904538095238
1.926341649,2.3408965326666666,11.328286080476191,-3.870415642047619,12.223235563333333
1.93126411,2.261429343904762,11.256493931904762,-3.846571309142857,12.136285371904762
1.936186319,2.1700415327142855,11.179666110476191,-3.845414729285715,12.048728723809525
1.941108473,2.0652292455714285,11.097276415238095,-3.848154533428572,11.953783533809524
1.946030702,1.955260577619048,11.006636892380953,-3.8397494383809523,11.846329030000001
1.950953172,1.8453825314761905,10.911336354047618,-3.830011731095238,11.734412033809525
1.955875328,1.7328602415857144,10.816535223142857,-3.817477214904762,11.62175655
1.960797711,1.6222869526523809,10.720437185904762,-3.8120235034285717,11.510578590952381
1.965719924,1.5176069509285715,10.624507131761906,-3.815222410952381,11.403832314285713
1.970642078,1.422836479652381,10.531326384476191,-3.8196270806666672,11.302672526666667
1.975564213,1.334020574847619,10.438212167190477,-3.81125112947619,11.199485393809525
1.980486596,1.2543821873666667,10.349606649952381,-3.798146134380952,11.101226420476191
1.985408815,1.1847579904571428,10.263240586904763,-3.7904757091428576,11.009225042857143
1.990331197,1.1269409911761905,10.179948806523809,-3.796224230857143,10.92704557952381
1.99525343,1.0807096106333336,10.098722139761906,-3.802720614904762,10.849402006666667
2.000175817,1.0432558002809524,10.01543903304762,-3.8220216433809524,10.776411466190476
2.005098049,1.0163391828190478,9.929987271380954,-3.8525955337142856,10.707961338571428
2.010020203,0.9937513754142858,9.842184111904762,-3.8957369669047623,10.643880428571428
2.014942591,0.9769214703666668,9.75257891652381,-3.949145112809524,10.58450994
2.019864824,0.9637508987952382,9.659784225666666,-4.022731826476191,10.532103974285715
2.024786978,0.9558250421190477,9.56786464452381,-4.108750116333333,10.487718402857144
2.029709331,0.9467111342857144,9.479370934142858,-4.209897223047619,10.453849366190477
2.034631487,0.9253311781142858,9.388941083380953,-4.324979464285715,10.424256763333332
2.039553928,0.8919626573428572,9.29093274604762,-4.438251790619047,10.388486494761903
2.044476083,0.8613635641857145,9.172268640380953,-4.557974690571429,10.33980174004762
2.049398319,0.8162992784566669,9.020486672666667,-4.691029446571429,10.273829366380951
2.054320473,0.7549172288280954,8.718366770476191,-4.726032836190477,10.03601239752381
2.059242627,0.6211900870519048,8.360552560666667,-4.566472355190476,9.678634224761904
2.06416501,0.48448599127095243,7.897663950790478,-3.9903929525238095,9.604622328571429
2.069087242,0.1613297110900001,7.3108178148857155,-2.717422321619048,10.256660864285715
2.074009625,-0.22059710363380938,6.758062209266667,-0.7790270370000001,11.563859593333333
2.078931853,-0.5131574766861904,6.209941676552381,1.584089852,13.29034483
2.083854235,-0.6632518523957142,5.622427014933335,4.310545177380952,15.36751351142857
2.088776468,-0.6110568540099999,4.858807523885715,7.069679061333333,17.485290982380953
2.093698617,-0.27661589039571416,2.6573091742666675,9.957147558142857,20.24479934809524
2.098620771,0.11732772309952394,-1.090809498971428,13.362101401428571,24.390725235238094
2.103543154,0.6183444762138096,-4.902822625590476,16.80814809442857,28.61435549666667
2.108465386,1.2161745562471429,-8.703685255828569,19.06951691409524,32.11651537857143
2.11338754,1.6436842586519047,-12.495732938257142,20.07936414642857,35.10479214523809
2.118309923,1.9372547260804764,-16.140510236209522,20.579827155333334,37.850506288571424
2.123232156,2.396682889128096,-18.816567188685713,18.527823499190475,40.61405672761905
2.128154538,2.4778934626614286,-20.61643536373333,14.823471847047617,44.31759401952381
2.133076738,2.496073844351905,-21.863054270495237,12.455715480238094,46.58608123095238
2.137998967,2.589115040094762,-22.749600950399998,11.525989606333335,47.39755113952381
2.142921428,2.732181464770952,-23.40871917130476,11.038765481809524,47.743782790476196
2.147843584,2.8902118881661907,-23.8835900234,10.83745343947619,47.809564297095235
2.152765967,3.059484845609524,-24.195746778709523,10.799954011714286,47.747138625333335
2.1576882,3.1955947540476197,-24.25366250032857,10.743355779809523,47.79090715014286
2.162610339,3.350277611666667,-24.153764014423807,10.514053164190475,47.97234970066667
2.167532493,3.4637501358190472,-23.862091688071427,9.848278092190476,47.94166485376191
2.17245491,3.7126906547476195,-23.38854140245238,8.450985841619048,47.25439139895238
2.177377143,3.994460708128572,-22.91611730402381,6.3559635037142845,45.96192044561905
2.182299544,4.2053152242904766,-22.418751454642855,3.82996132347619,44.27507776514286
2.1872217,4.298063934366668,-21.86994829545238,0.9813302364761899,42.22208184228572
2.192143929,4.197535365619048,-21.14235557740476,-1.8282431641904768,40.092754845047615
2.197066314,3.8136049272809527,-18.987564063214286,-4.6882390400952385,37.278160656428575
2.20198847,3.3757618379685717,-15.288755847119045,-8.009292113809526,33.054715988333335
2.206910929,2.848443800225714,-11.520586080642856,-11.31572395795238,28.74363574942857
2.211833166,2.239764147830476,-7.755842321071428,-13.373779259490474,25.15081144852381
2.21675532,1.8193894478304762,-3.9910977439285706,-14.116814868342855,22.076845018666667
2.221677702,1.5567657403542856,-0.36543889121428513,-14.303023292485715,19.253994334333335
2.226599873,1.1552675813542856,2.299562205738096,-11.909490295390476,16.421371393666668
2.231522102,1.148851385401905,4.107240564738096,-7.855013693771429,12.66396744957143
2.236444282,1.22642914664,5.385374502119048,-5.154522080842857,10.360695484619047
2.241366664,1.2663968538780952,6.329881964738097,-3.9413891538571435,9.541549765095239
2.246288916,1.2685100031638097,7.074992544404763,-3.2157513264285713,9.21530276747619
2.25121107,1.2487632000685716,7.680061194071429,-2.8210880039523807,9.211420868428572
2.256133453,1.21993295564,8.18027877804762,-2.629243063761905,9.385053341952382
2.261055691,1.2278029031638096,8.594115529714285,-2.5535004443809526,9.648059305523809
2.265978073,1.273464477497143,8.92301627547619,-2.539646167809524,9.918935150619049
2.270900306,1.3538523366304762,9.18305110909524,-2.5226013511428573,10.139659835142856
2.275822684,1.4859680924161904,9.398674942095239,-2.4730097644285713,10.304510642333334
2.280744916,1.6491454747971428,9.590016501333334,-2.391924377714286,10.428668151380952
2.28566707,1.8045770888257142,9.760314578142857,-2.307415368285714,10.538104754714286
2.290589429,1.9447148066542856,9.924555642095239,-2.2492287463809526,10.664582642333333
2.295511585,2.0916460397828573,10.086096899571428,-2.247964128809524,10.824328885761904
2.300433837,2.249567710930476,10.252957707285715,-2.3058753772380953,11.018131837238096
2.305356222,2.406770618195238,10.417650994523811,-2.4030686183809524,11.225114029142858
2.310278684,2.547911286366667,10.571569941857144,-2.5375531535714284,11.430738460428572
2.315200834,2.6700004736666667,10.717437652761905,-2.718790723461905,11.631803038476189
2.320122988,2.773890381761905,10.852399008,-2.950153205371429,11.819870962619047
2.325045142,2.848175854904762,10.976752144333332,-3.2201292592761908,11.990700469809523
2.329967376,2.8891554673333335,11.088053021666667,-3.5030551091333333,12.139840257142856
2.334889838,2.904814186571429,11.173977896952382,-3.770471767990476,12.255075748380953
2.339811993,2.8928346179999997,11.237892105285715,-4.009678243871429,12.344761844285713
2.344734356,2.8459923835238095,11.280002866190477,-4.203373630809525,12.409402353333332
2.349656589,2.7863645213333337,11.305338450952382,-4.36386691952381,12.457624704285715
2.354578743,2.7217389969523813,11.311985833333333,-4.489232778523809,12.485731064285714
2.359501163,2.661184572047619,11.29862204047619,-4.577451444809524,12.490832034285713
2.364423319,2.603543190714286,11.266675358571428,-4.631883575809523,12.471923411904763
2.369345468,2.554503230809524,11.221934137142856,-4.6562291327142855,12.434098082380952
2.374267622,2.507396419809524,11.164412271904762,-4.6657483691428565,12.380185481904762
2.379190081,2.452975710190476,11.10065473857143,-4.6845521927142855,12.324655671428573
2.384112252,2.3851085645285712,11.036041032857144,-4.7096998578095235,12.27013587095238
2.389034635,2.3039580441190473,10.97029508857143,-4.7487912405238095,12.219695743809522
2.393956868,2.2082029921285717,10.904490607142858,-4.809921718809524,12.177206117142859
2.398879235,2.092517045266667,10.83827491047619,-4.884526638809524,12.137057713333334
2.403801468,1.9616613260285716,10.775317282857143,-4.977111067142857,12.105357207619047
2.408723851,1.8206038943285716,10.713353475238096,-5.07983069195238,12.077116777142857
2.413645997,1.6748290359809526,10.651593526666668,-5.179138297142858,12.045360867142858
2.418568151,1.5277975166000002,10.583796637952382,-5.268622875238096,12.002629700952381
2.423490347,1.381256415714286,10.508851642285714,-5.347659451666667,11.948253472380953
2.428412732,1.239652277447619,10.429545993476191,-5.411691688380952,11.884708931904763
2.433334869,1.1035481393380953,10.350862775952383,-5.474025976142857,11.822817670000001
2.438257097,0.9687160909742858,10.278525171142858,-5.5512814521904765,11.774447833809525
2.443179482,0.8452678035219047,10.201937857333334,-5.620649496714286,11.720698185238096
2.448101705,0.7376038031028572,10.126559167000002,-5.680588358952381,11.667449926666668
2.453023859,0.6439605195457143,10.04989637661905,-5.733711583333333,11.61386771952381
2.457946241,0.5650241371457143,9.971763792619047,-5.780750115761905,11.559458613333334
2.462868708,0.4923997539171429,9.894411677571428,-5.815587974761905,11.50181329142857
2.467790864,0.42833242211714295,9.819232986380953,-5.831540516476191,11.438543415714285
2.472713094,0.37742828153142866,9.738546553190478,-5.831989719809523,11.364420710952382
2.477635328,0.3363326145980953,9.64912514447619,-5.827418395476191,11.281431725095239
2.482557253,0.30457671022666677,9.546438217142859,-5.800525529047619,11.177166812761905
2.487479713,0.29116561689809534,9.424498172000002,-5.756016436095238,11.04881825404762
2.492401888,0.2910292840457143,9.295456046333335,-5.696879614,10.90796527457143
2.49732427,0.2901302388028572,9.151641868714286,-5.616320087809524,10.743373449238096
2.502246551,0.2896643816742858,9.002348150809524,-5.526591732380952,10.569317551857143
2.507168705,0.27741823913285724,8.826926731190477,-5.407093956333333,10.357079016428571
2.512091087,0.23827938274238103,8.589374451523812,-5.172323425619048,10.040538844809523
2.5170133,0.10909766280428577,8.322388194952381,-4.75963995,9.737523818047618
2.521935454,-0.07200667152904754,7.989343961190477,-3.891060221904762,9.800499285666668
2.526857914,-0.2610272888814285,7.634473914333333,-2.509055779,10.379896192809523
2.531780323,-0.427312055805238,7.223965082976191,-0.6166682527619045,11.480760436142857
2.536702556,-0.4664926269290476,6.79034163424762,1.4588489020476192,12.764078272809524
2.54162471,-0.2359590998033332,6.006376455342858,3.4739382777142858,14.03160720804762
2.546546859,0.28542645126809535,3.309313690580953,5.754098727571428,16.592743883285713
2.551469241,0.935003018734762,-0.47179839003809476,8.440315036428572,20.270701647095237
2.556391397,1.8067890495776189,-4.247886922990476,10.957414212571429,23.893622225666668
2.561313626,2.6425272076442856,-8.014687167561904,12.628510605809524,27.112233900904762
2.566235782,3.28463859473,-11.773689807752381,13.306031879999999,30.039758324714285
2.571158241,3.788519744577619,-15.189715605133333,12.857369508380952,32.670534928047616
2.57608044,4.312641355306191,-17.567614820514287,10.785782695142856,35.275153354714284
2.581002823,4.575645784572857,-19.159084948466663,8.434499939428571,37.671346489142856
2.585925056,4.693130447801429,-20.277706047800002,6.971150120428571,39.067543180047615
2.590847452,4.785800212934762,-21.108824699609524,6.297643996619046,39.64327280114286
2.595769685,4.919732022863333,-21.78019827127619,6.475565127190475,39.54945953485714
2.600692068,5.053567452096667,-22.348295022561903,6.904672361761904,39.46019651971429
2.605614277,5.137040686039524,-22.831836397657142,7.299407493714284,39.289628931428574
2.610536353,5.153758780585714,-23.2138391998,7.547967246809523,38.99524630161905
2.615458577,5.107064447961905,-23.461057670985717,7.575226290095237,38.81913734771429
2.620381039,5.022935114438095,-23.59116857627143,7.318826329333333,38.815952325
2.625303423,4.952665404914286,-23.575964203414287,6.512801664619047,38.56410749166666
2.630225589,4.9091333172,-23.485202632747615,5.124041143095237,37.85652263038095
2.635147743,4.881421460247619,-23.294879399152382,3.184502437285713,36.66138060038095
2.640069972,4.777871701671429,-23.054192348185715,1.0964008913809518,35.25742138147619
2.644992386,4.467652748719048,-22.453102734423812,-0.8781338700000005,33.825977053809524
2.649914541,3.9289332452047625,-19.92912107251905,-3.08170380452381,31.07798029447619
2.654837001,3.3079136291904763,-16.316403784566667,-5.650444002,27.19759677604762
2.659759243,2.495315979904762,-12.702970809519048,-7.9999915243809525,23.36219746138095
2.664681397,1.7433871053333334,-9.093594674233332,-9.451573048095238,19.92924888952381
2.669603779,1.206488912619048,-5.483496085185713,-9.864838605079049,16.79968273852381
2.674526022,0.8232126205714287,-2.2040629484714276,-9.12624546123619,13.990974268952382
2.679448176,0.42908338985714306,0.061566888052381696,-6.754559689521905,11.242459463142856
2.68437052,0.3030915345238097,1.5783712198142865,-4.107050738902858,8.739579183952381
2.689292752,0.3453029195238097,2.6684307497666673,-2.3895384962409527,7.287918007380953
2.694214906,0.4078845381904763,3.522114766385715,-1.5075016512171429,6.707855079619048
2.699137433,0.4120186823333335,4.254602013480953,-1.5097313134076191,6.831689615476191
2.704059589,0.4162363524285716,4.9237640825761915,-1.8013002170742858,6.994149825000001
2.708981797,0.4765170274285716,5.534802676528572,-2.093258219931429,7.270345115428571
2.713904182,0.6238935051380954,6.092039796385715,-2.2925062670266665,7.732989805428572
2.718826415,0.8634830259952382,6.599673390095239,-2.410433642312381,8.208434061428571
2.723748783,1.224005602757143,7.045041503857143,-2.447695491693333,8.528048659
2.728671016,1.6130092655666668,7.433232329666668,-2.41505396736,8.757670885190477
2.73359317,1.9631146874714287,7.786285785809525,-2.3371770589314287,8.94871610552381
2.738515319,2.2650112141857144,8.112725234761907,-2.226646773312381,9.12361371695238
2.743437702,2.516902350328572,8.421828156238096,-2.165980916074286,9.339257263952382
2.748359911,2.719538915804762,8.724605605714286,-2.1476686435028576,9.598617642095238
2.753282065,2.8777270062238096,9.020677952380954,-2.1470913980742856,9.883376521428572
2.758204448,3.0090935344285716,9.311750638714287,-2.1612051648838095,10.181838317476192
2.763126686,3.123877059904762,9.594553538428572,-2.2021119688361903,10.485291345
2.768049068,3.23167654452381,9.869307290761906,-2.293622832407619,10.793040982571428
2.772971224,3.3307635898571433,10.133136454095238,-2.4401250212333334,11.093425082142858
2.777893457,3.42459559447619,10.380478268809524,-2.6343032136,11.377554579333333
2.782815918,3.5091099399523813,10.605367501809525,-2.866097599266667,11.640009568476192
2.787738303,3.587851070333333,10.798805305285715,-3.1096388966952384,11.876570223380952
2.79266044,3.637681155095238,10.954101335809524,-3.3263646534047617,12.073239106619047
2.797582671,3.6790560655238096,11.073198772809524,-3.527338413904762,12.241564530571427
2.802504806,3.7323411647142857,11.154845601142858,-3.7172199430476187,12.385023296666667
2.807426959,3.7931549322857143,11.205863090000001,-3.900579077857143,12.50794419809524
2.812349337,3.8492090702857147,11.238741011904763,-4.076228891095238,12.61662706952381
2.81727157,3.893581640238095,11.255459422380952,-4.2324412663809525,12.704506704285714
2.822193724,3.9327755996666673,11.261320795714287,-4.3746969245714284,12.778814093333333
2.827116111,3.9681608336666665,11.258467901904762,-4.512512354619047,12.84346778952381
2.832038344,4.002387217142857,11.249749456666668,-4.6421244598571425,12.899062144761904
2.836960498,4.042235930761905,11.24568189952381,-4.758229811952381,12.954056014285714
2.841882895,4.0830415998095235,11.234749385714286,-4.871791010761905,13.000906313809523
2.846805356,4.112562599619047,11.21581667952381,-4.954048713,13.02474017095238
2.851727589,4.125748361857143,11.183406875238095,-5.023871887238095,13.026665182380953
2.856649729,4.112680219476191,11.138038271904762,-5.104599986714287,13.013077650476188
2.861572111,4.069407553904762,11.082104001904762,-5.192797547238095,12.982048430476192
2.866494267,4.003552357333334,11.01982679857143,-5.2789339678095235,12.93569137095238
2.871416467,3.912372872952381,10.951866922142857,-5.348803622285715,12.87052842809524
2.876338623,3.8079714888571425,10.880454563,-5.399740094095239,12.791620440952382
2.881261016,3.69226215,10.805297624333335,-5.434236197142857,12.700704132857144
2.886183248,3.5704403264285713,10.725014913476192,-5.449050471809524,12.597676462380955
2.891105631,3.4408902894761906,10.64297884957143,-5.4521323611904755,12.487520505714285
2.896027897,3.3111345427142864,10.55672214109524,-5.447008655095238,12.371535618095239
2.900950051,3.182679914285714,10.460652396619048,-5.4222504297142855,12.240898781428571
2.905872204,3.053981241714286,10.363449187428571,-5.381486847190477,12.102958707380953
2.910794669,2.9227343740476193,10.263724644761904,-5.316724845238095,11.95218313
2.915717054,2.792524899714286,10.158371925333334,-5.2312537828095245,11.788116421047619
2.920639286,2.6698830921904766,10.04966386147619,-5.134884221142857,11.61864247752381
2.92556143,2.551564846666667,9.934021041333335,-5.0286712872857136,11.440249163428572
2.930483813,2.4442373740476193,9.807625588761905,-4.915237585619048,11.252759639333334
2.935406027,2.3512727532380957,9.66997010352381,-4.804823625571428,11.061131318428572
2.940328409,2.2810732750000002,9.504325866619048,-4.700229236,10.854223749238095
2.945250642,2.2230616523333335,9.314559709380953,-4.600594951952381,10.632545036333333
2.950172801,2.1622077963809523,9.103767735714285,-4.513763382285715,10.399069971190476
2.955094955,2.0924245118095235,8.890316509047619,-4.446790763285714,10.171551840714287
2.960017337,2.0231294233809525,8.684710389285714,-4.4018016088095235,9.962169335142857
2.96493957,1.9534160352380954,8.476841767761906,-4.375279517380952,9.760363580238096
2.969861724,1.8975605623809524,8.241106737142857,-4.318171909857143,9.519578464619046
2.974784107,1.8637096597619047,7.918961865476191,-4.101927154833333,9.159998413809523
2.979706525,1.833790376,7.553548631142858,-3.6320428727857137,8.941807108904763
2.984628681,1.79295371252381,7.077423135376191,-2.60747322502381,9.268965465095238
2.989550896,1.7983861933809526,6.556539841995239,-1.0716279678333334,10.122154279380952
2.994473278,1.9102135782380953,5.9953174363285715,0.903709696452381,11.427055487952382
2.999395511,2.151688865190476,5.4181803634714285,3.0142249729761907,12.890357046047619
3.004317665,2.5640833774761904,4.738563912233333,4.962431783547619,14.249477269857143
3.009239824,3.3197399205238094,2.5883352299952387,6.999775671785715,16.43634354247619
3.014162207,4.109848289,-1.1796366263857139,9.728636004738096,20.25954332842857
3.019084439,4.8469094091428575,-4.989792086004761,12.404087010785716,24.080393081190476
3.024006607,5.255436232904762,-8.791128147385715,14.096903086452382,27.356900752809523
3.02892899,5.436384859333333,-12.58410693343333,14.605284226119048,30.307402371190477
3.033851223,5.515253100904762,-16.22250705657619,14.554058859071429,33.09710471052381
3.03877362,5.535940153095238,-19.01369638657619,13.76630016797619,35.23446517904762
3.043695853,5.237287288476191,-20.89403451062381,10.659631400738096,38.43655157252381
3.048618236,4.828105296285715,-22.069538105290476,7.709842671404761,41.29052639542857
3.053540358,4.5894452559523815,-22.84180451595714,6.809025322642857,42.09080232247619
3.058462511,4.529506876976191,-23.436530419957144,6.820321322452382,42.039087028714285
3.06338474,4.479464065357143,-23.984584433909525,6.782371260833334,42.00180376980952
3.068307125,4.398244020366667,-24.48204922695714,6.6895737316904755,42.00431371999999
3.073229387,4.243968546271428,-24.872008902861904,6.4366986306904765,42.14751382947619
3.07815154,4.008903398271428,-25.08542714252857,5.928979169809524,42.50509627266666
3.083073923,3.7246062045095245,-25.163229718304766,5.1999950409523805,42.70711265138095
3.087996137,3.4154503997476193,-25.028360909157144,3.992959067904762,42.335481585857146
3.092918519,3.0977689282238097,-24.783987195919046,2.3238618030952383,41.407249685761904
3.097840675,2.7153168263190475,-24.466559912680953,0.24112869419047622,40.009474077190475
3.102763144,2.260290869557143,-24.106114924157144,-1.9724475317619048,38.448865529857144
3.1076853,1.6831336899857143,-23.61845767234762,-4.00853976752381,36.9882032437619
3.112607531,0.7911099110761907,-21.644232082919046,-6.085834049238096,34.672536574714286
3.117529899,-0.12072307713333316,-18.03760373291905,-8.874721254904761,30.74466634957143
3.122452055,-0.9570522470047617,-14.376449417490475,-11.581234069190476,26.808814544809522
3.127374204,-1.438113453090476,-10.718054717490475,-13.252011855380951,23.389676035333334
3.132296433,-1.6669896010238094,-7.055146027395237,-13.674754937428572,20.27906674966667
3.137218817,-1.771592602071428,-3.5334289105380945,-13.484710034809522,17.327776156190478
3.142141069,-1.8010333683571427,-0.8344616126333325,-12.524366685128571,15.04832376304762
3.147063223,-1.5045262709285712,0.9976987014619054,-9.234823439833333,11.743715387095238
3.151985606,-1.0627446592619045,2.173193327033334,-6.120841517404761,8.843674693238095
3.156907804,-0.7295486664047617,2.988475671842858,-5.080804413404762,8.061941479857142
3.161830187,-0.5481794192380951,3.654956144938096,-4.971443900214285,8.167679254476191
3.166752406,-0.37860331857142837,4.31020476422381,-4.835148377261905,8.290944846380953
3.171674788,-0.1812637980095236,4.960746001652382,-4.677021659738095,8.420516351095237
3.176597021,0.06817334680000021,5.567434614604762,-4.439286320166666,8.495380739619046
3.181519213,0.37195549199047645,6.112310764271429,-4.148222943166666,8.514272638190477
3.186441367,0.7135548768952382,6.589079834000001,-3.942859147309523,8.588477859619047
3.191363755,1.0840185319904765,6.983666170238096,-3.857002187404762,8.72620854895238
3.196285988,1.413180005657143,7.327244713142859,-3.8577238464047614,8.924575419523809
3.201208147,1.701027149895238,7.646413439952382,-3.9084647923095237,9.161556377619046
3.20613053,1.934373146657143,7.9522751627619055,-3.9656840251666656,9.416781862571428
3.211052763,2.1262992399904763,8.248925231904762,-4.018809066071428,9.68100091152381
3.215974916,2.3046652879952383,8.538815293904763,-4.0852266239285715,9.965902214380952
3.220897299,2.4953122855380956,8.816304070571428,-4.104034511976191,10.222001357619048
3.225819537,2.682781046314286,9.085316862285715,-4.130686325880951,10.48765476
3.230741919,2.855070619304762,9.349465460857143,-4.19652723997619,10.779632113761904
3.235664152,3.006566677714286,9.599052292666666,-4.322378814357142,11.087034757523808
3.240586511,3.134992338285714,9.826659247714288,-4.511410142833332,11.392400396238097
3.245508744,3.2473855244761904,10.025161061714286,-4.734555866180952,11.675087010809523
3.250430925,3.3469224770000006,10.189370563809526,-4.966118142857143,11.92475546152381
3.255353308,3.4055935200476193,10.324298653952383,-5.18115162295238,12.133141225380951
3.260275541,3.4131500947619053,10.439234642523811,-5.396159490095237,12.309995958761906
3.265197709,3.410337414047619,10.533187684380954,-5.598498639714285,12.463633638857143
3.270119863,3.406781548523809,10.597610927380954,-5.7842293921904755,12.59091308904762
3.27504224,3.404898359666667,10.631008056904761,-5.952644348238095,12.690719956666666
3.279964473,3.402016446714286,10.637566520619048,-6.101490497714286,12.763465355714285
3.284886856,3.3946412631428577,10.62488692109524,-6.233927091047618,12.815134103809525
3.289809102,3.3861409709999997,10.591340428047621,-6.3357225146190475,12.83833873952381
3.294731485,3.3741055898095245,10.548323585428571,-6.405649139809523,12.839007264761904
3.299653718,3.356724057952381,10.503879864666667,-6.439575422380952,12.819174986666667
3.304575844,3.332859868190477,10.454973992285716,-6.452635083904761,12.783857397142857
3.309498226,3.3016486793333337,10.399436677666667,-6.457957086095237,12.737613729523808
3.314420459,3.257353584095239,10.336739584904763,-6.479837758190475,12.692572203809524
3.319342622,3.191499869142857,10.265880856809524,-6.534001713714285,12.653648338095238
3.324264776,3.0976392996666666,10.189905892809525,-6.616293861761905,12.617754708571429
3.329187235,2.9827893973333337,10.102277482857144,-6.709264255714285,12.571130225714288
3.33410941,2.8540140164285717,10.001600174333333,-6.801709856333334,12.507840184285715
3.339031564,2.7239524808095243,9.891616412380952,-6.884861991571428,12.431209552857142
3.343953928,2.591429057666667,9.784323283380953,-6.943796657428571,12.34503759095238
3.34887616,2.45371305952381,9.677862712095239,-6.994339261761904,12.254529318571429
3.353798543,2.311770399476191,9.568187668000002,-7.0396320706666655,12.158045063809524
3.358721039,2.170295408857143,9.45563566104762,-7.081529730857143,12.058410836666667
3.363643195,2.0319246451428574,9.339010397380955,-7.09994595395238,11.94521185904762
3.368565425,1.8953151760000002,9.22070480504762,-7.111073902714286,11.82786838809524
3.373487588,1.7657122271904764,9.098592894380952,-7.111871106333332,11.705326583333333
3.378409742,1.6450935630857146,8.973554792904762,-7.100442341428571,11.577289142857143
3.383332125,1.5372899969619052,8.846267813761905,-7.0797699065714275,11.446544706000001
3.38825428,1.441016327804762,8.71666274757143,-7.047998383,11.311259457190477
3.39317652,1.352357095214286,8.58607251304762,-7.002586296714285,11.169503039999999
3.398098905,1.270173910119048,8.446833928428573,-6.94409152447619,11.015213503809523
3.403021138,1.1948245820714287,8.294122832142858,-6.879848639285713,10.848902902761905
3.407943292,1.1275439148904762,8.129202592904763,-6.807065305333333,10.670096465809523
3.412865674,1.0851771519285716,7.946481613857143,-6.74474050895238,10.488519138619049
3.417787921,1.058459489119048,7.747853869476191,-6.681212697809523,10.297574601380953
3.422710381,1.0367384893571432,7.544691994047619,-6.611554986047618,10.100262794714286
3.427632766,1.0106323474952383,7.3345768110476195,-6.529177847428572,9.889185935095238
3.432554902,0.972469727204762,7.095694110476191,-6.413193225904761,9.633549932142857
3.437477133,0.888291009857143,6.804664804761906,-6.188299190476189,9.26418898895238
3.44239952,0.680325533714286,6.505141780428572,-5.802067387714286,8.92521775495238
3.447321676,0.29542220495238114,6.13231948154762,-4.996078576285714,8.99326230352381
3.452243905,-0.28924570471428546,5.733264188975239,-3.6970307201904755,9.599559878761905
3.457166061,-0.849092537428571,5.31391274178,-1.9697219246666662,10.596903782095238
3.462088444,-1.2579811101904759,4.911622616094287,-0.24584544823809465,11.554058971142856
3.467010656,-1.4062262971904758,4.278408528380001,1.296739743238096,12.325148666857144
3.47193281,-1.301939155380952,1.9958282664276192,3.0010494112380957,14.215502389714285
3.476854964,-1.0963084045238092,-1.781680514810476,5.349137834857144,17.72448775352381
3.481777654,-0.4397334146571425,-5.583148047143809,7.742397155761905,21.33841577352381
3.48669981,0.5134866064666671,-9.370362440048572,9.29506611309524,24.659717341333334
3.491622041,1.2547159332428577,-13.145383493381907,9.943818984142856,27.73329702871429
3.49654441,1.791490469214286,-16.494015283905714,10.169557793380953,30.34653901019048
3.501466565,2.243231421119048,-18.97258549523905,9.753428999,32.22238578447619
3.506388724,2.5601009836904765,-20.81158342676286,8.741730071619047,33.826506526476194
3.511310953,2.658352122109524,-22.17458404657238,7.453656781619049,35.31338190390476
3.516233328,2.586122265576191,-23.145464305286666,6.291613482428572,36.514084473
3.521155561,2.4948477883809526,-23.851880844048573,5.535302383857144,37.2541651497619
3.5260777,2.4388318825,-24.428129989334284,5.111156072428573,37.64516786071428
3.531000083,2.4789038808380957,-24.950771421048575,5.391397737955192,37.562908078190475
3.535922316,2.6135127371285716,-25.45423076114381,6.126152936193287,37.85209733685714
3.540844722,2.7983876889523813,-25.901519194858093,6.50149002600281,38.10774407019048
3.545766878,3.057269167047619,-26.306272187334283,6.435989501231383,38.22530905761904
3.550689338,3.4141272559,-26.575754195405715,5.722145065564715,37.967689205619045
3.555611489,3.8766989279000006,-26.739718768880955,4.362303491755191,37.26808631242857
3.560533719,4.192636946614286,-26.77607153387619,2.4863483642790007,36.272762479095235
3.565456102,4.3591833708523815,-26.743764248238097,0.6157336311361435,35.31670289909524
3.57037833,4.304109076423809,-26.42579368285714,-1.0550335628162375,34.522758207095244
3.575300484,4.032663597709524,-24.41687704957143,-2.8716242354352848,32.59549593980952
3.580222871,3.7163723222333336,-20.889408595142857,-5.307091365292428,29.02455759933334
3.585145027,2.998068521390476,-17.32616895247619,-7.762948778387666,25.327409729095237
3.590067256,2.029149309514286,-13.761804848238095,-9.34547839114957,21.901636398095235
3.594989396,1.3019205035619048,-10.192310952904762,-9.984689251101953,18.700224619857142
3.599911778,0.8033247265619049,-7.027292508095239,-10.178212056387666,15.955024454571427
3.60483424,0.41098167646666683,-4.700412155428571,-9.718151232816238,13.959004184714285
3.609756401,0.16962625732380968,-2.975110708238095,-8.657511442482903,12.257128899714287
3.614678632,0.17021226746666682,-1.6934105059999998,-7.309834529530524,10.693374135190476
3.619601014,0.36108727262857154,-0.763950093952381,-6.095997927530523,9.460066359857143
3.62452317,0.5950397949190477,-0.05518722119047615,-5.269054053292429,8.718409510619049
3.629445399,0.8228030844190479,0.5553315976190476,-4.789168225578143,8.370183956000002
3.634367565,0.9777276587523812,1.1501936045714285,-5.038036753580952,8.545256173285715
3.639290024,1.0638581869428574,1.7843894546190475,-5.794163793247618,8.430823455190476
3.644212179,1.155965278609524,2.445025084952381,-6.328552630628572,8.506424103142857
3.649134333,1.3032231402285714,3.098859087333333,-6.60754535304762,8.726200641619048
3.654056707,1.5309106182809524,3.710090527952381,-6.679444698999999,8.94007972647619
3.658978939,1.848664290852381,4.260729930238095,-6.6132215544761905,9.077234546333333
3.663901322,2.278862619661905,4.721460596428572,-6.47371351147619,9.135871693952382
3.668823497,2.701988851709524,5.112340529761904,-6.351170676095237,9.212973004904761
3.673745726,3.075479616709524,5.463244455238095,-6.26884657995238,9.333543087857143
3.67866811,3.409457804185714,5.790422087666666,-6.222263336142857,9.49191250752381
3.683590343,3.682458895995238,6.109510387714285,-6.220443044380953,9.696656910380952
3.688512726,3.909956707838095,6.430470795904762,-6.252976871666665,9.939600474428572
3.693434959,4.107972990904762,6.746214844,-6.327191171190476,10.22247044495238
3.698357122,4.286040748857142,7.0515739918571425,-6.445318812428571,10.539670668904762
3.703279276,4.435941043333334,7.339645669666667,-6.588423887904761,10.863785410857142
3.708201654,4.567894288428572,7.60549138852381,-6.75030140652381,11.187315439285713
3.713123887,4.688000713047619,7.84386598504762,-6.934270041380951,11.507330314761905
3.718046041,4.781466620285714,8.061817373619046,-7.1264924549523805,11.81169539595238
3.722968442,4.830464862619048,8.266047386952382,-7.316784836047619,12.089391163666667
3.727890675,4.835984434380952,8.436386539904763,-7.515434174380952,12.331238781
3.732813058,4.810415245190477,8.57947036204762,-7.700080826238095,12.53184214895238
3.737735222,4.7608621006666665,8.698517095571429,-7.877495561380952,12.702375953809524
3.742657682,4.6925766240952385,8.795622280761904,-8.042088122666666,12.843588544761904
3.747579838,4.606367917285715,8.87291515447619,-8.192981424857143,12.957578163333332
3.752502045,4.497696433761905,8.931724525666667,-8.331765265761906,13.045573779047619
3.757424427,4.375724622190477,8.977470534238094,-8.465282508380952,13.119955075714286
3.762346569,4.2453455698095235,9.007644108428572,-8.596005326285715,13.183164596666664
3.767268798,4.1106037639999995,9.024519829619047,-8.704640978904761,13.225121118095238
3.772191182,3.9660524868571434,9.023545219857143,-8.795722507333332,13.24437171
3.777113352,3.8192385379047624,9.006092707380953,-8.855350835,13.234265185238097
3.782035581,3.667673207571429,8.962485608666666,-8.890221641190475,13.190682616666667
3.786957966,3.511155543,8.89491560352381,-8.88797950742857,13.106993573809524
3.791880137,3.350616398428572,8.808680943142857,-8.864055724380952,12.99473794952381
3.796802365,3.166038354347619,8.705889611047619,-8.810157526142856,12.844049553809525
3.80172475,2.969633170657143,8.589142890238096,-8.747472831190475,12.674830543333334
3.806647003,2.7786467842857143,8.461726302238095,-8.677882762190475,12.495827846619047
3.811569385,2.588274016404762,8.324179240666666,-8.604109514333333,12.307983203619047
3.816491618,2.394503352304762,8.176740442047619,-8.520259221380952,12.107361271857142
3.821413738,2.2034066774857144,8.022385188571429,-8.437941959904762,11.904921149142856
3.826335892,2.016612240361905,7.851318177809524,-8.341601349047618,11.68462914442857
3.831258246,1.839701241071429,7.677692458809523,-8.25398726690476,11.472161813571429
3.836180478,1.6639291886619048,7.498171783714286,-8.170002278809523,11.259633513571428
3.841102623,1.4944222357666668,7.313365368666666,-8.081435544142856,11.043263590333332
3.846025006,1.3315266613000003,7.126493204238095,-7.992933364142857,10.828657434047619
3.850947239,1.1763934685428572,6.936491148857143,-7.90061830338095,10.612419454095237
3.85586963,1.0368354228857146,6.743217014190476,-7.804050354714285,10.395766870809524
3.860791786,0.9119582333095241,6.545287336666668,-7.700222969047618,10.174888276714286
3.865714015,0.7997183282571431,6.345927647238096,-7.581031118142857,9.94501616804762
3.870636452,0.6988001416714288,6.143767788333333,-7.463457039476189,9.717022500761905
3.875558608,0.6136620474452382,5.939526648809523,-7.3417882465714275,9.487941499666666
3.880480991,0.5379129513026811,5.731583515857143,-7.225044591142857,9.262272178285714
3.885403195,0.46704509529458593,5.526065837809524,-7.106185118428571,9.038823998238096
3.890325349,0.4046429540517288,5.3210778804761905,-6.994047119571428,8.82320693347619
3.895247731,0.3396382873993478,5.109810272904762,-6.876392795999999,8.600672104857143
3.900169887,0.2786898573231573,4.891997746142857,-6.748321374333332,8.366830152809523
3.905092116,0.20985147385649067,4.6556432304761906,-6.559477760761904,8.074774516761906
3.910014272,0.12122204360887161,4.381334287842857,-6.2020271854,7.666784367380951
3.914936722,-0.032723998462556955,3.9922688689380954,-5.436469260495237,7.649413940952381
3.919859107,-0.25493476336255694,3.5827982653666672,-4.160519441780951,8.149021891285715
3.92478134,-0.5649960989244617,3.128801845461905,-2.3290841473999997,9.225735988761906
3.929703741,-0.910994184610176,2.6780834085571428,-0.25691713678095124,10.55392415204762
3.934625897,-1.1446997648435093,2.2593097801285715,1.5535977446952391,11.61401694052381
3.939548126,-1.0341435724816046,1.1233393240333331,3.078340075504763,12.670304445285714
3.944470287,-0.7817221990625569,-2.0926214512523806,5.0140174677904765,15.630166065190478
3.949392669,-0.4280037167387474,-5.869285640014286,7.210581347314287,19.226549654333333
3.954314829,0.12834178211363348,-9.630865130728571,9.092038744171429,22.70888028
3.959236983,0.7101490122469668,-13.375742582776192,10.014945324790476,25.920671562809524
3.964159227,1.170594811537443,-17.07255409991905,10.099269911742859,29.03841213214286
3.969081688,1.5429547110660147,-19.960149980585715,8.469485690885714,31.981601952238098
3.974003844,1.6132425191279194,-21.851359015157144,5.369609218838097,35.411531057619044
3.978926003,1.6355346140541098,-23.12406970172857,2.94522317164762,37.98183475919048
3.983848463,1.7080093261966671,-24.129180271966668,1.8337963412190486,39.26148901295238
3.988770619,1.8212947027761908,-24.9158497533,1.803901239933334,39.62413526300001
3.993693015,1.9843190324952384,-25.6283599305381,2.622085842552382,40.091374675857146
3.998615477,2.0846917953857145,-26.28942505487143,3.0797870715047626,40.354838031619046
4.003537633,2.0824332718000003,-26.858368407823804,3.1853596016952386,40.55855982838095
4.008459844,1.9766973255285718,-27.31154487787143,3.0094766491238096,40.88551361252381
4.013382227,1.772799945814286,-27.637723598904763,2.537820486285715,41.42649238338095
4.018304362,1.5309187910047621,-27.752678939047616,1.6144442214285724,41.63442741614286
4.023226516,1.388778992909524,-27.76800322509524,0.1982913580952388,41.28478296661905
4.028148773,1.4086142833857143,-27.685042369714285,-1.7225405038571422,40.27531050566667
4.033071158,1.5437439849095242,-27.562489747809526,-3.8341996447619033,38.93570500880952
4.037993415,1.6424414656238095,-27.442715934142857,-5.669719889523809,37.82692987190477
4.042915569,1.4481409389571431,-26.57702914871905,-7.221295595619047,36.717007872809525
4.047837951,1.147027041104762,-23.602804889061904,-9.173358611285712,33.69235491295238
4.052760199,0.7816483208495241,-20.040080520309523,-11.369057735238094,30.01765613480952
4.057682582,0.24068220190190492,-16.46554042192857,-13.245995374333333,26.46029480319048
4.062604815,-0.296009458002857,-12.88011883692857,-14.140475966285713,23.161554694428574
4.067527221,-0.6767023998123808,-9.312387371261904,-14.175528742619045,19.954836178857143
4.072449454,-0.9229701045266664,-6.517613349785715,-12.511881136238095,16.964745594666663
4.077371608,-0.8308724417647617,-4.6797475090714284,-9.385052533714283,13.524529218095237
4.082293767,-0.6699685366552378,-3.4237966722619047,-6.941757486285713,10.977160043666666
4.087216149,-0.5591805773219046,-2.387109184738095,-5.832222473238094,9.75938252257143
4.092138324,-0.49663891084571404,-1.5166874572619047,-5.8381603219999985,9.50799991604762
4.097060553,-0.4797748608457141,-0.6731868429285713,-6.726279497142857,9.204468323190477
4.101982938,-0.38702667298857124,0.15708199421428576,-7.279516299571427,9.14967291557143
4.106905093,-0.17393920791238074,0.9319752553571429,-7.520921389238094,9.212557949428572
4.111827247,0.17196959284952407,1.638660344261905,-7.561181386285712,9.249655613238096
4.11674963,0.6404293579923812,2.2852300731190476,-7.49193000790476,9.220897908476191
4.121671877,1.2103105928495241,2.8631433120238095,-7.3885498956666655,9.157640296095238
4.126594259,1.742579684659048,3.385667725642857,-7.307320867333332,9.150007329428572
4.131516492,2.1866560183733337,3.8790160857380958,-7.295561745095237,9.248819852761905
4.136438861,2.5413275420400003,4.351094988119048,-7.35257253195238,9.449832797714285
4.141361093,2.8192065985161907,4.809623353547619,-7.418964068095237,9.69422822509524
4.14628315,3.0424798871352383,5.2511692430285715,-7.475458644714284,9.94408829609524
4.151205379,3.2211850316542865,5.66532680532381,-7.529502005857141,10.193898628809524
4.15612775,3.364618647766667,6.051167783285714,-7.588698727809523,10.447969233619048
4.161049983,3.4854676497619046,6.405384716523809,-7.642614296571428,10.689594201904763
4.165972136,3.577382173,6.7232192754761915,-7.72000871390476,10.936112940666666
4.170894524,3.6393863588571427,6.999195507619047,-7.825585864857142,11.182589298142856
4.175816757,3.6520433994761907,7.232759895809524,-7.936476480380951,11.396607712809523
4.180738911,3.618435360238096,7.429017839,-8.055826050904761,11.58350091509524
4.18566137,3.5589647407619047,7.587664944809523,-8.184265522761903,11.747669934285714
4.190583755,3.4973809719999998,7.696832611476191,-8.302232333619045,11.878665477761905
4.195505988,3.4297304494761907,7.769157318857142,-8.395237377761903,11.972419384761904
4.200428113,3.358363162952381,7.799346015571429,-8.470036983523809,12.027847803809525
4.205350495,3.272049926619048,7.799920354619047,-8.539723918619046,12.057949871428573
4.210272728,3.162206604428571,7.7771110762380955,-8.606427419809522,12.066097332857144
4.215194872,3.0234224172380957,7.737258547904761,-8.669174330619047,12.054379266190475
4.220117026,2.871792696809524,7.682059719523809,-8.732192175761904,12.032490346666666
4.225039408,2.716850610047619,7.608720393476191,-8.798618135,12.00361752904762
4.229961656,2.5667097001428574,7.521444547809523,-8.863686152857142,11.968619654285714
4.234884039,2.430371315757143,7.417234284571428,-8.906935918904761,11.911865013333333
4.239806271,2.306759604461905,7.2962672824285715,-8.94023645495238,11.842488788095238
4.244728411,2.1821246942476193,7.166707152428573,-8.992741630238093,11.783236916190477
4.249650794,2.0581228818761907,7.029369127190476,-9.06625161847619,11.737218700952381
4.254573027,1.942080404109524,6.889347939285715,-9.163046019285714,11.711077814285714
4.259495419,1.8206553601238098,6.745988210047619,-9.273906662428569,11.694523116190476
4.264417652,1.7018698822809526,6.601419857571428,-9.381752150285713,11.674693096666667
4.269339791,1.5875251690238097,6.461810974857142,-9.475214958095236,11.647963536190478
4.274262174,1.4739059351476191,6.330161843952381,-9.54076594390476,11.604326235714286
4.279184315,1.3698967468000003,6.193887369952382,-9.578154972571427,11.540247507142857
4.284106544,1.2812775997761907,6.051618371666668,-9.59638509290476,11.46223923
4.289028972,1.1998442184333336,5.911074025285714,-9.598051388999998,11.37542277352381
4.293951128,1.1199751723238098,5.7752584502857145,-9.597127778142855,11.291721381761905
4.298873357,1.0552636526809527,5.629596551238095,-9.591430527761904,11.202736153761904
4.303795512,0.9921817495857145,5.485856181095238,-9.581423032809523,11.113765779714285
4.308717895,0.9340204625047621,5.347396407761904,-9.566871506761904,11.025982220714285
4.313640128,0.8816013676761907,5.209213063761904,-9.541141873285714,10.93157638947619
4.31856265,0.8394127970714287,5.067180304238096,-9.503628730761903,10.82805966742857
4.323484806,0.8042094650857146,4.921095076,-9.450862793666667,10.71096461757143
4.328407189,0.773840943961905,4.770054363000001,-9.388522102714283,10.584649132380953
4.333329335,0.7514303723857145,4.613741885952381,-9.328436397380951,10.45966060061905
4.338251489,0.7316808955857146,4.4536645070952385,-9.281272570285713,10.345310856142858
4.343173957,0.7105121811047621,4.29101255952381,-9.229291189238094,10.227200246238095
4.348096113,0.6830449444761907,4.1224912801428575,-9.163104647619045,10.095513465047619
4.353018349,0.6567303261428574,3.9409866105238103,-9.083486965761905,9.950252077333333
4.357940731,0.6468297079761907,3.7396733306190475,-9.00057106938095,9.801219249095238
4.362862887,0.6286654692190479,3.5202828418095233,-8.91813487090476,9.653293755047619
4.367785111,0.5867908036285716,3.2940815488047615,-8.843880789714284,9.515719596857142
4.372707496,0.47550975779047644,3.0256967302809525,-8.723353272476189,9.342652503666667
4.377629651,0.26339389952380976,2.6325523952333336,-8.368720838095237,9.084432301047618
4.382552111,-0.17584948241428547,2.0658586351380954,-7.455039308380951,9.304522404380952
4.387474344,-0.8975954559142855,1.5110929792809524,-5.9745453995714275,10.128107289142857
4.392396498,-1.726291156428571,0.9905133233285713,-3.9445174652380937,11.482165913238095
4.397318648,-2.4477350111285707,0.5265905048047619,-1.7815249425714275,12.91217162595238
4.40224103,-2.948754937438095,0.10560607770952381,0.12665674733333465,14.04055674490476
4.407163272,-3.127328656533333,-0.881631387004762,1.7795313761428586,15.076992505142854
4.412085655,-3.2522015113095235,-4.015218860814286,3.9065039381428592,18.049440751761907
4.417007902,-3.309025082833333,-7.823269742957143,6.642141148666669,21.927602876809527
4.421930056,-2.7928803757999994,-11.61734881971905,8.974626710952382,25.633143312190473
4.426852439,-1.9190471396714284,-15.398474740052382,10.28165779766667,29.040129217285713
4.431774667,-1.223870566880952,-19.16704954557619,10.857064519333335,32.29874729295238
4.436697049,-0.6254775948285711,-22.545169411480952,10.548394929714288,35.230271924238096
4.441619282,0.04636521592857164,-24.948276770861906,8.85023171552381,37.962431976333335
4.44654145,0.3837289301809526,-26.587661426480953,6.83359064352381,40.40620943623809
4.451463832,0.5459065439761907,-27.73395119524286,5.374574888095238,42.111884312190476
4.456386065,0.6307693999190478,-28.53587809195714,4.416953903857144,43.223352028
4.46130821,0.6904195911380955,-29.12899767895714,3.8054755979523818,43.94951281814286
4.466230593,0.7536112107857146,-29.58300598005238,3.495284307095239,44.36254487838095
4.471152763,0.8122774953809526,-29.934270493714287,3.420543670190477,44.53179916704762
4.476074991,0.8979137804619051,-30.159052916619046,3.4166737733333346,44.60305365247619
4.480997376,1.0170805917476193,-30.175893874095237,3.1873722412380965,44.722928972380956
4.485919609,1.2960231654142857,-29.91555531223809,2.3553340658571438,44.39585391514285
4.490841763,1.8354845169380956,-29.58611088539048,0.8825730479523821,43.536021509095235
4.49576415,2.482549691176191,-29.24073418098571,-1.2025060995714274,42.209443243857145
4.500686383,3.06792573822381,-28.92141084277143,-3.437534956714284,40.81893364338095
4.505608843,3.484206425090476,-28.631575423819044,-5.392095327238094,39.70149030971429
4.510530988,3.609286430133334,-27.766681011104758,-7.0240432988571415,38.610804365
4.515453371,3.6908802381000005,-24.7553403419619,-9.071400926380951,35.52670621290476
4.520375604,3.727720046838095,-21.068036929533335,-11.681282758714284,31.493321040809526
4.525297758,3.2128993860333335,-17.393919900733334,-13.840303750238093,27.58872437319048
4.53022014,2.3685280559857143,-13.727909790399998,-14.939599911571428,23.956285952666665
4.535142286,1.729414675414286,-10.054700940590475,-15.28686818642857,20.46692769104762
4.540064515,1.2069168510333335,-6.742478885685714,-14.730914445523808,17.30747570471429
4.544986671,0.6310714277476193,-4.371807624685714,-12.766876175666663,14.35649461895238
4.549909135,0.4149274790809525,-2.735561250114286,-10.474999405333332,11.71396391009524
4.55483152,0.4152410108904763,-1.5655968229714285,-8.759926489666665,9.85354689704762
4.559753676,0.5157913899380954,-0.7009019324476191,-7.5832043489047605,8.637273937380954
4.564675897,0.6263555367000001,0.0013101285047618543,-6.7733586970952375,7.831323499999999
4.569598279,0.7426588273666668,0.6140860446476191,-6.290595565476188,7.368415927904762
4.574520512,0.874373072061905,1.1671365172666666,-6.076298043809523,7.185040323999999
4.579442686,1.027034550314286,1.6702846643142857,-6.030635141142856,7.185963977
4.584365069,1.223261879457143,2.1207011384571426,-6.07031455490476,7.293431197333333
4.589287204,1.4681048742190477,2.503633182647619,-6.154536553761902,7.454667402666665
4.594209433,1.7301142564571428,2.8278407425619045,-6.25993114442857,7.634456016333333
4.599131589,2.005465826219048,3.1191865120142857,-6.359577485476189,7.810160083000001
4.604053972,2.2468189179333335,3.3904807397047616,-6.4657815635714275,8.000636282999999
4.608976209,2.4371321124,3.6595262175142858,-6.610558225904761,8.235547490952381
4.613898363,2.5988541154047624,3.927375117895238,-6.811372291428571,8.529179140428571
4.618820746,2.766776209866667,4.191989966752381,-7.046480644380952,8.861184132523809
4.623742979,2.938048254957143,4.454349784561905,-7.3098272482380935,9.22714366652381
4.628665361,3.1036157381904763,4.716786029714285,-7.604636340047617,9.627542467476191
4.633587599,3.2465416023333336,4.974012516714286,-7.946989116333333,10.066205656095239
4.638509982,3.363281783666667,5.213392127047619,-8.317856096142854,10.51677982247619
4.643432215,3.4582462992380956,5.432361125857144,-8.715157531809522,10.973466177857143
4.648354353,3.538712910285714,5.619407983,-9.123545998809524,11.415610725999999
4.653276507,3.594314143809523,5.779254322904762,-9.530204330571426,11.827598419619047
4.658198881,3.6106158097619048,5.9184564635238095,-9.922681195761903,12.199668952190477
4.663121114,3.602547906714286,6.036032835619047,-10.281321616523808,12.52768283995238
4.668043476,3.585272947952381,6.131461506809524,-10.610351653571426,12.823209457809526
4.672965632,3.5561047054285715,6.199289935,-10.905592986619046,13.079182877523811
4.677887861,3.51451879452381,6.238844167619047,-11.167015053047617,13.294484531428571
4.682810246,3.4673227922857146,6.247990244904762,-11.383918035666666,13.462349324761904
4.687732401,3.4166762714761902,6.227642831333334,-11.536867958999999,13.567924327142856
4.692654621,3.3698304209999996,6.180958066666666,-11.612529890476189,13.600816540000002
4.697577083,3.3147817111904763,6.1128635633809525,-11.594312258571426,13.544403383809524
4.702499239,3.234921052333333,6.02692822052381,-11.511903762380951,13.420508266190476
4.707421659,3.1397620041904766,5.923353081666667,-11.390465599904761,13.252496547142858
4.712343892,3.0434303794285715,5.799521605190476,-11.246382622095236,13.05605522809524
4.717266046,2.9463131881428573,5.659437520190476,-11.093409219952381,12.844503930952381
4.722188439,2.8320171889333334,5.511340811190476,-10.953687531095236,12.637545979380954
4.727110594,2.6931004296714285,5.357644660190476,-10.825970967190475,12.432752532904763
4.732032827,2.5362011392333335,5.200224751571429,-10.705548331285714,12.227916770333334
4.736954983,2.3738727512428572,5.037763027952381,-10.57152439242857,12.009169194190477
4.741877443,2.212459947357143,4.87269475352381,-10.427191960857142,11.781719880238095
4.746799827,2.048079189790476,4.697885660952381,-10.269614718523808,11.539406690809525
4.751721983,1.8697870969476196,4.5258866605714285,-10.109884125238093,11.294255560952381
4.756644152,1.6891124787380956,4.352896792619047,-9.954116184714284,11.052774804428571
4.761566611,1.5137410475857145,4.178813037476191,-9.795814695047618,10.81140457204762
4.766488844,1.3420808584619048,4.003596521619047,-9.628859065285713,10.563304499761905
4.771411227,1.1776577177142857,3.830121755619048,-9.466202871476188,10.323218031857143
4.77633346,1.0241946212290478,3.6618724323333334,-9.30772853980952,10.093484492190477
4.781255537,0.8867127170461906,3.4968765690476187,-9.151531990999999,9.871726199809524
4.78617777,0.7685804312604764,3.3361799603809525,-9.006118456047618,9.666609142333332
4.791100155,0.6710584797461907,3.180975857285714,-8.868490673,9.475088737047619
4.796022325,0.577368525731905,3.0298894814761907,-8.727567264,9.284160354952382
4.800944554,0.49016476196047637,2.8851582323333336,-8.592917124380952,9.103514014380952
4.805866938,0.40732709233190495,2.7450127601904764,-8.473304090095237,8.940952481761904
4.810789171,0.3235496675176192,2.607904814571429,-8.363875116666666,8.792152401714285
4.815711325,0.2364320494938097,2.4690571967142856,-8.261610803238094,8.653741086809523
4.820633708,0.156078712827143,2.3191468574047622,-8.178851241238092,8.53558896504762
4.82555594,0.08559728475095255,2.1635307180095236,-8.111535390285713,8.435789882428573
4.830478323,0.0006458556080954015,1.9892510977666669,-8.03630095442857,8.334293191619048
4.835400556,-0.09596786090619032,1.7618825216238094,-7.899375688523809,8.188164762809524
4.840322903,-0.21392900362999984,1.3847571335285713,-7.487528655566665,8.012408557
4.845245136,-0.4920432345061903,0.9586487391476191,-6.7336768331380945,8.105032473809525
4.85016729,-0.8756597699395237,0.49215840233809516,-5.465895484519046,8.673686131809523
4.855089454,-1.3503277731919046,0.037570170766666626,-3.699604411138094,9.729472599285714
4.860011836,-1.8510736630299998,-0.4127888785666667,-1.6011131059476174,11.115739401999999
4.864934069,-2.2556246581633332,-0.8409826975190475,0.4608491124809541,12.440590559142855
4.869856466,-2.4165566158014284,-1.575114873804762,2.2187155179571443,13.544733353809523
4.874778699,-2.390781045553809,-4.328831092804762,4.157198302242859,16.201461558380952
4.879700853,-2.321557187830476,-8.124048413804763,6.791500260100003,20.11634201995238
4.884623045,-1.9676439043142857,-11.912015062519048,9.31609102462381,23.990002895190475
4.889545505,-1.2866569881476189,-15.685824279900002,10.752212602052383,27.46811277314286
4.89446789,-0.7265822848714285,-19.445760805566668,11.26719211214762,30.775621943190476
4.899390026,-0.1385357839523809,-22.7018087129,9.805202754576193,34.085859838619044
4.904312257,0.474390682057143,-24.92450687937619,6.161588167338097,38.284864294904764
4.909234625,0.7739425805904764,-26.457091898519046,4.0906976273380975,40.752644819904766
4.914156781,1.0539573821666668,-27.590030936328567,3.4719688761952403,41.84167094995238
4.919078975,1.2877166690476192,-28.47741787699524,3.269290468290479,42.49615256438095
4.92400136,1.4404170960952383,-29.17599105482857,3.125406286528574,42.97897671328571
4.928923516,1.5313766649047622,-29.71462625967143,2.983146348147621,43.34903388652381
4.93384569,1.5857828082761907,-30.111199259666666,2.8234137793380976,43.65635622714286
4.938767919,1.5832657154666667,-30.35253363557143,2.622725349100002,43.94233599614286
4.94369038,1.4763256673714287,-30.35592739914286,2.1853998622857165,44.21845272666667
4.94861276,1.4536660931333334,-30.249007576857146,1.4471462461428592,44.20627765095238
4.953534993,1.4986590622761906,-30.03909376676191,0.25314800004762117,43.68223066738095
4.958457146,1.6158665894190478,-29.792316822666667,-1.4300520186666648,42.67459417047619
4.963379529,1.7689111993714288,-29.507930485847616,-3.466837280428569,41.34568919233334
4.968301762,1.852009338419048,-29.21458704828095,-5.461613211380951,40.056605050476186
4.973223892,1.7326099725142858,-28.586814869690475,-7.130558433238095,38.94774774014286
4.978146046,1.479475543061905,-25.92386641032381,-8.957219180047618,36.23892464538095
4.983068428,1.2430974466333335,-22.210089711209523,-11.46370782138095,32.229783272238095
4.987990632,0.7795768743476194,-18.495658629757145,-13.846396684142855,28.225706244999998
4.992913015,0.03711862753809547,-14.787883749266669,-15.115260816333333,24.579450851142855
4.997835247,-0.5363230751095236,-11.087035084766667,-15.447037287714284,21.080871412857142
5.00275741,-1.0857657181571427,-7.882211746919048,-13.806954973619046,17.58675694495238
5.007679793,-1.616421709490476,-5.6932166748714295,-10.007528531619046,13.23737864195238
5.012601949,-1.7924754151571427,-4.16846141834762,-7.813004152761904,10.666425276285715
5.017524413,-1.915557746395238,-3.001868661442858,-7.110158829190475,9.529793750095237
5.022446646,-1.977890365204762,-2.030034001966667,-6.865837959761903,8.882309687380953
5.027369029,-1.9686667451095237,-1.1942895868714292,-6.716460682047618,8.450326978428572
5.032291179,-1.9084223664904763,-0.4712546147285721,-6.60160591485714,8.17107806195238
5.037213333,-1.7972126560285713,0.16333671493809457,-6.523095403380951,8.010130878619046
5.042135558,-1.6181984671238094,0.7244921476999993,-6.494006974333333,7.951711492428571
5.047057943,-1.322354468552381,1.2276643409380943,-6.520056679142856,7.958144805761905
5.051980122,-0.9547714661714283,1.695572280557142,-6.590310096761904,7.998390841
5.05690235,-0.5457728065047618,2.1214343771285704,-6.719903991380952,8.085210969809523
5.061824735,-0.1082621911714284,2.5025649589380943,-6.865944589952379,8.177588875761906
5.066746891,0.3303821385428573,2.8483876139761897,-7.0088901972380935,8.280086183904762
5.07166935,0.7526312286857143,3.166160949028571,-7.160638877238093,8.409298930523809
5.076591506,1.1316287930190478,3.4536231771523793,-7.332617373619046,8.576419974666667
5.081513966,1.4734526547333335,3.7168043313571424,-7.505370435190475,8.77003806990476
5.086436122,1.771691034352381,3.9637924717666655,-7.680877367571427,8.993879981619049
5.091358352,2.0296291809238096,4.194601320219046,-7.874601750047619,9.256753061714287
5.096280697,2.256367230828572,4.41242726372857,-8.09743774495238,9.560754913666667
5.101202853,2.4411655211428576,4.615688985419046,-8.346298808047617,9.893284187666666
5.106125021,2.576366895809524,4.802970795523809,-8.602778389238093,10.224515229857143
5.11104748,2.6651153792380953,4.964780075333333,-8.848198254761904,10.52597087
5.115969655,2.7131036577619048,5.098162594380951,-9.08090652742857,10.79331108852381
5.120891809,2.727928422857143,5.18886049595238,-9.29473091290476,11.01871485947619
5.125814038,2.7297540393333333,5.234382777047618,-9.500036648047617,11.217773854095238
5.130736514,2.730612130476191,5.249237117333332,-9.69164412338095,11.394948063523808
5.13565867,2.726565224857143,5.235320068571427,-9.857710156761904,11.538339751428571
5.140581053,2.71920499352381,5.197327409476189,-10.005719956333333,11.656878587142858
5.145503267,2.7085154170476193,5.1396943046666665,-10.157013892666665,11.77083406047619
5.150425649,2.7040355660000004,5.066815171904762,-10.319085393333332,11.889417891904762
5.155347805,2.6980939933333334,4.982637518904761,-10.502672104523807,12.020812956190476
5.160270038,2.6856648013809528,4.895000843761904,-10.69634787238095,12.156597668571427
5.165192423,2.663750188666667,4.8129435947619035,-10.896097501285713,12.298178607142855
5.170114636,2.6308164255714286,4.737121173238095,-11.057270504619046,12.405004362857142
5.17503679,2.5842995245714286,4.647684687571427,-11.20123222938095,12.489562652857144
5.179958944,2.534277047380953,4.54577069042857,-11.346091270666665,12.571072973809525
5.184881365,2.468530615095238,4.4336500166666655,-11.47598084990476,12.632328603809523
5.189803597,2.390920570857143,4.308414969999999,-11.57529313285714,12.658042131904763
5.194725751,2.2998831895714287,4.172536361619047,-11.634001505238095,12.640892858095238
5.199648158,2.1948679003333336,4.0280547480952364,-11.657155809380951,12.58624953047619
5.20457062,2.085585372714286,3.8798432689047617,-11.65425741147619,12.50807739452381
5.209492775,1.9792868068571432,3.7302353153333327,-11.634257998190474,12.41769341338095
5.214415011,1.8784837551904763,3.580064608761904,-11.599425497952378,12.318420349142858
5.219337394,1.7822924738095236,3.427467374428571,-11.540363312047617,12.200778623809523
5.224259627,1.693104425952381,3.2780360890476183,-11.464713006285715,12.07382163990476
5.229181775,1.6054927137714285,3.1339241378380946,-11.362853459571427,11.927739054523808
5.234103929,1.5218636704571429,2.987717179909523,-11.235561961809523,11.760032077095238
5.239026308,1.4428818196190476,2.8374108897857133,-11.093289830142856,11.579627197380953
5.243948541,1.3707487695428573,2.6815420288571423,-10.926452410571427,11.377333348761905
5.248870923,1.3132160106380955,2.5132005554190466,-10.728804316666665,11.147218330000001
5.253793088,1.2683044330666666,2.321505931766666,-10.50391705895238,10.891317803190477
5.258715317,1.225058907495238,2.1001167856904757,-10.247708275619047,10.603776294761905
5.263637702,1.1753782913380952,1.8545776512380943,-9.96830122847619,10.290775178142857
5.268559882,1.1315950041428573,1.593223321219047,-9.670903660142855,9.959064402095239
5.273482342,1.0886517166714287,1.3060411320761898,-9.380245617523808,9.633472563380952
5.278404575,1.0484115254047621,1.0070257576476185,-9.076492922666665,9.305270894904762
5.283326719,1.0101402373047619,0.6931614357428565,-8.720165207476189,8.944181846714287
5.288249101,0.9729042861857143,0.3519500032666659,-8.248780330047618,8.538146241809525
5.293171334,0.8961542844428572,-0.07999371987619124,-7.438834110714285,8.375585436904762
5.298093498,0.7495809509666668,-0.5982168920190484,-6.04933503690476,8.843087457380951
5.303015657,0.5699216638238097,-1.1417500809714294,-4.1453781242380945,9.874388234047618
5.307938039,0.38242875958571443,-1.6917596949238103,-1.8944262208095224,11.284692427142856
5.312860272,0.27839909277619057,-2.188110460161906,0.1333285172857161,12.48926973304762
5.31778266,0.38276818249047634,-3.059729463542858,1.8048975696190492,13.543096050619047
5.322704816,0.678262523204762,-5.847586757638096,3.722577583238097,16.242775059285712
5.327627044,0.9080194859190478,-9.646227315495238,5.895458982238097,19.962100374619048
5.332549405,1.1834872591952383,-13.435284206761905,8.128747610761907,23.710026775238095
5.337471638,1.5377028272238096,-17.20724423802381,9.31338645157143,27.12280371933333
5.34239402,1.8341216728714285,-20.964787884138097,9.60355024104762,30.44978619666666
5.347316252,2.0734659149476196,-24.399627165638094,9.080145302428573,33.58714254052381
5.352238406,2.1781502507571426,-26.89748449058095,6.28648327661905,37.2340994402381
5.357160785,1.956941916804762,-28.472187524690472,2.9992555550952407,40.845113359904765
5.362082941,1.7729880582333335,-29.494920793138093,1.6361784822380971,42.498277584523805
5.367005149,1.750750771552381,-30.253864722638095,1.7992982297619062,42.945471878285716
5.371927534,1.748967150809524,-30.936935612380953,2.217990137380954,43.30625853147619
5.376849801,1.6980173417095241,-31.55256331552381,2.371897005000002,43.65783911304762
5.381771955,1.5974512951190478,-32.06603583838095,2.285894950333335,44.05385273438095
5.386694108,1.418882679314286,-32.46125841128571,2.0299912294285734,44.51161917019048
5.391616477,1.1535505808142859,-32.72833161119048,1.5766270729523826,45.06172361461905
5.39653871,0.8554863503666669,-32.79232935671428,0.7577557793333352,45.38462729809524
5.401461169,0.6613714836523811,-32.684198606476194,-0.6446768439999983,45.04850544952381
5.406383558,0.5534601580333334,-32.48868204285714,-2.561988875571427,44.11732894666667
5.411305791,0.5066305824619048,-32.236260663761904,-4.8118844711428554,42.76678894619048
5.416227945,0.4244332512238096,-32.002210707761904,-6.814911433333332,41.58183695609524
5.421150071,0.17381897141428584,-31.37073209138095,-8.470137187238093,40.54477172276191
5.426072453,-0.24506089515714274,-28.798135371095235,-10.390449432761903,37.87236659333333
5.430994584,-0.5741280004904761,-25.190963006666667,-12.560436566428569,34.16900530471429
5.435916813,-0.9147409157857143,-21.58034264447619,-14.778540656238095,30.422831787000003
5.440839197,-1.306144244595238,-17.970952851333337,-15.904842376238093,26.968909307
5.445761454,-1.6306500434619047,-14.34853339190476,-16.101009754428567,23.561371149095237
5.450683608,-1.8997666665285713,-11.010658632904763,-15.45878787238095,20.311741013666666
5.455605991,-2.0377292859714284,-8.562107069104762,-12.534640947714283,16.534039364857144
5.460528448,-1.831159140352381,-6.9808330829137155,-9.125311942,12.800081599238094
5.465450604,-1.6224487593523809,-5.902559624608953,-7.65701879742857,11.049324064952382
5.470372835,-1.5452629071809523,-5.056378027656572,-7.738751501952381,10.53563829052381
5.475295203,-1.4762582437666665,-4.257710710085143,-8.10396487342857,10.141217934952381
5.480217435,-1.3487099067666666,-3.4875815290851437,-8.25096416447619,9.80408060204762
5.485139589,-1.1718027647666664,-2.774289577608953,-8.208805538142856,9.469363384571428
5.490061695,-0.914359291290476,-2.127862014513715,-8.076986312619047,9.14241840147619
5.494984078,-0.577296813242857,-1.536924865513715,-7.920528956619046,8.834411612380952
5.499906539,-0.1770238194333332,-1.0181507307041913,-7.81689362290476,8.595708045714286
5.504828676,0.17850971228095253,-0.5497544984660959,-7.821376936714284,8.50007320047619
5.509750907,0.4783097051857145,-0.11158320260895307,-7.90093203942857,8.51590417
5.514673061,0.7252161332809525,0.30487560848628503,-8.023478417190475,8.607594367619049
5.519595452,0.9290253662333336,0.7028727153434279,-8.163629441190475,8.738983855809524
5.524517685,1.1079353662333336,1.0875005230577135,-8.28639684442857,8.868322126285715
5.529440068,1.2768264611857145,1.4514403873434278,-8.377869606523808,8.977346701904763
5.534362224,1.441499369519048,1.7935559598672375,-8.462156069047618,9.088446209095238
5.539284452,1.586893699052381,2.1179726881053327,-8.550703730190476,9.20573622252381
5.544206837,1.7200669888142857,2.42412430524819,-8.678508032095236,9.36386613109524
5.549129017,1.8630111360142858,2.7000044490100947,-8.83670738790476,9.559383131380955
5.554051246,2.017924998557143,2.934414354629142,-9.023319585238093,9.79093020157143
5.558973383,2.181761335809524,3.1233516440196185,-9.241648560857142,10.060612524190477
5.563895765,2.312558100380952,3.2651281725904755,-9.457186721809522,10.32220025457143
5.568817998,2.399264142666667,3.3759075573809514,-9.676406247333333,10.574080222666668
5.573740162,2.4574863343333337,3.4606867518095226,-9.888523101761903,10.806630672809524
5.578662544,2.499540669619048,3.51411603747619,-10.085232030523807,11.013816862190478
5.583584777,2.5176460970476193,3.5422362713809514,-10.258436838285713,11.18726463652381
5.58850727,2.526217335809524,3.5456316584761898,-10.407894133857141,11.330632167333334
5.593429426,2.527449959857143,3.5274020944285707,-10.545204252714285,11.455555973761905
5.598351808,2.526954531714286,3.483758903666666,-10.658921649666665,11.550681271904763
5.603274041,2.5294301510476194,3.422989708999999,-10.730860255285714,11.601619215714285
5.608196195,2.5340964851428573,3.345800422428571,-10.724574633380952,11.574662398095237
5.61311834,2.5333255302857145,3.2537075223809517,-10.660459653857142,11.487497005714285
5.618040722,2.526643247904762,3.149969611809523,-10.54974365142857,11.350626474999999
5.622962921,2.5079515378095243,3.03109784347619,-10.476918673571427,11.24430256309524
5.627885075,2.464707249709524,2.9017113730476183,-10.44711430738095,11.174804121190476
5.632807458,2.3989134913714287,2.7614659865238087,-10.440217289285712,11.12382794357143
5.637729953,2.3083084907,2.613649413666666,-10.43663846785714,11.071992602142856
5.642652109,2.2027084940904764,2.4644641194857138,-10.422215415476188,11.009182260714287
5.647574306,2.079023728752381,2.312445027471428,-10.395415668666667,10.931884805714285
5.652496535,1.9372153438000002,2.158072593657142,-10.366637456142856,10.84949414947619
5.657418996,1.7822913853666666,2.0059658771476183,-10.327178954238093,10.755718739380953
5.662341118,1.6126493343285717,1.854141062997142,-10.266200836666664,10.640249533952382
5.667263501,1.448031331109524,1.7049343437828564,-10.19841053290476,10.522961120285714
5.672185714,1.2927818113809526,1.5529610536590468,-10.115388006714284,10.395326722190477
5.677107868,1.1440319110428572,1.4035429550828564,-10.020816166619046,10.261502566428572
5.682030006,0.9997742940580953,1.259694003706666,-9.916679563619047,10.122828053761904
5.686952389,0.8727142919671429,1.1190311505114279,-9.805177052666666,9.982930974714286
5.69187468,0.7559871493271431,0.9813179083542849,-9.687045369809523,9.840580551809524
5.696797062,0.6501978111647619,0.8436060484923803,-9.556864693047617,9.689114831095239
5.701719218,0.5572705738258096,0.705809672054285,-9.424827984523807,9.538250321095237
5.706641457,0.4737125724743811,0.5636538686685707,-9.297266051952379,9.392832814380952
5.711563841,0.40117390659819063,0.4206522469971421,-9.172056538761902,9.251282160095238
5.716486074,0.338584432239143,0.2729585278304755,-9.060756706333331,9.12495280595238
5.721408466,0.27369971709771446,0.12582071560666594,-8.986708936476187,9.034544710666667
5.726330699,0.20911090640247632,-0.017197337088572136,-8.887807392190474,8.924297237761905
5.731253081,0.1447790498881906,-0.16127667032666737,-8.75352323647619,8.78544392452381
5.736175218,0.08531804946914298,-0.313860189945715,-8.602420648095237,8.638804766380952
5.741097372,0.042429047645333465,-0.4842491439933341,-8.459543001047617,8.51073866452381
5.746019587,0.014744571240571552,-0.6759230926219054,-8.323146025285713,8.403618602285714
5.750941971,0.0001736183596191728,-0.9151164753219054,-8.144004299476189,8.293473645333332
5.755864141,0.0037124752643810785,-1.295089940793334,-7.727438253971426,8.208405179714285
5.760786601,-0.03288414368323797,-1.7449445077123815,-6.858372288066665,8.391191226476192
5.765708757,-0.09712985588323798,-2.2949618538952388,-5.463120378019046,9.079404464761904
5.770630906,-0.08429414109752369,-2.841154816585715,-3.758916182257141,10.056193334142856
5.775553134,0.07251376191676202,-3.3683772371761913,-1.883905873685713,11.203149232238095
5.780475519,0.33811257382628584,-3.8653724876000006,-0.07753077901904587,12.304626481809525
5.785397967,0.7802955949062859,-4.594918138985714,1.5310030803619064,13.385572866380953
5.790320122,1.5146128268543813,-7.103780553552381,3.530568522742859,16.064085189714287
5.795242353,2.350420860208667,-10.896656805680953,6.168515559885715,20.17115447404762
5.800164707,3.2266275254662857,-14.704527619628571,8.864884185980955,24.33608652142857
5.805086632,3.7051443964242856,-18.502594669809522,10.46195860364762,27.986926974761907
5.810009023,3.8643116787280953,-22.28935326599524,10.934400049885715,31.423174420523807
5.814931485,3.8286805363471434,-25.953324057228574,10.98020809269524,34.753290853857145
5.819853718,3.6584713492299996,-28.728716050442856,10.103929306457145,37.456202808952376
5.824775906,2.9250994060380955,-30.367510563266666,6.683856659885715,41.29150128209524
5.82969806,2.362448484257143,-31.405601041857143,4.637343442980954,43.62651149642857
5.834620519,2.0950468074428574,-32.25052704704762,3.9284678325047637,44.68722734395239
5.839542894,1.8748934785333338,-32.90034941261905,3.430015441742859,45.472492937333335
5.844465127,1.6940609449333337,-33.57643580409523,3.1350979037428592,46.14181286776191
5.84938728,1.517411278661905,-34.120924949333336,2.9437894508380973,46.66270256047619
5.854309654,1.334726854261905,-34.468746752523806,2.7011284744095256,47.09751942480952
5.859231887,1.10157799702381,-34.55885909809524,2.219906443523812,47.44971765571429
5.864154269,0.9066913239761909,-34.4963206332381,1.3357712426666686,47.45791123571429
5.869076194,0.7644916601190481,-34.27305904995238,-0.037425268523807495,46.89795190333333
5.873998577,0.5650332796000003,-34.001481668809525,-1.692761829952379,45.99869229190476
5.878920839,0.24389289945714315,-33.708552201,-3.502676532238093,44.89097262490476
5.883842993,-0.14605810254285678,-33.41886079814286,-5.231653576523807,43.797080814380955
5.888765385,-0.6862558836857139,-32.87425804080952,-6.7443949379999975,42.69375044233333
5.893687618,-1.5019168768761901,-30.533099957285717,-8.648512408714284,39.98170981680952
5.898610001,-2.409384434923809,-26.890752519285712,-11.186705452952378,35.829267049904765
5.903532157,-3.3507076699714284,-23.21248393890476,-13.776112647095236,31.602696227142857
5.908454385,-3.882724872495238,-19.534790560666668,-15.219396091285711,27.84468142490476
5.913376847,-4.084169393352381,-15.853610492047618,-15.500514484238092,24.26241694909524
5.918299232,-4.076598584509524,-12.269468510952382,-15.336358955571427,20.755911412285716
5.923221387,-3.9288959217999997,-9.52919299157143,-14.256946325142854,17.863004304857142
5.928143618,-3.1932869785047613,-7.89250205154762,-10.66885751733333,13.861195806142856
5.933065758,-2.606072199233333,-6.82441795372381,-8.494364249857142,11.396393321571429
5.937987912,-2.3071268084666663,-5.909432756938095,-7.715233291714283,10.261036369142857
5.942910299,-2.059889003509762,-5.133874489709525,-7.2210314046666655,9.472321830666667
5.947832531,-1.872182612505,-4.270293286661906,-6.983638252571426,8.84846338852381
5.952754685,-1.7073806601097616,-3.4804113363761915,-6.893495639238092,8.407608619571429
5.957677145,-1.5579158541669043,-2.7989877746142864,-6.834831953285713,8.103347054333334
5.962599301,-1.385332521090714,-2.1986100106142863,-6.802544355190475,7.891553206714285
5.967521688,-1.2178443264716665,-1.6502587228047625,-6.846259332571427,7.7893782043333335
5.972443921,-1.0777722816145234,-1.1393987224714293,-6.945223524238093,7.772694051
5.977366304,-0.9531269973764283,-0.6671732380904769,-7.096235672333331,7.833068451476191
5.982288536,-0.8509467094240473,-0.22325042323333397,-7.276458478619046,7.946594799904762
5.987210919,-0.7872243771383332,0.20526580571904693,-7.471783853380951,8.097547115190476
5.992133075,-0.7441451882335711,0.6174313112904756,-7.665828466190474,8.261110759142857
5.997055238,-0.7112897115859521,1.0168164116238088,-7.839987493571426,8.418683674666667
6.001977467,-0.6640777097716664,1.3990259964809517,-7.999268974476188,8.568680724904763
6.006899865,-0.5764933774383331,1.758446761480952,-8.13816160238095,8.708497871857142
6.011822021,-0.46669190339071404,2.1038799171476184,-8.321403673619047,8.892331455571428
6.01674425,-0.35035757010499974,2.430165778957142,-8.545536211476188,9.117835566047619
6.021666406,-0.2375377111669045,2.730584734909523,-8.791023765238094,9.377863218380952
6.026588865,-0.12396428201928547,2.9876770178142853,-9.054209981571427,9.673017092952382
6.031511016,-0.006790283362142586,3.20040554655238,-9.320024535571427,9.98039232309524
6.036433399,0.08764399784261931,3.382963169157142,-9.571498439238093,10.270777599095238
6.04135586,0.20291224174261932,3.530355833799999,-9.810523532619046,10.546847098190476
6.046278007,0.3070014814047622,3.640316503380952,-10.003115381571428,10.766983300952381
6.051200238,0.41671495630476213,3.712625407047619,-10.178246180333332,10.961319006904763
6.056122607,0.538231521766667,3.745468934380952,-10.344372795095236,11.138888251571428
6.061044762,0.680034758014286,3.7307396048571424,-10.518043245809523,11.314677073952382
6.065966991,0.8286856170809527,3.6885937963333326,-10.69026311295238,11.480632327761905
6.070889147,0.9763198565095242,3.6311635630952375,-10.868446759619045,11.64491798347619
6.07581153,1.1375998016523812,3.5606402329523803,-11.054642632476188,11.813753139666668
6.080733762,1.2815313267476194,3.481798614857142,-11.210533233428569,11.949058368238095
6.085655906,1.409346942319048,3.3909962745714277,-11.329257738666664,12.042891468714284
6.090578289,1.524351612366667,3.283245177619047,-11.410326050095236,12.093591366809523
6.095500522,1.6301689473666667,3.1584090392857136,-11.449135871523808,12.097780284904761
6.100422904,1.7190274212333336,3.0156592245238087,-11.469707261999998,12.078625167285715
6.105345137,1.7738037066095242,2.8616825002380946,-11.481014751285713,12.04810855852381
6.11026752,1.7744628970809526,2.7005806850047613,-11.503214926999998,12.025851093619048
6.115189748,1.7347186121952387,2.5327906297380944,-11.516340437428571,11.992243383714285
6.120111901,1.6713013747857146,2.362751151914285,-11.519349643190473,11.948108113333333
6.125034036,1.5931807543285714,2.184993101809523,-11.51781009495238,11.897403384761905
6.129956419,1.5041787070428574,2.003779150608094,-11.48444793342857,11.817217042142856
6.134878657,1.3933555657247623,1.8252678138185707,-11.402469953095236,11.690682694904762
6.139801039,1.2896560458333337,1.6440041441899993,-11.290196101047618,11.539051252666667
6.144723204,1.1724896118380954,1.4637567181519042,-11.132543881809521,11.344399491285715
6.149645433,1.0796524200714288,1.2842365737852373,-10.95080779842857,11.133551546142858
6.154567818,0.9947962789000002,1.1095872415138088,-10.729123841999998,10.887663451523808
6.159490055,0.9106493805047622,0.9501266174471422,-10.479796522761902,10.618372688857143
6.164412438,0.8215976683666669,0.8117559502757137,-10.199180625523807,10.320876720190475
6.169334671,0.7424267629761908,0.6757907590947612,-9.899031093809523,10.005934884380952
6.174256825,0.6779459076333336,0.5336719957233326,-9.574236097285713,9.66771735447619
6.179179207,0.6087630064714288,0.3888727547280945,-9.224702017333332,9.304429768809523
6.18410144,0.5583905307857145,0.23627956494714217,-8.875416937142855,8.945012784809524
6.189023585,0.5193689621571431,0.06502408994714218,-8.536318438238094,8.60157938895238
6.193945739,0.4927916739761907,-0.1294361999100007,-8.205479803190475,8.278575190857143
6.198868121,0.46397514711904786,-0.3372329097671435,-7.8990982599047594,7.995920382904762
6.203790354,0.44895567354761934,-0.5544168686719054,-7.589695272047617,7.733349181285713
6.208712722,0.45808524319047644,-0.7867858714814292,-7.238035837857142,7.47813351652381
6.213634878,0.509070529814286,-1.065728164105239,-6.725293664761903,7.285316765857142
6.218557106,0.6256122489857145,-1.4375409334576197,-5.818075004142855,7.454466182857144
6.223479491,0.8513574004428573,-1.9353195479671432,-4.315629737809522,8.241532186190476
6.228401724,1.2252108313285717,-2.4831645449100006,-2.422437764571426,9.448384936380952
6.233324106,1.7390257233761905,-3.043612108375239,-0.42212468685714083,10.808930844714286
6.238246344,2.394591119884762,-3.6265377903476197,1.368344300904764,12.062873080047618
6.243168498,3.3219995031095237,-5.012438348766667,2.834075058857145,13.670147972285715
6.248090881,4.52834107067619,-8.285492965585714,4.885550038666669,17.177721663190475
6.253013066,5.864621853728572,-12.066650467552382,6.649385128142859,21.075336327857144
6.257935294,6.776594143614285,-15.833838900090475,8.141847695047622,24.77564417914286
6.262857655,7.149952417390477,-19.58893577840476,8.616118118285717,28.221879995142857
6.267779888,7.290493846004763,-23.307375862519045,8.329714008190479,31.669239559999998
6.272702046,6.883127283538096,-26.23935525467143,5.73620022409524,35.508831671047616
6.277624428,6.030798318738096,-28.148298110014284,2.0674208056666687,39.69233660809524
6.282546584,5.459740470995238,-29.45219515297143,0.0889253895238115,42.07669657185714
6.287468813,5.0821020912523815,-30.40933175252381,-0.5815507520952359,43.19393744490477
6.292391197,4.940092949357144,-31.24382360704762,0.3856294318571451,43.9916236907619
6.29731343,4.806977666300001,-32.02305468966667,0.987532302761907,44.63447818409524
6.302235833,4.590937915061906,-32.70359371866667,1.0583029183809547,45.21115399347619
6.307158066,4.232783674928571,-33.278197106,0.7379250462380975,45.913304952714284
6.312080448,3.7324007462857147,-33.74310061938096,0.20964976076190694,46.718166655285714
6.317002604,3.08553504904762,-34.07146428785715,-0.4456887931428549,47.45914418333333
6.321924758,2.3667921332380955,-34.19000443861904,-1.4259196240952359,47.75712606809524
6.326847218,1.57001118352381,-34.074195338476194,-2.918865522238093,47.33190361285714
6.331769469,0.6672066723809528,-33.8493420497619,-4.7393829258095215,46.406508258571435
6.336691623,-0.30554680695238057,-33.577126251904765,-6.6319888890476175,45.25193831095238
6.341613767,-1.3349115746666664,-33.26034014428572,-8.306992939666666,44.13736344666667
6.346536227,-2.5442550987142853,-32.124024821285715,-9.66751207638095,42.61615546114286
6.351458382,-3.943570138095238,-29.085938452333338,-11.644330615047618,39.166554365476195
6.356380784,-5.397776162047618,-25.519877568809523,-13.406765233809521,35.35060389619048
6.361303017,-6.368558356757141,-21.951761040285717,-14.965999943761904,31.774400494285715
6.3662254,-6.761603059804442,-18.389608586476193,-15.490475529619046,28.43378800304762
6.371147526,-6.902359871223489,-14.853755972714287,-15.231174026142856,25.066987339285717
6.376069755,-6.5017108331139655,-12.077939248380952,-12.645898194333332,21.27905409142857
6.380991887,-5.669821250423491,-10.278856583380954,-8.999919970761903,17.14111252119048
6.38591427,-5.136722258553014,-9.041211207190477,-7.07244254290476,14.81617250490476
6.390836517,-4.809889451053015,-8.112831796619048,-6.478818427761904,13.776547743142858
6.395758671,-4.712990023938728,-7.256568082528572,-7.557408048809522,13.083802537333332
6.400681054,-4.61496145549968,-6.4005384232095235,-8.316577786333331,12.58025975742857
6.405603292,-4.419553655494918,-5.59548568173762,-8.592733746285713,12.176445283761906
6.410525674,-4.084051321533014,-4.848280384542382,-8.518643787666665,11.668155950809524
6.41544783,-3.622812486948251,-4.158620391918572,-8.30923098580952,11.084183290190477
6.420370073,-3.0557554101720616,-3.5246190970614295,-8.152262733047618,10.524657550666666
6.425292458,-2.4782119284672994,-2.9742270370138106,-8.084414345857141,10.070706676619048
6.430214919,-1.928424558805395,-2.5031669085376196,-8.118937628571427,9.746731145904763
6.43513707,-1.4251829543339662,-2.065791533299525,-8.23090993790476,9.521729105904761
6.440059224,-1.0023122246768235,-1.6398747252995245,-8.41079007990476,9.409334908285715
6.444981448,-0.6744859489815853,-1.216862956870953,-8.634970710238095,9.403568161142857
6.449903832,-0.43625876041491857,-0.7959398146328579,-8.862120355904759,9.465850994285715
6.454826065,-0.30341152512920433,-0.3728801354423816,-9.05501647247619,9.556304230428573
6.459748219,-0.2677797606053948,0.04743309798618983,-9.159945283857141,9.61474159447619
6.464670373,-0.3160599032292043,0.46759461770047556,-9.201724529523807,9.643219359238097
6.469592832,-0.40156223399142815,0.8832522288433328,-9.246473199095236,9.67650631952381
6.474515241,-0.4946700421914282,1.2831739867004757,-9.299853484095237,9.717651169
6.479437474,-0.5573612808580949,1.647411896890952,-9.359681016190475,9.769004441714287
6.484359871,-0.5992958037057138,1.9533444187480946,-9.387864976,9.805326379904763
6.489282027,-0.610900470680952,2.2046394176528565,-9.402447837047617,9.835717389238095
6.494204256,-0.6032987565195234,2.415720275319523,-9.404223033666664,9.855291040190476
6.499126626,-0.5989016612066662,2.5917645606099993,-9.394859677571427,9.864695183238094
6.504048781,-0.596982232565952,2.738406994338571,-9.38502933895238,9.872642671476191
6.508970921,-0.5766403742992853,2.8537846633428563,-9.395828565285713,9.898304917904762
6.51389315,-0.5514019926897614,2.938614419528571,-9.426929156333332,9.941825252285716
6.518815525,-0.5290579445983329,2.994370613761904,-9.45929804338095,9.983230372904762
6.523737681,-0.49721042009357097,3.018300754666666,-9.503083683523808,10.031179767190476
6.52866014,-0.46693803844595194,3.015286042571428,-9.544715563571426,10.071871093142857
6.53358231,-0.4288688484316663,2.9862395240952373,-9.613257589857142,10.134019944333334
6.538504541,-0.3844719455983329,2.9399776174761896,-9.680870601238093,10.191001902428573
6.543426695,-0.3227561355269043,2.8842916204761897,-9.734549931714284,10.231071966238096
6.548349077,-0.24948108883642814,2.8266667581904756,-9.781281789809523,10.262361266238097
6.553271539,-0.17089728066499957,2.770474473619047,-9.847773415999999,10.313168043380951
6.558193681,-0.07791161655071385,2.705304946238095,-9.927436919333331,10.372856320523809
6.563115911,0.01895228903500043,2.622377662428571,-10.035712786809523,10.451943948619048
6.568038294,0.12751624155880995,2.517303478142856,-10.145751589761902,10.52301822242857
6.572960469,0.22967152537309565,2.3973472912857137,-10.262187503476188,10.598253765761905
6.577882698,0.3201128105159528,2.2653968163809517,-10.377017066238093,10.672944637666667
6.582805121,0.3818743345159528,2.125427001999999,-10.483747981666665,10.743947507571429
6.587727277,0.4295522388826195,1.9783311486095232,-10.586255800190475,10.813251613904763
6.592649501,0.46074785815881,1.824242340636666,-10.662895111761904,10.862372809428573
6.597571886,0.489354714711667,1.6547092922795232,-10.71949908838095,10.896857840047618
6.60249405,0.5148210961511909,1.4743469116033328,-10.758811995999999,10.91810386847619
6.607416279,0.5270715242380957,1.2918146692699992,-10.775305611619045,10.920100695857142
6.612338664,0.5083110470904766,1.112224285079523,-10.758073170857141,10.892899721190478
6.617260897,0.4794536178896195,0.9329232445557135,-10.710320427142856,10.838200785238095
6.622183279,0.4547720461953337,0.7529856718414278,-10.65258866247619,10.776338597380953
6.627105512,0.4190298073191433,0.576122484031904,-10.573615301095236,10.696331064857143
6.632027657,0.37768661647628615,0.4000524864128564,-10.481530189571426,10.606282890571428
6.636949811,0.32606956886200045,0.2241457260795231,-10.341218585190475,10.471434995333333
6.641872188,0.26666128449057186,0.04381577312714216,-10.178685120238093,10.317372098571429
6.646794421,0.1918603787620004,-0.1510444581585721,-9.98754051738095,10.137852696809523
6.651716575,0.10894709356676234,-0.3666949371585721,-9.755382219714285,9.92114853804762
6.656638958,0.018730857114381383,-0.5992717501585721,-9.474740051047618,9.659966461190477
6.66156119,-0.0661479508618091,-0.8401459838728578,-9.157933439666664,9.369489747571428
6.666483573,-0.12169652226657099,-1.0890636997300007,-8.769619011047618,9.026877532428571
6.671405753,-0.13453304650752337,-1.3583607488728577,-8.283732584619045,8.64385842404762
6.676328212,-0.09120985465514242,-1.6661135057300005,-7.66291765390476,8.31614598904762
6.681250445,0.025908576344857586,-2.059345028206191,-6.83480911633333,8.217402292285714
6.686172599,0.2804053380924766,-2.5114063066823813,-5.728113123476188,8.450619014666668
6.691094982,0.6681713913591433,-3.000423324910953,-4.4532097349047595,8.941385549428572
6.696017215,1.2008387500448574,-3.530919270604762,-3.1695196458571413,9.567683604666666
6.700939368,1.9694507944496191,-4.424766531914286,-2.036298836809522,10.490949574857144
6.705861751,2.943135760963905,-6.790884568714286,-0.8981073866190457,12.734042812047619
6.710783891,4.198721495273428,-10.508269736095238,0.49937693861904964,16.38218100680952
6.71570612,5.293069055102,-14.25939909095238,2.172928270952383,20.10342870204762
6.720628504,5.9842771532076195,-18.000507014761904,3.546735814904764,23.665767374666668
6.725550665,6.395194348035238,-21.732423323190478,4.007428566857145,27.081209017285715
6.730472894,6.592052684582858,-25.167874966857145,3.767663354285716,30.25650453504762
6.735395279,6.541931445311429,-27.70241216857143,2.901244198000002,32.76791475742857
6.740317497,6.367118968059048,-29.496018875523813,1.6471859502857165,34.88307901647619
6.74523988,6.126541639268571,-30.74002027561905,0.3981988205714305,36.622965542761904
6.750162113,5.860871884697143,-31.61004436652381,-0.6911800584761884,38.022957178333336
6.755084452,5.573475788649524,-32.302276907,-1.320650838047617,38.97150593090476
6.760006608,5.499439695649524,-33.090792599428575,-0.23580354671428355,39.86205500728571
6.764928832,5.400208458178096,-33.89467770742857,0.06922021996190685,40.517680983761906
6.769851217,5.1430657440923815,-34.617741948523815,-0.11422986579999792,41.26402674557143
6.774773381,4.740609475952381,-35.30410784809524,-0.579662838895236,42.166783536809525
6.77969561,4.182792817238096,-35.875606605523814,-1.2680868300857122,43.06235693609524
6.784617766,3.4611275140952387,-36.23929350785714,-2.1808272424190456,43.718041776190475
6.789540217,2.616070389857143,-36.410317512380956,-3.324769621466664,43.94743848571428
6.794462373,1.7576842139047624,-36.445242700952384,-4.544625020942855,43.765030962380955
6.799384755,0.8362548069047623,-36.367603393857145,-5.696212711419046,43.33699007809523
6.804306911,-0.2574733269047616,-35.87102195280953,-6.676720335228571,42.55275541666666
6.809229371,-1.481352959333333,-33.86122930680953,-7.660257123609521,40.405260336666665
6.814151526,-2.9091614029999997,-30.46959908847619,-8.933867874466666,36.83350041571428
6.819073713,-4.100411102999999,-27.01464187561905,-10.55434350722857,33.20618458
6.823995867,-4.836901582647618,-23.53968509052381,-11.925918772085712,29.756581962857144
6.828918017,-5.275037683419048,-20.052951699285718,-12.368995479133332,26.433184436666664
6.833840476,-5.4863330213428565,-16.843080588952382,-12.077673883657141,23.316240237857144
6.838762851,-5.447313115938094,-14.500026953,-11.127411314514283,20.82156383661905
6.843685007,-5.307112875652381,-12.843749773380953,-9.787597128180952,18.694786354952377
6.848607243,-5.110471021747618,-11.674800804904763,-8.497070851657142,16.95148655985714
6.853529625,-4.894287030080952,-10.825416054095239,-7.444405913371427,15.600833097809524
6.858451858,-4.656817742938095,-10.110261701666667,-6.912688567752379,14.74755137704762
6.863374007,-4.632183177319047,-9.260289294857143,-8.133960445942854,13.979589638666667
6.86829639,-4.576000798509523,-8.361922905985715,-8.610154810619045,13.468867811380951
6.873218622,-4.358342466080952,-7.505123519071429,-8.645661127238094,12.893542094571428
6.878140971,-4.012820295080952,-6.6291411444238095,-8.498187928285713,12.202869832666668
6.883063127,-3.5538754492904756,-5.784971819942858,-8.301343100714284,11.504288440904762
6.887985262,-3.0170960993142852,-5.029247349990477,-8.095514570142855,10.828818570190476
