Time (s),Linear Acceleration x (m/s^2),Linear Acceleration y (m/s^2),Linear Acceleration z (m/s^2),Absolute acceleration (m/s^2)
0.122543116,0.04088028600679047,-0.02247971455761905,0.004493333845714285,0.05837684
0.127464962,0.04068119070488571,-0.024934714658095238,0.002918000513333332,0.059665315780476194
0.132386794,0.04141157165298095,-0.02672042892619048,0.0033242861723809516,0.061251367397142854
0.137308565,0.040861571567266664,-0.028393619381904767,0.004455381341904761,0.06232207304238096
0.142230161,0.03974052394917143,-0.029477667061904758,0.007441476478095238,0.06427026046857143
0.147152236,0.03784423820888571,-0.028616000375666664,0.01263281006904762,0.06788847041190477
0.152074084,0.03476066677174285,-0.027140809898047617,0.019556095693333334,0.07330518852190476
0.156995699,0.03227966673940952,-0.02542790509852381,0.027430000184285715,0.07965048279857143
0.161917774,0.030379714337838096,-0.02380452416947619,0.03476266682761905,0.08545208993238095
0.166839392,0.031154666787838098,-0.021382762173761904,0.04099319037095238,0.09088271513285714
0.171761236,0.031653238176409526,-0.019280476461857144,0.04759209545238095,0.09649193567142855
0.176683082,0.030895333364504764,-0.015925143058047618,0.05389161917666666,0.10180175463857143
0.181604943,0.029697619094504763,-0.011903809705190475,0.059788856962857136,0.10692560187238095
0.186526789,0.026748095266409522,-0.008568619123285715,0.06539214238238096,0.11146965562999998
0.191448611,0.023207285689742858,-0.005011904863285714,0.07116147569714286,0.11632970493047619
0.196370152,0.019538190419742855,-0.0019105715085238086,0.07720733269761906,0.12131052438809523
0.201292222,0.015422428496885713,0.0015176189943333343,0.08331209469809524,0.12654861361714284
0.20621407,0.015002476122409522,0.0051941904786190485,0.09436357069761905,0.12939381749666665
0.21113593,0.015272095178857142,0.00883247609004762,0.10343495148380952,0.13205042712714285
0.216057546,0.015372428555523808,0.010835047489095239,0.10996057052761905,0.13450206676809523
0.220979313,0.013501333333571428,0.012140618935761908,0.11667095146285715,0.13676720721666666
0.225901222,0.010520952437857143,0.013909095043857143,0.12305318958095238,0.1385204515
0.230822993,0.009124904865952379,0.014114380891000002,0.1297739517042857,0.14151960016761903
0.235744837,0.009080190561190476,0.01387323806052381,0.13445214198857142,0.14465550334190475
0.24066675,0.010435571622619048,0.013043571562428575,0.1372129516147619,0.14762626193047618
0.245588522,0.013156143055952378,0.011438190526238096,0.13433280887904764,0.1483882838857143
0.250510366,0.014317762167666665,0.010183142940952381,0.13152266559095238,0.14606472400999998
0.255432198,0.015611666936809522,0.00967552390852381,0.12801618961904762,0.14250973818761903
0.260353815,0.014054952716285716,0.010492333454238096,0.12415757082857141,0.13919856760190474
0.26527587,0.010498333517380953,0.012271285965666668,0.12110185640476188,0.13754083593523808
0.270197488,0.0028863332535714287,0.014887000145190479,0.11840628530619049,0.1372843084257143
0.27511926,-0.005034381108809523,0.020547476396619052,0.11542642772714287,0.13896870916857143
0.280041106,-0.011946904899285713,0.0245603811037619,0.11251866586761905,0.1407067583209524
0.284963029,-0.017145333661190476,0.026666714523761903,0.11031423775095238,0.14126595545428572
0.289884795,-0.019270571818333332,0.02942271444328572,0.10530819033952381,0.14040760779238096
0.29480664,-0.019548809936904762,0.03147161931804762,0.09919871416095238,0.1381312027257143
0.299728486,-0.018934286137857144,0.03250680990471429,0.0917349523785238,0.13409996155904763
0.304650318,-0.018032190860714285,0.03207790516995238,0.0847853808407619,0.12875414059380952
0.309572164,-0.018427714688238093,0.03246223857995238,0.07766819038919047,0.12381665934190475
0.31449401,-0.019107428960857143,0.03109014337704762,0.07217700002157142,0.1182825063190476
0.319415536,-0.020199714699190477,0.032141238558,0.06628038098871428,0.11551151936666668
0.324337457,-0.019200000445809523,0.03432300050038095,0.060106238118714295,0.11198641639809524
0.329259303,-0.016849619535333333,0.038230048156095243,0.05352314290299999,0.10977445305380952
0.334181183,-0.01653476243438095,0.04342033387704762,0.045335190229666665,0.10608848598142857
0.339103029,-0.018329000521523812,0.0485039528284762,0.036241142827761905,0.10278267515761905
0.344024899,-0.021389476757014286,0.05401728596752381,0.026605476175380952,0.10145685537190476
0.348946671,-0.02548523868282381,0.059528238468476186,0.019835238070619043,0.10224469588619048
0.353868515,-0.027278667317395238,0.06386600028561905,0.011040285711095235,0.10470219670476191
0.358790132,-0.028283333984157145,0.06624033363709524,0.0014039999496666651,0.10615445297000001
0.363712207,-0.027298191165109523,0.06591147645138096,-0.0071716665703333345,0.10450973602142859
0.368634055,-0.023365619594157144,0.06238071442614287,-0.013705475932714288,0.09951716701714286
0.373555902,-0.017002143277966664,0.06041214295376191,-0.017275428367000002,0.09484910992619047
0.378477517,-0.009353286055109523,0.05548852380185714,-0.02087038069176191,0.08838277366
0.383399361,0.00011999980298571389,0.048935666665238096,-0.023856523547000002,0.08305234505380953
0.388321122,0.009991333284890476,0.04070966653571429,-0.028600047520285714,0.08119930608714286
0.393242967,0.021082333553461906,0.02747352384047619,-0.03366442836314286,0.08690129466809525
0.398164828,0.03362876234155714,0.008802714783333335,-0.045151428317904765,0.10246902207285714
0.403086751,0.04605933407203333,-0.010899284785238095,-0.06411057160690477,0.12684467546333333
0.408008531,0.054472381467747626,-0.03283604697571428,-0.08861104886914285,0.15659190442380952
0.412930146,0.04995933401012857,-0.0652608563,-0.1153645738842381,0.19496702555190476
0.417851991,0.03775823865484286,-0.09242309418566667,-0.14583185952614286,0.2364029395842857
0.422773823,0.02054057187793809,-0.10691085619090475,-0.1765716228342381,0.2729309860319048
0.427695669,0.0025001430517476164,-0.10424914203804761,-0.21117352799757141,0.3106359041957143
0.432617515,-0.01422161877682381,-0.0878460951142381,-0.24975395778185716,0.35392906761142856
0.437539375,-0.030868571453966667,-0.06087719003280952,-0.29089676685138094,0.40520239116476187
0.442461221,-0.04868861919825239,-0.03083557007471428,-0.3303444349066191,0.4571666683171428
0.447382993,-0.06558576272657143,-0.0026926661870952306,-0.36010386288280954,0.5009040356076191
0.452304832,-0.0793896669612381,0.02081619228195239,-0.3723326725351905,0.5290933782980952
0.457226678,-0.08381766701761906,0.03690014485576191,-0.3680023390375714,0.5426574597361904
0.462148524,-0.07744909556619047,0.04605428775576191,-0.35085629165185717,0.554489625507619
0.46707037,-0.06449619033,0.050868192583380954,-0.32716567343185715,0.5748511331847619
0.471992216,-0.04350433321238095,0.051172954502428585,-0.29736943639328567,0.6089853637509524
0.476913834,-0.01695076127904762,0.04303400234861906,-0.26515762781757146,0.6499111458752381
0.481835919,0.01599457221238095,0.03055281190528572,-0.23088067582804764,0.6975808777890476
0.486757767,0.05321685650190476,0.014864050380000007,-0.19135072409423812,0.7534786226809524
0.491679613,0.09416580767809524,-0.002522853695238086,-0.14465296304238096,0.8160897691142857
0.496601214,0.13524023551619047,-0.019888092899999994,-0.09832067681666669,0.8741950400809524
0.501523058,0.17058895033523808,-0.035080807376190466,-0.05458100956904761,0.9172701829428572
0.506444904,0.2050974255685714,-0.05211352149047619,-0.019641533145238095,0.9483885005238095
0.511366666,0.24275952011619045,-0.0703155212142857,-0.0023893894928571384,0.9755251528476189
0.51628851,0.2927784245780952,-0.08125661792857143,-0.003848434564285704,1.001976967152381
0.52121034,0.3514928995304762,-0.10028176205238096,-0.025249814359523802,1.0426708062333332
0.526132187,0.41682242568285716,-0.13955319195238094,-0.06411595396904761,1.1041344532761903
0.531053804,0.4887364244447619,-0.20325966836714288,-0.1160198574642857,1.183725304357143
0.535975648,0.5802828066590477,-0.2980450024861905,-0.1699541392595238,1.2796995397857143
0.540897494,0.6694865673733333,-0.40330866991952385,-0.2383197074690476,1.3790368384523808
0.545819266,0.7595006617780952,-0.5077693379004762,-0.33273023192619045,1.4943171715476191
0.550741187,0.8402309013066666,-0.6038721006671428,-0.4569901352547619,1.6286146682619047
0.555663035,0.8959660437685715,-0.6824450068528571,-0.6192370834404761,1.7867317738428572
0.560584833,0.9211370441,-0.7406152445671429,-0.8163088560428571,1.9698475233047619
0.565506679,0.9177234250676191,-0.7825591012147619,-1.0420324312904763,2.1680965683380955
0.570428525,0.8946585676295239,-0.8187822431338093,-1.2898631997095238,2.373730650609524
0.575350074,0.8622668058914285,-0.8603944348809524,-1.5537124325761904,2.577207450890476
0.580272149,0.8246611860342857,-0.908217101552381,-1.8228165301333332,2.7753646396190477
0.585193766,0.7824599480152381,-0.9564525328523811,-2.0988730014619046,2.9722136255714284
0.590115591,0.7419220921628571,-1.0041698202809524,-2.3798317107476192,3.160301715142857
0.595037437,0.703889378772381,-1.0505171077333333,-2.660918087466667,3.3351864631904764
0.599959209,0.6710815702057144,-1.093342772504762,-2.9283712868285714,3.500418237047619
0.604881072,0.6500134257914286,-1.137274392942857,-3.166698086133333,3.6560907973333334
0.609802918,0.63606899862,-1.1823363445142858,-3.3575206519809524,3.791787343190476
0.614724764,0.6286344289676191,-1.2259752011571428,-3.4892265087095238,3.8977917684285717
0.619646716,0.6239268087104761,-1.2634483433238095,-3.5607050316666666,3.9638659211904765
0.624568488,0.6176712870485714,-1.2898752489809524,-3.5731375558095237,3.985363368238095
0.629490332,0.6119935699771428,-1.3017719614095238,-3.5422829389476185,3.9717100814761905
0.634412158,0.5987737138866667,-1.2954567698380952,-3.4789826529142864,3.924367447952381
0.639333775,0.5587292358866667,-1.2624856260952382,-3.3994762272714287,3.8395842100476187
0.644255605,0.5109515718152381,-1.215555102961905,-3.297202849638095,3.725815730033333
0.649177452,0.44337571547238097,-1.1546399117190476,-3.1718027045238095,3.571639396409524
0.654099298,0.3685775721580952,-1.0886362909186666,-3.0271817537809524,3.4062506477333336
0.659021139,0.3086516668580952,-1.0319520527177144,-2.8572986629666666,3.235151241533333
0.663942985,0.27508280917714284,-0.9937100055962858,-2.6665989855809524,3.0472649702142856
0.668864756,0.26875761855619046,-0.9707733868439048,-2.458067457957143,2.8411100146904764
0.673786634,0.2822064755061905,-0.9499939595248573,-2.2352597365952382,2.6218796814666665
0.678708481,0.30779338073,-0.9165573390058095,-2.001127407428095,2.3998842144523813
0.683630404,0.3411457153157143,-0.863723529617238,-1.7523342141709526,2.185030031823809
0.688552179,0.3807191434919047,-0.7955682884743809,-1.468763504485238,1.9918689834904761
0.693474023,0.40605523773476193,-0.7041893811124762,-1.1537386971042858,1.827792235538095
0.698395869,0.4125753330585714,-0.5838246640172381,-0.814763608199524,1.7024178475857146
0.703317459,0.3955433802319047,-0.43001604758866674,-0.45282174834238104,1.6290224317285713
0.708239303,0.3536934292842857,-0.2420783792077143,-0.07761090681857145,1.6152884001095236
0.713161153,0.27966595342714284,-0.02025457339819049,0.29347718927666666,1.666875719395238
0.718082999,0.17758880990333334,0.23001694564942857,0.6475177098004762,1.782499387538095
0.723004845,0.04885414178904761,0.4915986106494285,0.9871761745147619,1.9636893285857142
0.727926632,-0.1037472422157143,0.7532685132208572,1.311242353657619,2.2003037557285716
0.732848553,-0.2761703324776191,1.0094482319827618,1.6303943455576193,2.477054172442857
0.737770401,-0.472299813482381,1.2588417575541906,1.951960762667143,2.793592911157143
0.742691959,-0.6844350943871429,1.505048472525619,2.296614238500476,3.161792014395238
0.747614034,-0.9057483382204762,1.7414497182494286,2.693190161962381,3.6025918152190477
0.752535882,-1.1387383490680953,1.964261633578,3.1564905951338096,4.133769921700001
0.757457743,-1.3489489654680953,2.17307068273,3.7034657437242853,4.729474220423809
0.762379589,-1.5253918639252382,2.3689122566242857,4.337558212148095,5.391479272671428
0.767301113,-1.6617143395157141,2.5534369665076193,5.049426284476667,6.119544461180952
0.772222957,-1.7637806204766666,2.7192561580123806,5.822166205567142,6.90053741537143
0.777144804,-1.8369998089076192,2.8607577812647618,6.644841142348095,7.721228043261905
0.782066688,-1.893725475545714,2.9744098728933333,7.49927148327619,8.564571142419046
0.786988611,-1.9383180008219048,3.0545546334095235,8.358550775161904,9.413239047809522
0.791910382,-1.9730505721357143,3.100946156742857,9.190277950571428,10.234800730333333
0.796832231,-1.9876913326976189,3.110475917652381,9.973184028857142,11.009396191380953
0.801753849,-1.9860633325880954,3.085378152971429,10.69484997895238,11.717730585571427
0.806675693,-1.9638017136423813,3.028073251242857,11.336777925047619,12.335920510904762
0.811597544,-1.915838667751905,2.9472511552476193,11.882632505047619,12.847324520999999
0.816519621,-1.8321459070566666,2.843163061714286,12.324631554523808,13.241420326047619
0.821441469,-1.7217824321519046,2.7175668279238097,12.660685675285714,13.51532028590476
0.826363064,-1.5823419070090476,2.5833375936380953,12.87858386247619,13.664066646809523
0.831284909,-1.4149050971995238,2.4497730249238097,12.983124006190476,13.696233598619049
0.836206741,-1.2340293417233335,2.3260957371142856,12.982840628666668,13.62474287942857
0.841128512,-1.0379803355042856,2.2138157827333336,12.893502484999999,13.464582815952383
0.846050122,-0.8337988147709525,2.104086924161905,12.713888440666665,13.218412652809523
0.850972197,-0.6184571914185716,1.9997003447333335,12.433007898666666,12.88689701447619
0.855893815,-0.3755242757471428,1.8865820027333335,12.068690038761904,12.471349501238095
0.860815669,-0.14624123099952385,1.7675248583047618,11.607630127857144,11.973151450238095
0.865737515,0.05051585835095236,1.6530945215904762,11.039425469666666,11.391561798095237
0.870659361,0.20080933423190475,1.5446951928761905,10.38354487109524,10.738114513857143
0.875581447,0.31026599616333334,1.4428268132095237,9.670380995571428,10.02588851747619
0.880503065,0.3831028035904762,1.3439077621714286,8.903154486952381,9.255095670333333
0.885424909,0.42019646957476187,1.2568880987142859,8.079366289785716,8.429194652433333
0.890346726,0.4314319465319047,1.186150481352381,7.207977950745715,7.565907676380952
0.895268497,0.416629803907619,1.1282849100980952,6.306850393864762,6.721099868338096
0.900190322,0.3785936142885714,1.076739718717143,5.393867458721904,5.925080596433333
0.905112169,0.32320947081238094,1.0188677185219046,4.483848798912381,5.1950382592904765
0.910033991,0.2606801382314286,0.9429982888409524,3.5923130059599995,4.5434893811
0.914955608,0.20653518667428575,0.8302231929790475,2.750030052055238,3.9771516864809526
0.919877452,0.15307656769809524,0.6835075320838095,1.9535523821980953,3.5287179161476194
0.924799307,0.09919361616,0.5109652041599999,1.1918743676742858,3.2209897890047623
0.929721079,0.04267809388380952,0.3119441542552381,0.4758319625790477,3.0566726485285716
0.934643,-0.012726237493333332,0.08404158858857141,-0.18550645756380948,3.026325987004762
0.939564844,-0.05536866410285714,-0.18296545579238094,-0.7954908781352381,3.1207369043380955
0.94448669,-0.07554966433619047,-0.4935918320304762,-1.3559820994209524,3.3121391912904765
0.949408536,-0.08100823641714286,-0.844410783935238,-1.8722642037542858,3.579634470480952
0.954330347,-0.08635514061714286,-1.2321981714114285,-2.355122725373333,3.9027098281
0.959252117,-0.09362275978857142,-1.637935877982857,-2.8360405538019045,4.269286059909524
0.964173923,-0.09421280745523808,-2.053608554887619,-3.319680293611429,4.678962990433333
0.96909554,-0.0854708076104762,-2.4812570765066666,-3.8090553115638093,5.130100634480952
0.974017393,-0.06711390331047619,-2.91220211531619,-4.312781782611428,5.618261554909524
0.97893924,-0.042329855622857133,-3.3360153562209525,-4.84472346899238,6.142795617480952
0.983861086,-0.010856854421428565,-3.7508278643257142,-5.3914960456114285,6.708966000814286
0.988782947,0.02591895489428572,-4.163543908154286,-5.936320092254285,7.324226976809523
0.993704793,0.06533000157047619,-4.57660602084,-6.469707599880952,7.981042103338095
0.998626564,0.11812557209428572,-4.985226852538095,-6.996015509190475,8.639166809952382
1.003548499,0.1633042380942857,-5.379777459857142,-7.514287460714286,9.280671567571428
1.008470348,0.20396457222523812,-5.757991714123809,-8.024504298523809,9.90420368995238
1.013392117,0.24080557163666666,-6.125585896619048,-8.504254261761904,10.498704396238097
1.018313961,0.25988171498333335,-6.475080864761905,-8.959207841666666,11.070094475142858
1.023235807,0.2713409531565714,-6.815756411761906,-9.373549598,11.60554381357143
1.028157424,0.27365490587085717,-7.166615633904762,-9.734012195380952,12.104441010714286
1.033079269,0.25618195361847623,-7.513305278,-10.049668198666668,12.565114382523811
1.03800111,0.2158073343527619,-7.834760915666666,-10.339357467047618,12.989736807285713
1.042922956,0.19053923876228573,-8.12264987404762,-10.577163696238095,13.35230021804762
1.047844802,0.18312419104799998,-8.376505556428572,-10.762117476714284,13.653791614619049
1.052766667,0.19432390521942858,-8.587889080857142,-10.930465403190476,13.91741455357143
1.057688439,0.23149342982895244,-8.762955234095237,-11.069995743809525,14.138248795238095
1.062610283,0.2833634317575238,-8.914290178333331,-11.168810254095238,14.314444259047619
1.067532129,0.3502920057718096,-9.07617325995238,-11.205407596809524,14.455925079047617
1.072454052,0.4059495777670476,-9.249669551666667,-11.221313658238095,14.590800605238096
1.0773759,0.4404904325384762,-9.428022929285714,-11.234987622238096,14.725457708571431
1.08229765,0.4562233368146667,-9.59994029952381,-11.225708144095238,14.837810334285715
1.087219495,0.4701650988051429,-9.752524102904763,-11.191701934380953,14.918890283809523
1.092141341,0.4943836211670476,-9.88037177457143,-11.133032617142856,14.965242093333332
1.097063197,0.5184006202432381,-9.983203024571429,-11.05842022652381,14.981375720952382
1.101985043,0.5214169076146666,-10.06462156142857,-10.972916557476191,14.97149462095238
1.10690666,0.5262774308194287,-10.14008885252381,-10.881793884619048,14.950866154761906
1.111828442,0.5336502880218096,-10.202969595619047,-10.79191307747619,14.920057518571427
1.116750288,0.536935335575619,-10.238530021857143,-10.736053738904761,14.897398910476191
1.121672211,0.5377064782956191,-10.243727001952381,-10.739958489857143,14.903623147619049
1.126594021,0.5314973357319047,-10.223994526666665,-10.792160850809523,14.934120470476191
1.131515942,0.5173206218080951,-10.174601508380952,-10.862837563666668,14.961141101904762
1.13643779,0.5163705266080952,-10.108816827190477,-10.932520366523809,14.97667101190476
1.141359526,0.5461474318747619,-10.048841838857143,-10.989072890333333,14.984634752380956
1.14628137,0.5722479559985714,-9.999429883476191,-11.054645356523809,15.006395026666667
1.151203221,0.5757280512414286,-9.955667722047618,-11.147669019857144,15.05246258142857
1.156124838,0.553079288865238,-9.91913954338095,-11.246387163190477,15.107449674761906
1.161046712,0.5152359550366666,-9.89061491752381,-11.367186409857142,15.18358695095238
1.165968483,0.4761022870842857,-9.868131091809525,-11.513029416047619,15.281299006666668
1.170890404,0.4343839517080952,-9.817979584857142,-11.697682380238096,15.384914208571429
1.175812214,0.4138314754461905,-9.739649544904761,-11.862874348380952,15.453367742857143
1.180734058,0.41083147716047613,-9.643053281333334,-11.981791132380952,15.475170548571427
1.185655904,0.42471657217000003,-9.542900266666667,-12.065945397666667,15.46771356904762
1.190577741,0.46461323916999997,-9.456743012904761,-12.103054500238095,15.436273979523811
1.195499587,0.5342394342652381,-9.391509918428572,-12.06072630147619,15.369830660952381
1.200421433,0.6523345313604763,-9.343240283428571,-11.898451509428572,15.256785833333332
1.205343265,0.8504270544366668,-9.315027463761904,-11.588010174380953,15.121073567142858
1.210265111,1.1358843419319047,-9.299650010619049,-11.139243897542858,14.9996929
1.215186705,1.5023724900033333,-9.294168835619047,-10.576069246876191,14.910863301904763
1.220108549,1.9548170476380953,-9.303708349,-9.90380158287619,14.869564748571428
1.225030395,2.4762627480952384,-9.322021393571427,-9.106132535685715,14.860750686190475
1.229952166,3.071287302566667,-9.336631593285714,-8.216174767066667,14.885678296666667
1.23487401,3.7570442116,-9.341975121333334,-7.284169747590475,14.960065321904763
1.239795857,4.542577185661905,-9.338857605380953,-6.328969756495238,15.112492325714285
1.244717703,5.432467072990476,-9.323457945000001,-5.326000241590476,15.374754300952382
1.249639553,6.445153219733333,-9.29670837952381,-4.246383785971428,15.791752062857142
1.254561399,7.58554450864762,-9.255368823142858,-3.0827410845428567,16.35931344
1.259483245,8.838225513390476,-9.196362245714287,-1.8383793888285715,17.046451054761903
1.264405096,10.165318136695237,-9.109931469,-0.5109091997809525,17.824358918095236
1.269326943,11.54775054055238,-8.992635590761905,0.909245280695238,18.689294553809525
1.27424879,12.973648541880953,-8.856543064190477,2.4254735021238094,19.650612148095238
1.279170401,14.438247958190475,-8.70900789904762,4.012997234980952,20.714332942380953
1.284092245,15.950782008809524,-8.549458322142858,5.644470094980952,21.88004778761905
1.289014092,17.491696226666665,-8.36732600995238,7.297692860219048,23.130000762380952
1.293935863,19.00110812366667,-8.145065148761905,8.925645254504762,24.421986897619046
1.298857712,20.417395103142855,-7.871020771285716,10.45508499898095,25.703935294285717
1.303779329,21.698037828190476,-7.563642184000001,11.797056555361905,26.928130822380954
1.308701404,22.822440873714285,-7.238981065333333,12.897946715076191,28.04668420190476
1.313623247,23.791889303904764,-6.908762091714286,13.760291161571429,29.014233095238097
1.318545094,24.62745934428571,-6.592829931380953,14.41050776947619,29.825222127619046
1.32346694,25.339404741904765,-6.3018803823809515,14.864983876428571,30.482091335238096
1.328388796,25.952553249523806,-6.038058962190477,15.133993829714287,31.006461764285714
1.333310642,26.469926698095236,-5.782372599619047,15.248260543190476,31.407713180000002
1.338232257,26.89331794952381,-5.5019775913333335,15.240367639333334,31.696417750476193
1.343154054,27.191681635238098,-5.173471291904762,15.13695614652381,31.853650274285716
1.3480759,27.31096476666667,-4.77835392672381,14.949611572714286,31.828952393809523
1.352997712,27.187525068571425,-4.303064684104762,14.693415471238094,31.561577113333335
1.357919558,26.810895919999997,-3.7570337767238096,14.390586251190475,31.05509482333333
1.362841418,26.214358375714284,-3.1527767153428568,14.058758633238096,30.362037949523806
1.367763265,25.43965339714286,-2.5022156324380953,13.699844893904762,29.538613136190477
1.372684882,24.51063628495238,-1.8172134416761905,13.303583996809525,28.61338831285714
1.377606957,23.437659264285713,-1.0960148374380951,12.863471792190476,27.603878188571425
1.382528574,22.232237475999998,-0.34437413162857144,12.383787916000001,26.524991971428573
1.387450649,20.90766947690476,0.42499862694285717,11.859700373619049,25.379064056190476
1.392372497,19.484553542047617,1.1992741796095239,11.288504952666667,24.18207072857143
1.397294344,18.00232316257143,1.9653083741809523,10.66812350647619,22.96435031
1.40221619,16.523119892904763,2.6986319027047623,10.023196209142858,21.778685307142855
1.407137834,15.092855262519048,3.4034177947047617,9.385230325619048,20.669756545238094
1.412059678,13.707591407733332,4.1010954068476195,8.763435079952382,19.65240229142857
1.416981524,12.350858454590476,4.8046566672285715,8.166026921666665,18.73832693761905
1.421903371,11.009500928066666,5.518437638133333,7.609047549190476,17.925944818571427
1.426825142,9.675928778685712,6.237498535752381,7.111403113190475,17.192949977142856
1.431746786,8.342687656733332,6.953062900038096,6.68381196552381,16.51648892809524
1.436668861,7.007679807304762,7.641676462180952,6.334394023614286,15.884373868095238
1.441590723,5.666005116019047,8.268372412990475,6.065984591228572,15.28264016095238
1.446512569,4.33543582592381,8.812885104942858,5.859257412003809,14.718770613809525
1.451434416,3.0528566081142863,9.260590632095237,5.675996073565714,14.216929772380952
1.456356248,1.8551095367809527,9.604073069666667,5.466474602513333,13.804025642380953
1.461277863,0.7543693085904764,9.845234733999998,5.208787036694286,13.48193985285714
1.466199707,-0.25168230012380943,9.982564584857144,4.899211893384762,13.22321435
1.471121544,-1.1676309861714285,10.021847065761904,4.542402362432381,12.991200627619047
1.476043315,-1.9916428569809526,9.975253286142857,4.142311693560952,12.752099899238099
1.480965164,-2.7222965970761903,9.853322300904763,3.699776151980857,12.485993364952382
1.48588701,-3.370219521647619,9.672320478761904,3.223553533285619,12.188262822714286
1.490808628,-3.957976337028571,9.451991103095239,2.734535674747524,11.877297047619047
1.495730716,-4.493384902028571,9.199555441619047,2.2441457573999046,11.564904543238097
1.500652334,-4.972815702409524,8.91447214752381,1.7844579963522855,11.262149992761906
1.505574178,-5.397925270504762,8.603233064047618,1.3777236490189524,10.974248491333334
1.510496024,-5.77388260197619,8.269415037047619,1.0486461100189524,10.709743448095239
1.51541787,-6.093850595619048,7.910503999761905,0.8214022948760952,10.473137223190477
1.520339717,-6.351992504952381,7.524088734142856,0.7031270043999048,10.254920071380953
1.525261539,-6.554111355809524,7.124219757523809,0.6921700472094285,10.052367647714286
1.530183385,-6.720017206095238,6.726852189476191,0.7710025259237143,9.876205453095238
1.535105132,-6.862349532857143,6.341457060190477,0.9117512367808571,9.72859682252381
1.540026976,-6.977015540666667,5.96903183347619,1.0941439531665713,9.600480039428572
1.544948822,-7.061544577238095,5.616694461761905,1.2999035224570477,9.485448803857143
1.54987066,-7.123067719523809,5.284015780428571,1.5170840393960954,9.37784939452381
1.554792277,-7.174780323333334,4.968930448809524,1.7427217598341904,9.28086133942857
1.559714371,-7.224529947523809,4.66545382,1.9697990466960953,9.193068092285714
1.564635988,-7.270589851142857,4.374768972428572,2.1854886688960953,9.110483741666666
1.569557832,-7.310549985714284,4.1003275939999995,2.3833034797294284,9.033839080857142
1.574479574,-7.348044463476191,3.843520170238095,2.5526623860151427,8.964610563952382
1.579401495,-7.387056486857143,3.6069514184285714,2.684510105362762,8.90509417347619
1.584323572,-7.436935856142857,3.3896627142857145,2.7734267242761903,8.862038699142856
1.58924516,-7.499853497380952,3.192965297523809,2.815685107542857,8.837271997857144
1.594167004,-7.55597877495238,3.0034433944285714,2.828151299790476,8.809679174809522
1.599088776,-7.603276865761906,2.815072071,2.8223322998428575,8.776651454904762
1.60401063,-7.650445620190476,2.6335350786190475,2.7842292969666667,8.747371406761905
1.608932247,-7.70403301147619,2.463979545095238,2.7058445839238097,8.730741771952381
1.613854293,-7.769232091476191,2.3096246321904763,2.591007346152381,8.732452132142859
1.61877591,-7.844400928190477,2.1733672505238095,2.4470431065809524,8.750272380666667
1.623697755,-7.926869210809524,2.058563397,2.2791957286761906,8.780125817000002
1.628619606,-8.013357253380953,1.9562310207142857,2.0814373038190475,8.810271307904761
1.633541452,-8.091779777047618,1.864221169809524,1.852937397438095,8.825862618380953
1.638463278,-8.154838448571429,1.7819536015714286,1.602473974152381,8.821168695142857
1.643385124,-8.20936965947619,1.7148501248095236,1.339201450295238,8.803513264142858
1.64830697,-8.257417678857143,1.6539355515714285,1.0801282609714284,8.775279122380953
1.653228808,-8.290192763047619,1.5906746897619048,0.8402331243761905,8.730908683761905
1.658150655,-8.291384447190476,1.5171151614714287,0.6243545469771429,8.656267522761905
1.663072425,-8.250160398952382,1.4327498276666666,0.43810040326761907,8.546544691476191
1.667994269,-8.165498551904761,1.3410801106380952,0.2886415890533333,8.406809317428571
1.672916105,-8.037068412476192,1.2424476795138095,0.17727920557714288,8.238490759619047
1.677837952,-7.851664406952381,1.134127583785238,0.10680106143428574,8.031851496619048
1.682759559,-7.5911806197619045,1.0148858693138096,0.08793277405333336,7.783203649285714
1.687681403,-7.224280490776191,0.8751900603138095,0.1341635841009524,7.520840469904762
1.692603249,-6.7220111773476185,0.6994094404090475,0.2545620090057143,7.325896672285714
1.697525095,-6.07649841482381,0.4852863503138096,0.42671277701047616,7.2589914942857146
1.702446867,-5.278147081538096,0.24120530159952386,0.6274709617342857,7.329168826666667
1.707368788,-4.340491587252381,-0.024527599876666698,0.8566043818009523,7.519261237190477
1.712290636,-3.3012012501095236,-0.29511692311476195,1.1030426707485714,7.792551341523809
1.717212482,-2.1925218873,-0.5604834092576191,1.3579607238057143,8.118843910761903
1.722134251,-1.0245464159666666,-0.8219759738290475,1.6135816802342857,8.494338257619047
1.727056191,0.21418982769999986,-1.086262168352857,1.8640295268533333,8.933239382142856
1.73197804,1.5449413828904761,-1.3589137044957145,2.113681095139048,9.462188411571429
1.736899819,3.0027245371761904,-1.6497899000195237,2.365782942234286,10.126274409523809
1.741821663,4.611314299795238,-1.9694614173528573,2.6189535517104763,10.956097422380951
1.74674328,6.373330414604761,-2.3305332196385713,2.881215839281905,11.96205101457143
1.751665312,8.278877011842857,-2.742216551971905,3.1709371692723813,13.152209673809523
1.75658716,10.28492319365238,-3.2030502944957147,3.5068422642009525,14.50428480985714
1.761508776,12.296445168938098,-3.682958823300476,3.8906148644095233,15.938472320714286
1.766430634,14.195698810033335,-4.134770874876667,4.32305844345238,17.33831244104762
1.77135248,15.908188392414289,-4.530469911848095,4.799803444190476,18.624409709047615
1.776274326,17.44395040722381,-4.882307860152381,5.301889430952381,19.814649826714284
1.781196179,18.858294286461906,-5.2304145836142855,5.803724402428571,20.990535033761905
1.786118025,20.194016573747618,-5.620545642761905,6.271503652619048,22.225410952809522
1.79103981,21.442912806238095,-6.067534645476191,6.662910109380952,23.497713407476187
1.795961654,22.556540580714287,-6.556845245190477,6.9515293438571435,24.695949945761907
1.8008835,23.497035617380952,-7.0659301510952375,7.122884273428572,25.745553426666667
1.805805085,24.232982953809522,-7.571009046047619,7.17771498352381,26.603847267142857
1.810726929,24.752162706666667,-8.042181083809524,7.1175909495238106,27.245548675714282
1.815649015,25.06215236380952,-8.454602787380953,6.950440327238095,27.669731871904766
1.820570632,25.167404084761902,-8.78879962752381,6.6761391331904765,27.878320242380948
1.825492476,25.073478926190475,-9.036768414761905,6.296180038095238,27.88777008619047
1.830414313,24.76910999857143,-9.201988788904762,5.835394195,27.70667246904762
1.83533616,24.23962361495238,-9.288885299238094,5.300956674809524,27.343366648571426
1.840258006,23.458575180619047,-9.290383907619047,4.715905297190476,26.780900945238095
1.845179837,22.416093372285715,-9.199768725904761,4.102226024380952,26.012807984761906
1.850101608,21.121399419666666,-9.006812119380953,3.483649406952381,25.02754088038095
1.855023452,19.589446551576188,-8.705649933285715,2.8745897552857143,23.80878583209524
1.859945065,17.8607387951,-8.300419953233334,2.276449243095238,22.38464792904762
1.864866909,16.032926974814284,-7.826403709709524,1.704920501809524,20.855928068333334
1.869788765,14.232324447719046,-7.342361087947619,1.1539452131428574,19.383930349476188
1.874710842,12.52203687662381,-6.8866270961380955,0.620637307604762,18.10178200757143
1.879632459,10.896823094671428,-6.456250912757143,0.09960589368095249,17.004638150095236
1.884554304,9.301552483766667,-6.0205220449,-0.397420600795238,16.009385835904762
1.88947615,7.671907363433333,-5.549136795828571,-0.8724519027,15.04292816652381
1.894397996,5.991615552004761,-5.031448793171428,-1.3209009809380952,14.08634571161905
1.899319871,4.311294176385713,-4.4961260018904765,-1.7268286901285717,13.14104890542857
1.904241717,2.6619738466714287,-3.9509333855571422,-2.090366769433333,12.22156775352381
1.909163563,1.0682703496714283,-3.407926590557143,-2.4215113776571426,11.36346879495238
1.91408533,-0.4397721219952383,-2.9065217940333334,-2.6883805252761905,10.611317551142857
1.919006945,-1.8417792251857146,-2.4847875743190477,-2.871085382704762,10.012135827809525
1.923928775,-3.1172546366142857,-2.1712631463190477,-2.956696050561905,9.599141697333334
1.928850621,-4.263314263280952,-1.9696240390333333,-2.9385139658476187,9.357643688761906
1.933772693,-5.273800866138095,-1.8689588103190475,-2.8378421181809523,9.257557932571428
1.938694311,-6.144057381090477,-1.8546616655571428,-2.662678213371428,9.252417689714285
1.943616078,-6.889155245328571,-1.9128854807476188,-2.438233301752381,9.315185025904762
1.94853802,-7.5330362031857145,-2.0322232438904764,-2.181417595752381,9.424450714
1.953459868,-8.0901607439,-2.206020056557143,-1.9269017435142857,9.580667400285714
1.958381695,-8.564471109142858,-2.4240074463190475,-1.7151873736095236,9.79320985904762
1.963303617,-8.955767870761905,-2.6763954950380957,-1.578208951704762,10.060231009238096
1.968225465,-9.27500123147619,-2.9485248348476194,-1.537345187990476,10.366876442809524
1.973147301,-9.534463292857144,-3.2267706017999997,-1.5848027127047617,10.669798997857143
1.97806907,-9.723144009761905,-3.5070548362761906,-1.7085445650714288,10.914005225
1.98299068,-9.843500092666668,-3.7871619200380953,-1.8826999025285711,11.086386938666667
1.987912524,-9.90231336942857,-4.0629143963238095,-2.0868594291476192,11.19405964095238
1.992834582,-9.898451124666668,-4.323282536300001,-2.2924785770047618,11.243910861761904
1.997756199,-9.835882823428571,-4.558488210052381,-2.4759538102428573,11.245061990285715
2.002678043,-9.742454847476191,-4.744097153333334,-2.635531526195238,11.221440787380953
2.007599913,-9.636534805142858,-4.886246,-2.7553505244142857,11.187187183190478
2.01252176,-9.52172045557143,-5.002202862761905,-2.8127324807619045,11.141494157
2.017443615,-9.399180526571428,-5.093974204238095,-2.8323322477142856,11.081041661238094
2.022365386,-9.258127213238096,-5.163132485809523,-2.829385394095238,10.995568207285714
2.027287307,-9.089615436380953,-5.209928012952381,-2.810957057095238,10.877317759428573
2.03220917,-8.901714098190476,-5.235313960380952,-2.778842528666667,10.731378574666666
2.037130939,-8.714773768619049,-5.232412814999999,-2.732320762809524,10.567599926142858
2.042052784,-8.544086864952382,-5.199977783857143,-2.671909809095238,10.39741696147619
2.046974644,-8.386554536285715,-5.1456518853809525,-2.600945620285714,10.223082295142857
2.051896261,-8.232385476142857,-5.080216271476191,-2.533447997904762,10.04610868047619
2.056818115,-8.082162947809524,-5.009180636571428,-2.4763038555714285,9.871647040380953
2.061739961,-7.943024113190476,-4.935056867999999,-2.4315567073333333,9.707847187285713
2.066661808,-7.818567957095238,-4.862865243619048,-2.3964857544285714,9.559897653857142
2.071583875,-7.706513404761905,-4.798589422571429,-2.3729853346190475,9.429485965238095
2.076505492,-7.60372155047619,-4.744786705238095,-2.3676372425714285,9.317201127666667
2.081427259,-7.5038668540952385,-4.700877144142857,-2.385337676333333,9.21918724195238
2.086349196,-7.412637279095238,-4.659273147476191,-2.4292382001904764,9.139203722714285
2.091271044,-7.338956514904763,-4.6163004806190475,-2.5078030938095237,9.087103986999999
2.096192891,-7.287410826857142,-4.568875573857143,-2.619340947714286,9.065218660380951
2.101114641,-7.259017444761905,-4.518443323238095,-2.7556066115714284,9.07100226847619
2.106036256,-7.255783239952381,-4.458732377857142,-2.913637269142857,9.102233376619049
2.110958076,-7.275698707190476,-4.389212869380953,-3.0793382610952382,9.151349085095237
2.115879923,-7.311369850476191,-4.310488996,-3.244726743047619,9.209152605571429
2.120801774,-7.35631702057143,-4.222784610000001,-3.399093781238095,9.265734089428571
2.12572362,-7.411434377952381,-4.123870327333334,-3.5371730725238097,9.318017881476191
2.13064548,-7.479910509904762,-4.010262909333333,-3.659636071761905,9.366941961714284
2.135567326,-7.5544315065714285,-3.886996961714286,-3.766139217761905,9.408487251428571
2.140489098,-7.6194411686666665,-3.7657530080000003,-3.861723315142857,9.439533357666667
2.145410937,-7.666829268190476,-3.6513958998095237,-3.9478600876666663,9.455722403619047
2.15033286,-7.691795462714285,-3.5476137569047617,-4.015507749190476,9.45085930247619
2.155254708,-7.692705131761905,-3.451043980333333,-4.048827750380952,9.417954980333334
2.16017655,-7.660257157857144,-3.360070080857143,-4.035286608238095,9.346872577380951
2.165098396,-7.581901141619048,-3.273468698666667,-3.96253761227619,9.226912230523808
2.170020166,-7.458771160714285,-3.1882649942857144,-3.8273051409857146,9.064807221142857
2.17494179,-7.301745346666667,-3.0994797149523814,-3.6333377077952385,8.877078774761905
2.179863634,-7.118052766476191,-3.0061171394761907,-3.382403754128571,8.676303278095238
2.18478548,-6.898356324190476,-2.9134884220476187,-3.079152805509524,8.46199597857143
2.189707251,-6.62213609904762,-2.8237922361428573,-2.726296373842857,8.229735394285715
2.194629173,-6.284480674,-2.7317519017142855,-2.3346111037,7.981331173333333
2.199550963,-5.885275244771428,-2.6376542874285716,-1.9184571050809525,7.726187240904762
2.204472807,-5.401536640723809,-2.5446614821428573,-1.4916105895095235,7.485795760904763
2.209394653,-4.806288940628572,-2.463893055904762,-1.0474626961285713,7.306758718952381
2.214316591,-4.087248751152381,-2.395733770857143,-0.583679613652381,7.217971414571428
2.219238439,-3.2445357584380954,-2.332030915047619,-0.08063030812857137,7.244028534571428
2.224160286,-2.282484911866667,-2.265191674190476,0.48046025206190485,7.406812198857144
2.229082031,-1.203328808438095,-2.1966444423809524,1.1062281188238097,7.715430085047619
2.234003875,-0.021501967152380935,-2.1203103405714288,1.8023363919190476,8.161227081714287
2.238925468,1.238506980847619,-2.031434286190476,2.5585079819190475,8.725027672
2.243847313,2.5550520133714287,-1.9265806674857142,3.348111442252381,9.378662884285713
2.248769144,3.9179004539904763,-1.8130543842333335,4.13840677077619,10.109741030142857
2.253690915,5.345885826990476,-1.7167719985666667,4.8871319013,10.930083876190476
2.258612759,6.8835626611333325,-1.6809162909000002,5.557742738014286,11.880437444428571
2.26353461,8.552666964609525,-1.7390401519476193,6.138486062252381,13.005544211285715
2.268456456,10.318916189942858,-1.8826112449000003,6.627369733576191,14.301668157428573
2.273378303,12.11134763532381,-2.0714150879952378,7.049311275047619,15.697114965476189
2.27830024,13.846490184228571,-2.259073607947619,7.437393768,17.085562877619047
2.283222088,15.465532410609523,-2.4211617920904764,7.824802830857142,18.39748233138095
2.288143857,16.945839637561903,-2.56913487542381,8.249073960095238,19.643452245190478
2.293065692,18.312139499419047,-2.7377313531380953,8.722617002238096,20.882965070619047
2.29798731,19.617432156895237,-2.9603230598047623,9.24303888204762,22.16736027061905
2.302909154,20.89012588757143,-3.247365859233333,9.782168207571427,23.498894925380952
2.307831,22.09454568209524,-3.5795241068523813,10.302682502571429,24.818653950809523
2.31275286,23.180851300190476,-3.932075873614286,10.753367175095239,26.035628329428576
2.317674706,24.115026019619044,-4.28025517994762,11.09624342795238,27.08414762142857
2.322596502,24.866912024285718,-4.600844324995238,11.298197611047618,27.913049479523814
2.327518346,25.40259670095238,-4.878008647995237,11.342086815714286,28.47910265333333
2.332440269,25.690902891904763,-5.088186688328572,11.229972431666667,28.746812119999998
2.337362045,25.729608081904757,-5.229565204566667,10.970858302476191,28.713054935714283
2.342283966,25.553002585238097,-5.3129796342809525,10.575510570809524,28.415510807142862
2.347205737,25.20399048285714,-5.347507821604762,10.074750685476191,27.912754207142857
2.352127582,24.69951747809524,-5.334377058857143,9.498130462823811,27.243045620952383
2.357049428,24.008461499047616,-5.246857106619048,8.886628374514284,26.406343264
2.361971264,23.075812771952382,-5.046249347047619,8.283844966895238,25.38019546942857
2.366892881,21.870134218285713,-4.714187250238096,7.704393360466666,24.153925612571427
2.371814715,20.426734124714283,-4.282529629380953,7.152320165561905,22.77433690390476
2.376736562,18.834122638671428,-3.8172357337142864,6.607392296038096,21.328675384857142
2.381658639,17.19286199200476,-3.386050692571429,6.041297568276191,19.92490769857143
2.386580252,15.573549001576193,-3.0226518000476195,5.4220270730380955,18.637291138142857
2.391502096,13.996527107719048,-2.718449095857143,4.7144745153238095,17.464628897619047
2.396423867,12.42296071648095,-2.4439391436904763,3.904419327657143,16.358339556904763
2.401345807,10.789443292195239,-2.169254772704762,2.9998400286571427,15.279635474142857
2.406267579,9.075207895433334,-1.8868282564666667,2.0325549857523812,14.220609087476191
2.4111895,7.319437166766666,-1.6146110054666667,1.040365124466667,13.208047758428572
2.416111271,5.567144988052381,-1.375934525609524,0.06761484651428581,12.278098901761904
2.421033115,3.854017533814286,-1.1961264993238097,-0.8566850295333333,11.46704775795238
2.425954747,2.2115937222428568,-1.098235940609524,-1.7205351235333335,10.80332130842857
2.430876591,0.6698436315761903,-1.0926462738000002,-2.527993910247619,10.312835837476191
2.435798476,-0.7381334271380954,-1.1889476250857145,-3.283434032057143,10.014280380809524
2.440720322,-1.993786626852381,-1.3893365335142858,-3.993440155533333,9.909828252238096
2.445642093,-3.1051824175190474,-1.680740848895238,-4.652757308152381,9.972025479857143
2.450564014,-4.09916282542381,-2.0473059061333334,-5.2478153066285715,10.156620324619047
2.455485786,-4.994430947852381,-2.4727058368476187,-5.76741260302381,10.434750451285714
2.46040763,-5.787233304423809,-2.9457081514190477,-6.2085179148571426,10.791260396333334
2.465329476,-6.467296438566667,-3.457364526561905,-6.576935177904762,11.203559144714287
2.470251399,-7.026860234280951,-3.9915396614190475,-6.879127457190476,11.638883267285715
2.475173247,-7.4695991022333335,-4.524683579133334,-7.120825461142857,12.054223152619048
2.480095092,-7.808300336190476,-5.037474429371429,-7.302423647619047,12.42517797690476
2.485016862,-8.054830959857142,-5.511973609561904,-7.422613166761905,12.737864721285714
2.489938477,-8.21710482095238,-5.939723652038095,-7.47705464147619,12.978946351238093
2.494860302,-8.302308014476191,-6.3146337000857145,-7.46214673647619,13.144382611619047
2.499782148,-8.318720091,-6.628168936252381,-7.371260069857143,13.231460740714287
2.504703986,-8.261878240714285,-6.886394546095238,-7.205681693199999,13.234517976238093
2.509625832,-8.142685754,-7.091842696761905,-6.968618686495714,13.160690690190476
2.514547603,-7.9809949966190485,-7.241473742857143,-6.6674205942528575,13.019971682238095
2.519469461,-7.79704986304762,-7.331924461142857,-6.321098699252857,12.82187203095238
2.524391307,-7.598830609142857,-7.363098121809524,-5.944945787906191,12.566501589571427
2.529313153,-7.391958077809524,-7.344330061047619,-5.545681267801429,12.260514154761907
2.534235063,-7.177543435809523,-7.286984648,-5.132421296134761,11.911016431238094
2.539156911,-6.960889521095238,-7.206862835619048,-4.715993501991905,11.535481620190476
2.54407868,-6.749313967571429,-7.1140895570476195,-4.303449478610952,11.149516925285715
2.549000514,-6.5502975781904755,-7.009044806142858,-3.904311561801429,10.763579948666667
2.553922132,-6.363211858857143,-6.894168513142856,-3.5385873273728574,10.391228448714285
2.558843966,-6.183212870666667,-6.771713960714286,-3.214888931420476,10.03847368004762
2.563765812,-6.010722864238095,-6.647931893666667,-2.93586213923,9.712408876761904
2.568687658,-5.85157383052381,-6.526726041523809,-2.701579918087143,9.419807791761903
2.573609429,-5.712801365571428,-6.4146028699999995,-2.508835935515714,9.167814968333332
2.57853135,-5.5986699830476185,-6.317479428761904,-2.3614428905157143,8.964724172952382
2.583453127,-5.510394550476191,-6.233289332619047,-2.2604237124204762,8.809931978761904
2.588375048,-5.441587311857143,-6.163543156238096,-2.205420058039524,8.69810363504762
2.593296819,-5.391441118142857,-6.106907594809524,-2.2014597778490477,8.627287565666666
2.598218755,-5.363808018809523,-6.057102203428571,-2.2501409120871427,8.593612983380954
2.603140526,-5.354080745095239,-6.01871876495238,-2.357245287325238,8.594580426904761
2.60806237,-5.35947801947619,-5.988723573285714,-2.514341480268095,8.62023693295238
2.612984213,-5.374641736285715,-5.959557896619048,-2.7103488984961905,8.657916389428571
2.61790583,-5.404533931142858,-5.931178660666667,-2.9311791758342856,8.709365627
2.622827664,-5.445533775142858,-5.9042724655238095,-3.158798136929524,8.772562197952382
2.62774951,-5.498516446047619,-5.877688952904761,-3.378426049466667,8.847298808428572
2.632671356,-5.565454369476191,-5.845761866857143,-3.587897187238095,8.930450470428573
2.637593128,-5.643293903,-5.8068968682857145,-3.781822760904762,9.017136727190476
2.642515039,-5.7275491669523815,-5.757875760476191,-3.9572710877142856,9.10001352847619
2.64743681,-5.814315500761905,-5.695567903142857,-4.111731336190476,9.171669090809523
2.652358654,-5.8975920904761905,-5.624754156428572,-4.242639042047619,9.229853673619047
2.657280519,-5.976292655666667,-5.550152347238095,-4.342660574666667,9.273249864333334
2.662202442,-6.045706794428572,-5.475815341619048,-4.409612383142857,9.299145184285715
2.667124214,-6.09691710704762,-5.407537483047619,-4.444265581333333,9.304698704285714
2.672046121,-6.124651409428571,-5.349450247619048,-4.447974102857143,9.288617669380953
2.676967892,-6.124435175142858,-5.299061956857143,-4.421443473714286,9.246199781142858
2.681889507,-6.1027154015238105,-5.249045667190476,-4.365209749761904,9.178096815761904
2.686811318,-6.0585821697619044,-5.192985194047619,-4.28428627195238,9.08299774404762
2.691733164,-5.985919884333334,-5.132364659047619,-4.176483074809524,8.958302357571428
2.696655241,-5.877463215904762,-5.060535930428572,-4.032195877457143,8.794412596238095
2.701576902,-5.727363120952381,-4.979724747761905,-3.853552453228571,8.592382611142856
2.706498746,-5.527621167095238,-4.887804610380952,-3.6484944093047624,8.348759744333332
2.711420513,-5.277499641761905,-4.781477053952381,-3.4347540746904763,8.066915336142857
2.716342357,-4.981643840738095,-4.660522585809524,-3.2232311804428573,7.758562872666666
2.72126428,-4.630322606133333,-4.525452784142857,-3.0088814741619045,7.4428419379047615
2.726186128,-4.2024521849428575,-4.37848778,-2.7849705137571426,7.1614133723333335
2.731107974,-3.6765706901809523,-4.225798254904762,-2.535600696652381,6.959722244380952
2.73602982,-3.035373530990476,-4.078035434047619,-2.2337212282238093,6.86814030495238
2.740951604,-2.272367048180952,-3.9377863292857143,-1.865010517366667,6.902426064571428
2.745873219,-1.3852397168952382,-3.8099446636666663,-1.4214959546047619,7.072505885285714
2.750795222,-0.36713107641904763,-3.694741373904762,-0.8958355078904762,7.390734739761905
2.755716839,0.7842744622,-3.580870980238095,-0.2977768981761904,7.8611472183333335
2.760638693,2.071085768819048,-3.451292650952381,0.3615076481095239,8.483647416619046
2.76556054,3.481749600390476,-3.284215518333333,1.0729178299666668,9.25460377152381
2.770482386,4.981725645057143,-3.0667685574714287,1.8189135332523814,10.151244218142857
2.775404157,6.549810407342857,-2.808562502204762,2.5750062862047622,11.156775657095238
2.780326001,8.190988697485713,-2.5497628811761905,3.3222642906809523,12.277110929238095
2.785247847,9.949990088580952,-2.35351836252381,4.060978645061905,13.550091340952381
2.790169774,11.856915834723809,-2.254210462142857,4.790454109252381,15.01242608447619
2.795091623,13.863119826723809,-2.2197108509523806,5.509062397966667,16.630774113238097
2.800013469,15.865270373723806,-2.2049875727142854,6.217442986566666,18.31863141395238
2.804935228,17.74670722110476,-2.169292246952381,6.909846218814285,19.965251726238098
2.809856843,19.424065939390477,-2.1121300131904763,7.601628384033332,21.507293079238096
2.814778683,20.9094136872,-2.075650244904762,8.313832491371429,22.96224964861905
2.819700529,22.271805811128573,-2.106956625238095,9.041662336314285,24.380042121666666
2.824622365,23.568276620761907,-2.229955385095238,9.755493415461904,25.79080971204762
2.829544136,24.79754043728571,-2.431686294904762,10.409224609580953,27.15852383509524
2.83446598,25.92478749852381,-2.680742043809524,10.969628169238096,28.421384503476194
2.839387817,26.91392140157143,-2.932260861,11.399839673333334,29.521016059047618
2.844309664,27.725887889047623,-3.1442395349523813,11.676227489714286,30.403694241428575
2.84923151,28.318695749523812,-3.273987731761905,11.793639432428572,31.019892513809527
2.854153428,28.642156600952383,-3.300691452761905,11.767707370190477,31.323338670000005
2.859075276,28.66025733952381,-3.230628980047619,11.637725080380951,31.293728736666665
2.863997045,28.369157881904762,-3.089491404242857,11.43508659052381,30.945770927619048
2.868918884,27.798709051904762,-2.910015733480952,11.178028106333333,30.328419679999996
2.873840502,26.989861215761906,-2.7201538774380953,10.892836207,29.508903705238097
2.878762351,25.971489315761907,-2.5260880170857143,10.597920644190477,28.54515992514286
2.883684197,24.74833360142857,-2.310071497447619,10.289480118047619,27.45593992566667
2.888606062,23.292211350809527,-2.0347323545285714,9.946122668571428,26.207959899238094
2.893527908,21.58494012705238,-1.6938683092428573,9.552964209999999,24.76258364290476
2.89844968,19.67606551314762,-1.3379591093380951,9.088306823666667,23.149434705333334
2.903371601,17.66781600314762,-1.0316619206238096,8.534352142761906,21.47602047495238
2.908293372,15.678435484671427,-0.8219776281476189,7.893491579714286,19.885576893428574
2.913215245,13.786732196766666,-0.7129536767857143,7.163218176766668,18.47772971190476
2.918137168,11.983816646338095,-0.6624897278809524,6.337768306909525,17.25520937442857
2.923059016,10.222154163147618,-0.618285583595238,5.432386082671428,16.158295545142856
2.927980863,8.451612835719047,-0.5588468213571428,4.4881982371476195,15.12973611561905
2.932902709,6.662526948052381,-0.4968984311190476,3.5550659975761905,14.15989373038095
2.937824222,4.878591173909523,-0.4569102539761905,2.654542721242857,13.262219495142855
2.942746066,3.1239581785761907,-0.4663033783095238,1.8097919764809525,12.45621890895238
2.947667913,1.4284297847666663,-0.5584535215,1.0457886769571427,11.772912842761905
2.952590067,-0.16784713409047636,-0.7593096622142856,0.3631251227190478,11.243896355619048
2.957511684,-1.6218213584714287,-1.0807287647857142,-0.26535027085238083,10.900060644666667
2.962433538,-2.905700502138095,-1.5103941657380953,-0.872500780090476,10.75123755847619
2.967355309,-4.01977620837619,-2.026162317638095,-1.477363084042857,10.774206177047619
2.972277168,-4.983922595185715,-2.6124386900190473,-2.0800133404238093,10.91699547657143
2.977199014,-5.804025559328571,-3.254107338971429,-2.6777148445190475,11.129766249904762
2.982120937,-6.479609852852382,-3.9350660868285714,-3.261180556947619,11.365859005714285
2.987042785,-7.021838313138095,-4.625854423971428,-3.810329366280952,11.598695794714285
2.991964631,-7.445386273566666,-5.297434307209524,-4.300849457566667,11.818719177333334
2.9968864,-7.762501659904762,-5.927776768019048,-4.718557411661904,12.033092259857144
3.00180827,-7.9770940372380945,-6.5028373399238095,-5.049284500661905,12.254123268857143
3.006729887,-8.098029023142857,-7.011990819542857,-5.293870071471428,12.476488956380953
3.011651953,-8.135770729619047,-7.449225732161905,-5.450956313328572,12.671128877857143
3.016573801,-8.094780149904762,-7.814473867333334,-5.522095407714286,12.806500631285715
3.021495647,-7.977279731190476,-8.106629723476189,-5.515610882190477,12.858309312904762
3.026417287,-7.807404132095239,-8.333389429714286,-5.444959549666667,12.833958386857143
3.031339054,-7.599569275238095,-8.49177698852381,-5.337261018285714,12.743654865952381
3.036260977,-7.367046537857142,-8.583771319523809,-5.208723499666666,12.60042110557143
3.041182825,-7.125181311619048,-8.612838835857143,-5.062347491571429,12.413143366
3.046104671,-6.879466556333334,-8.587009089238096,-4.906068915380953,12.18934986404762
3.051026517,-6.627592745238094,-8.515386081809524,-4.751816227285714,11.937647370380953
3.055948363,-6.369812170619047,-8.412998926,-4.598818574571429,11.66682456657143
3.060870209,-6.104573249761906,-8.28781616138095,-4.441748028666667,11.377508583190476
3.065791974,-5.8321232340952385,-8.155809152809525,-4.280012221523809,11.078429183380953
3.070713589,-5.548111291095238,-8.028222901619047,-4.122171878809523,10.778842437666666
3.07563541,-5.258216721619047,-7.903935863857144,-3.984696479095238,10.487648237857142
3.080557256,-4.977748552904762,-7.775323345523809,-3.8860549699999996,10.214722927
3.085479116,-4.7212759199047625,-7.64200355895238,-3.832817826952381,9.97064001947619
3.090400887,-4.493434270190476,-7.510369982095238,-3.8236910275238096,9.760265427761905
3.09532276,-4.293463264190477,-7.387815816095238,-3.8581746646666666,9.586419799809525
3.100244531,-4.1230652105238095,-7.274651209571428,-3.9288602443333334,9.445870798000001
3.105166376,-3.9831306479999995,-7.1673064005714275,-4.023765575380953,9.33102805952381
3.110088294,-3.867201407761905,-7.06656692152381,-4.1269557703809525,9.232777124095238
3.115010142,-3.772214424047619,-6.973727725904762,-4.236862432428571,9.151006066142857
3.119931988,-3.700692392523809,-6.8850684393809525,-4.359485756809524,9.088085063142858
3.124853853,-3.6594138259047617,-6.798991475904762,-4.4903664759523805,9.047962100428572
3.129775622,-3.642996118190476,-6.714444614714285,-4.617114044380953,9.02438131104762
3.134697463,-3.651273261952381,-6.629734947714285,-4.731140136714285,9.013567893047618
3.13961908,-3.6848470256666666,-6.539512770666668,-4.826942761714285,9.008081108761903
3.144540904,-3.740028597095238,-6.4449328696190475,-4.907679342095237,9.006087826428573
3.14946275,-3.814387991380952,-6.349624861000001,-4.976118473761905,9.008502109
3.154384596,-3.9084067004761898,-6.253057570809524,-5.034995056333333,9.014964448142857
3.159306438,-4.023977223,-6.153276489,-5.088841756190476,9.026354595761903
3.164228284,-4.160955077238095,-6.053069659714286,-5.139960606904761,9.045667564380953
3.16915006,-4.3085232122857136,-5.9525360380476195,-5.1913921265238105,9.070396354190475
3.174071981,-4.463428202285714,-5.85406346552381,-5.240090915095239,9.098938672761905
3.178993829,-4.618682827428572,-5.762793472904763,-5.281958761619047,9.130493723999999
3.18391567,-4.7626279537142855,-5.686968349380952,-5.314424242238095,9.165062194857143
3.188837517,-4.889784324857142,-5.624782108190476,-5.336600008428571,9.197564688809523
3.193759026,-4.993879556761905,-5.575309481,-5.352377755238096,9.225950783904763
3.19868087,-5.072392032333333,-5.53317051847619,-5.367621171952381,9.248040334761905
3.203602937,-5.134582973714286,-5.489825044380953,-5.386416980142857,9.265399173047618
3.208524555,-5.191566058619047,-5.440100533619048,-5.403737522238095,9.277076358095238
3.213446399,-5.245260965285714,-5.38008367447619,-5.417801516333334,9.280197649952381
3.218368255,-5.289987995571429,-5.308861482714286,-5.4311951000952385,9.272130011857143
3.223290101,-5.313972268857143,-5.231824920285714,-5.427731400380952,9.238528773571428
3.228211976,-5.299929596190476,-5.1508375462857146,-5.399455342904762,9.165740069666665
3.233133822,-5.245519025047619,-5.062621990809523,-5.345264298523809,9.05070329152381
3.238055669,-5.152936174809524,-4.966005472857143,-5.261368070285714,8.893056800333333
3.242977514,-5.018843548666666,-4.869103942523809,-5.141960348380953,8.695356855333333
3.24789936,-4.834995451476191,-4.776361272380952,-4.981899437428571,8.461057448761904
3.252821206,-4.588774107080953,-4.694048472714286,-4.775743637761904,8.206040312761903
3.257742973,-4.259467016414286,-4.620496431904762,-4.527156733309523,7.958284540238095
3.262664818,-3.8207150690809524,-4.553556896333333,-4.248726503819524,7.757315976428572
3.267586463,-3.258242929985714,-4.4868428139047625,-3.9442997045814288,7.633003634857142
3.272508307,-2.5788974811761904,-4.411553859666666,-3.607600763771904,7.596678828761905
3.277430153,-1.7909181960333334,-4.322332961190476,-3.248142442152857,7.65297658542857
3.282352004,-0.8775963602238095,-4.229631673666667,-2.85957377401,7.832754568761906
3.287273851,0.19706101191904782,-4.147189707904762,-2.4197503395338096,8.184227274476191
3.292195697,1.4542966526333334,-4.080325228761905,-1.891343356200476,8.745880741857142
3.297117582,2.8914460184904764,-4.017171519047619,-1.2447240817242855,9.530675886571428
3.302039428,4.475363727204762,-3.93562752852381,-0.47170697043857146,10.516995065095237
3.306961254,6.180212993109524,-3.8291499046666666,0.40961838818047624,11.670010391
3.3118831,8.023368604347619,-3.7237820398095236,1.34712460999,12.99007252109524
3.316804872,10.043033595728573,-3.658325467761905,2.3172294860376192,14.510499464666665
3.321726449,12.217855949157142,-3.6326933247142854,3.3403530229423817,16.220127159333334
3.326648601,14.432016028157145,-3.5929458935714287,4.411624669704286,18.02813406061905
3.331570352,16.54920752439524,-3.494363228428571,5.5139136423709525,19.826471441666666
3.336491968,18.473175272014288,-3.3447498423380955,6.642278114323333,21.53738047547619
3.341413812,20.16347974420476,-3.186400561790476,7.803158089704287,23.13730300557143
3.346335909,21.685317569204763,-3.0861411385523807,8.986237968037619,24.687634566666663
3.351257757,23.15450218372857,-3.101438664980953,10.136444346656667,26.262208631333333
3.356179603,24.622258902714286,-3.236760815742857,11.187902841513809,27.872500515285715
3.361101232,26.051513695761905,-3.4615488230285716,12.083038062585238,29.451487359952385
3.366023077,27.335504283285715,-3.7184583750761906,12.799121208333334,30.87205608852381
3.370944923,28.397177515761904,-3.9489707215999994,13.318261504285715,32.035667903904766
3.375866745,29.21866780333333,-4.1059218993142865,13.634864983238096,32.91061467619048
3.380788591,29.77647758761905,-4.1706938580761905,13.800443518857142,33.48578230380952
3.385710352,30.017388026666666,-4.150424668504762,13.866493236571428,33.72473415333333
3.390632196,29.88295973,-4.061945581028572,13.842579478428572,33.57492767952381
3.395554043,29.35208674909524,-3.916899678985714,13.709282875190478,33.012252327190474
3.400475709,28.4539042887619,-3.7292246309859522,13.459164540142856,32.067440225238094
3.405397553,27.259009679666665,-3.5281939139716667,13.092118183904761,30.829558886142856
3.410319399,25.821642403557142,-3.3332430097811905,12.615179777095236,29.396976287619047
3.415241265,24.13977169317619,-3.1318841975907143,12.051807902809523,27.833084492952377
3.420163112,22.171482363366664,-2.895747193447857,11.395716496523809,26.149342388095235
3.425084958,19.940223153366667,-2.636820336400238,10.612489254238096,24.374697934619046
3.430006775,17.56212402979524,-2.4131121495907144,9.6987413275,22.612918297476188
3.434928621,15.177357269604762,-2.2776904874954758,8.677254398119048,20.970250060809523
3.439850467,12.89382889627143,-2.2284922971240477,7.571704165928573,19.51289214985714
3.444772279,10.76922898531905,-2.229753773371667,6.391856437214285,18.24669533366667
3.449694051,8.756229041985714,-2.213693869466905,5.151968371023809,17.087872714142854
3.45461589,6.75364394865238,-2.1261194442288094,3.9073833677857146,15.938147267952383
3.459537736,4.71230602722381,-1.9608195745145238,2.7277310176428573,14.758575032238097
3.464459669,2.656255000080953,-1.7505518490859526,1.6782274186904762,13.585999995095237
3.46938144,0.6686578524619052,-1.5495151233716666,0.7938444670238095,12.510081483666665
3.474303285,-1.1847058203952376,-1.412156912038333,0.09334221907142858,11.598919453666666
3.479225135,-2.8863805994428566,-1.3861264397049997,-0.4203038272619048,10.87527842795238
3.484146981,-4.402350193966666,-1.4898341392288093,-0.7921411707380953,10.343469844619047
3.489068598,-5.706274754442857,-1.6967889477049998,-1.0824823209285714,10.014485493666665
3.493990669,-6.789380114395238,-1.9615109998002378,-1.3293548482142856,9.896183353666666
3.498912517,-7.6585625194428575,-2.2581032779383334,-1.561410523642857,9.976994460761906
3.503834364,-8.340505322966667,-2.580756177557143,-1.8034278041666663,10.211369094619048
3.508755863,-8.873633970538096,-2.922904944190476,-2.0604831321666666,10.531630391809523
3.513677707,-9.279865559809522,-3.2754391304761903,-2.320215503452381,10.872638469380952
3.518599553,-9.570886838761904,-3.6283449885714285,-2.5578675100238093,11.175757012619048
3.523521476,-9.746339411714287,-3.9701766045714284,-2.7434221733571427,11.39945419404762
3.528443263,-9.817974907761904,-4.291064942190475,-2.853453077071429,11.529257389285714
3.533365107,-9.797539642666667,-4.577718415428571,-2.8877036004285714,11.559992921190476
3.538286953,-9.703990618190476,-4.824227944714286,-2.8544926473333336,11.505221553761904
3.543208832,-9.54630665547619,-5.034663426033333,-2.773442364904762,11.377101793285714
3.54813045,-9.333322502095237,-5.209935040714286,-2.663714323761905,11.189840758571428
3.553052294,-9.081494717285713,-5.347551277761904,-2.534536656904762,10.961711243238096
3.557974371,-8.811138993142857,-5.444354409333333,-2.3899852264761905,10.712985602238096
3.562896219,-8.533424922285715,-5.496413083333333,-2.2405060870619047,10.45407854242857
3.567818065,-8.25778588795238,-5.503032377809524,-2.0886095663095237,10.190369003666667
3.572739651,-7.9919677916190475,-5.467141367142857,-1.9322033318761906,9.923705855190477
3.577661496,-7.741294588380953,-5.4006715615714285,-1.7709678558742856,9.660227114809524
3.582583342,-7.506872358809524,-5.3102710474285715,-1.6112719545504763,9.401562044904763
3.58750508,-7.302270843904763,-5.191616001619048,-1.4582233356504761,9.151704555952382
3.592426924,-7.121541749904762,-5.05254419647619,-1.3158599051504762,8.909347242
3.59734877,-6.954010009809524,-4.903811897571428,-1.177931903202857,8.672148307190477
3.602270635,-6.80186164947619,-4.751741954285714,-1.0377856136552381,8.445048966809523
3.607192253,-6.673429330190476,-4.59883139247619,-0.8909841859219048,8.237230832952381
3.612114068,-6.5696126392857135,-4.449901149380952,-0.7361403304457143,8.05428226595238
3.617035914,-6.487035092857143,-4.308072589666667,-0.5745958116171428,7.896292781619048
3.621957991,-6.422272477809524,-4.173269442142858,-0.40963223699333334,7.762739966333333
3.626879824,-6.373712812142857,-4.048920165904763,-0.24610857432666666,7.655295368047619
3.63180167,-6.335594131809524,-3.9330243042380952,-0.09020638727904762,7.567533970380952
3.636723286,-6.3090042159047615,-3.828330119428572,0.056872325482857145,7.500664317142857
3.64164514,-6.2915485472380945,-3.732018970285714,0.19339818348285714,7.449439717952381
3.646566986,-6.285297439190476,-3.646708159190476,0.30750551981619045,7.411946972095238
3.651488781,-6.295518148476191,-3.567223639666667,0.39107294895904765,7.3895492488571435
3.656410626,-6.321931339380952,-3.4912513550476185,0.43525185259476185,7.381562501714287
3.661332472,-6.369934785857143,-3.413535220190476,0.4389869010233334,7.392435781333332
3.6662544,-6.444124426095238,-3.3313681170476195,0.4031783775138096,7.426560575619048
3.671176171,-6.547374361999999,-3.245666447047619,0.32770090371380955,7.4878255499523805
3.676097787,-6.6712553841428575,-3.159415880761905,0.2162745708519048,7.57041160652381
3.681019861,-6.811991101190476,-3.0720094044285715,0.07423105251666666,7.6693543474285715
3.68594171,-6.966656185285713,-2.9880000635714286,-0.08877052242619048,7.783356572904761
3.690863551,-7.126324063190476,-2.9146084443809523,-0.25928614056428567,7.909737530619047
3.695785397,-7.285275913333333,-2.856013297952381,-0.4244591900642857,8.04257756142857
3.700707243,-7.433915683095238,-2.8197283062857146,-0.5791215650119048,8.174305603666667
3.705628858,-7.564722583333333,-2.808665445809524,-0.7195065115595237,8.29978148157143
3.710550703,-7.672531831761903,-2.8229472523333334,-0.8433609457690475,8.413250848857142
3.715472577,-7.757548786285714,-2.858772731952381,-0.9532574665309522,8.511835986571429
3.720394348,-7.821132546285714,-2.9124148232857143,-1.0477745130261904,8.59471781304762
3.725316192,-7.864155542190476,-2.9790410655238095,-1.132326942997619,8.660772068904762
3.730238048,-7.888086636761905,-3.0508631184761903,-1.2085832749404761,8.708114384761906
3.735159895,-7.891967727952381,-3.1266272636190475,-1.2708215583590476,8.736416561190477
3.740081517,-7.870945635238095,-3.2047704969523814,-1.3153583206400001,8.741961501809524
3.745003592,-7.820452826285715,-3.2823852584761903,-1.3391456090780953,8.721433024714287
3.74992544,-7.73907965695238,-3.3423204876190473,-1.332426422887619,8.670789886857143
3.754847271,-7.631878603,-3.3728076276666665,-1.2850386100780953,8.591130730571429
3.759769117,-7.499459130380951,-3.3667560986666665,-1.1896495140947618,8.481459656380952
3.764690733,-7.330772649619048,-3.3277473393809522,-1.052711748237619,8.33089488904762
3.769612563,-7.11244882847619,-3.26941415247619,-0.8875190817138096,8.126753383714284
3.774534409,-6.828677075142856,-3.205120864428572,-0.6922294699042857,7.865635774333333
3.77945625,-6.4650932521,-3.1452049585238093,-0.4798868500471428,7.558607469285715
3.784378022,-5.994845347671427,-3.102462479095238,-0.2712866184757142,7.260935628238095
3.789299866,-5.385016080814285,-3.080622905809524,-0.07588223364714282,7.056702886380952
3.794221765,-4.621465436004762,-3.0776988154761904,0.11847014620523812,6.985221102095238
3.799143611,-3.6999970193857132,-3.089663000380953,0.33091233991952385,7.066759253333332
3.804065457,-2.615690802147619,-3.118270050952381,0.5794168083004763,7.329378401142857
3.80898737,-1.3625772372428568,-3.166824675761905,0.8822276589195238,7.787599317904762
3.813909218,0.0700553000428575,-3.2465507586666664,1.25138660811,8.460534593523809
3.818830988,1.6740953550904767,-3.359987287285714,1.6871142213957144,9.343870160904762
3.823752812,3.4095640378523817,-3.4966110104285715,2.1708433057290475,10.395752632571428
3.828674429,5.2132896209,-3.6288552113333337,2.687803750505238,11.544975464380952
3.833596273,7.035977451138096,-3.745751863333333,3.1973080798766667,12.726800712142856
3.83851812,8.923317065661905,-3.8784692343333327,3.668835223771429,13.985493878761904
3.843439942,10.970095222185714,-4.07820049347619,4.111648837338095,15.430357565190475
3.848361788,13.170770755042858,-4.343431569238096,4.543126781395237,17.07413353795238
3.853283559,15.386788478280952,-4.623463238952381,4.971512271966667,18.787261844047617
3.858205461,17.445080413090476,-4.873541792190476,5.384062346633334,20.38868977447619
3.863127232,19.263895530852384,-5.101874890714286,5.769945672061905,21.805357129714288
3.868049077,20.912607189566668,-5.370582410190476,6.1471317663,23.132690600809525
3.872971,22.519359040185716,-5.7548824093809525,6.5438669006809524,24.538573990714283
3.877892848,24.142161013661905,-6.284669807809523,6.948791077538095,26.099019351666666
3.882814617,25.75650816785714,-6.945232198238095,7.338322570633333,27.79489548195238
3.887736466,27.304701145809524,-7.6869647502380944,7.692617977633334,29.529074402476187
3.892658084,28.726221515380953,-8.451334203809525,7.986299017328571,31.169198197333333
3.897580159,29.972397304285714,-9.17365890447619,8.193173339666666,32.621596143333335
3.902502002,30.974064781428567,-9.776290166809522,8.282227333809523,33.78467971
3.907423617,31.642045248095233,-10.189188366714287,8.249571146714285,34.54971003523809
3.912345456,31.898164476666665,-10.379321030095237,8.110515434809523,34.83450336571428
3.917267303,31.728067125238095,-10.35331355947619,7.891774347109524,34.63238120809524
3.922189149,31.1733076,-10.152098031142858,7.626303876442857,34.0054964052381
3.927111,30.30789529666667,-9.823777783001905,7.347335462776191,33.058689246190475
3.932032771,29.233597414571427,-9.429921110001905,7.079486312728572,31.933248333904764
3.936954692,28.0392563,-9.017072160573335,6.8624996567761904,30.75492544138095
3.94187653,26.70497671757143,-8.577202643192381,6.703804140680952,29.504201561523807
3.946798377,25.126676423285716,-8.073593667097143,6.562049286395238,28.05619554147619
3.951720146,23.287545317857145,-7.52448891976381,6.3796362533,26.371914634000003
3.956641985,21.31297012737619,-7.00656849381143,6.109704142061905,24.563863395666665
3.961563831,19.37416166351905,-6.585423801135237,5.730768827776191,22.841616433857144
3.966485454,17.555965207899998,-6.261038848559048,5.232015882019048,21.385916389809523
3.971407298,15.79845379642381,-5.965431758559047,4.5939582071142855,20.171498339809524
3.976329375,13.986379180614284,-5.618955237749524,3.814854746542857,19.041434997
3.981251237,12.064153410328572,-5.181853453654286,2.929305428447619,17.90141208557143
3.986173083,10.039930809280952,-4.661031496225714,2.0052281220666663,16.741389514619048
3.991094718,7.955245892328572,-4.094859759225715,1.1141744227809522,15.575280247952382
3.996016486,5.865219763280952,-3.541577067035238,0.31905570487619045,14.417726926047619
4.000938409,3.821888889328571,-3.0669712341780953,-0.33867653207619053,13.298513792238095
4.005860252,1.8828769975666668,-2.738900502797143,-0.835844959504762,12.296692880809525
4.010782098,0.12142618466190475,-2.6153853737495236,-1.1827872537428572,11.503542667952381
4.015703944,-1.3912050953380954,-2.7188782469876194,-1.4228371097904762,10.99517649795238
4.020625713,-2.6549970422904763,-3.0194592256066666,-1.6164293516142858,10.763730376047619
4.025547558,-3.7061489081952383,-3.4620403910828568,-1.8198694047571427,10.75078498795238
4.030469184,-4.572819857338096,-4.001281677223809,-2.063666218804762,10.886148538904761
4.035391028,-5.289163896004761,-4.595136184176191,-2.3712453274238094,11.090573067380953
4.040312893,-5.896996600290477,-5.205962744842857,-2.748491094233333,11.300287309904762
4.045234739,-6.430664914004762,-5.810766420557143,-3.179532153280953,11.496572800714286
4.050156586,-6.885693879385715,-6.395817775461905,-3.641719012042857,11.700759093619048
4.055078466,-7.245189973338095,-6.949843936414287,-4.098367441280952,11.949205278714285
4.060000312,-7.4999749320476194,-7.454498661795237,-4.503396102328572,12.266249264190476
4.064922158,-7.644046647285713,-7.9003582330904765,-4.812725907280952,12.621388976
4.069844023,-7.682910260761905,-8.284894376666667,-4.991141285238095,12.905261884333335
4.074765869,-7.631708644714285,-8.617173105142857,-5.021191755952381,13.05431863909524
4.079687716,-7.512464841238096,-8.898000320904762,-4.9151172865238095,13.071909375714286
4.084609468,-7.3389726139523805,-9.128999188952381,-4.703974905476191,12.979903655714285
4.089531312,-7.112933930904763,-9.302746001857143,-4.427821568047619,12.796279647
4.094453153,-6.8519413357619054,-9.408102354523809,-4.119348605428572,12.543735136904761
4.099374771,-6.587485040904761,-9.435001170047618,-3.806546018190476,12.251531676047618
4.104296922,-6.344075293714287,-9.387936979190476,-3.5253880137142852,11.951981979095237
4.109218483,-6.118420214809524,-9.278276353761905,-3.3046182450476196,11.655519656619047
4.114140327,-5.911783354571429,-9.111417271904761,-3.163596425666666,11.364437692142857
4.119062173,-5.731950169476191,-8.892161120428572,-3.101849045,11.076244212714286
4.123984019,-5.586108502857143,-8.632677714666666,-3.1087485153809524,10.796599486285714
4.128906096,-5.468969594809524,-8.348965827047618,-3.165074371095238,10.530517977190476
4.133827945,-5.376110599095238,-8.055906205285714,-3.2536728040952387,10.282724798095238
4.138749531,-5.309844970666667,-7.7733781226190475,-3.3490208443809526,10.062531163666666
4.143671375,-5.264666875142858,-7.511058239666666,-3.438952037238095,9.871556749761904
4.148593126,-5.237371989619048,-7.271324225809524,-3.5111239410476194,9.705638986333334
4.15351497,-5.225113369142857,-7.05362869442857,-3.548641749761905,9.556351328
4.158436817,-5.227786132238096,-6.855635438619047,-3.5445006574285713,9.418295160857143
4.163358663,-5.24545878452381,-6.678098769380953,-3.5037567047619045,9.29239148052381
4.168280509,-5.283320063619048,-6.522214617,-3.441012041857143,9.187395355380952
4.173202289,-5.338152022571428,-6.384760902,-3.377647047857143,9.10605720395238
4.178123907,-5.405459699190477,-6.259484359142858,-3.3237371443809516,9.043079748952382
4.183045981,-5.48726665404762,-6.135854425809524,-3.2794195696666666,8.991256440714286
4.18796783,-5.586652801142857,-6.005193233380952,-3.2390489918095233,8.944140151238095
4.192889676,-5.7014941260952385,-5.874890554428571,-3.1951124213333335,8.903302009761905
4.197811522,-5.825067111428571,-5.754502069285714,-3.1501239026666665,8.874598772904763
4.202733382,-5.951754547333333,-5.653013547190476,-3.109033720761905,8.86406019804762
4.207654998,-6.072356360333334,-5.572043146333334,-3.0706518092857142,8.867289388761906
4.212576842,-6.186243443333333,-5.510711896904762,-3.027998668714286,8.881320852380952
4.217498613,-6.287595817095238,-5.468334379571429,-2.9777512436190476,8.900547944380952
4.222420457,-6.369883242190476,-5.444235847,-2.915914961190476,8.91939185704762
4.227342279,-6.4262520019047615,-5.4380005653809524,-2.8392068203809524,8.930740446714285
4.232264125,-6.459763663285715,-5.445974372619047,-2.7431282485714283,8.92978656757143
4.237185972,-6.4744295621428565,-5.464863936047619,-2.626719860761905,8.915228578666667
4.242107828,-6.466073762952381,-5.488230273761904,-2.4980501957619046,8.883802788095238
4.247029674,-6.434820879238096,-5.511023634904761,-2.360587102952381,8.833966709190477
4.251951291,-6.378209068809523,-5.526646114476191,-2.225295435714286,8.763406136666667
4.256873366,-6.300768965904762,-5.527912911857142,-2.1082855291904763,8.67492934147619
4.261795214,-6.207776001666668,-5.510997431571429,-2.014337386333333,8.570656668238096
4.266717061,-6.097550528523809,-5.474634601904762,-1.9400415760476188,8.447525086714286
4.271638897,-5.963799771904762,-5.41654775252381,-1.8766710530476192,8.296842363142858
4.276560743,-5.812309287952381,-5.337404705190476,-1.814228001047619,8.119782339095238
4.281482349,-5.648892187047619,-5.233292136857143,-1.7454593805714287,7.916312547238096
4.286404193,-5.468986886,-5.100757905428571,-1.6663211924285715,7.679979031952381
4.291326059,-5.261749120095239,-4.943492276380953,-1.5730068626428573,7.4044530164285725
4.296247905,-5.021364507333333,-4.763739949238095,-1.4630041008571428,7.0878786683333335
4.301169751,-4.745623415538096,-4.568975794952381,-1.341949098147619,6.738995753523809
4.306091522,-4.439932414566667,-4.365109506142857,-1.2136872850761904,6.3773060206666665
4.311013366,-4.102839508347619,-4.164562089142857,-1.0711827178857143,6.037834497428572
4.315935222,-3.716930654871429,-3.9878929570000006,-0.9125113842190476,5.757322056809524
4.320857068,-3.2573677514904764,-3.8458429518571426,-0.7392371907428572,5.563421399190476
4.325778914,-2.7093810397285716,-3.7365299520476194,-0.546031385695238,5.4708341688571425
4.330700746,-2.0522777055857144,-3.645858571714286,-0.3307888125047619,5.486884560238095
4.335622592,-1.2638585725380953,-3.5593490033333333,-0.08894157555238094,5.632752162761905
4.340544234,-0.3314461069190477,-3.4641009626190473,0.19350485997142858,5.938373798857143
4.345466078,0.7507609824142857,-3.3435407707142857,0.5216431035428571,6.419945485761905
4.350387943,1.9848733586999998,-3.18621034852381,0.9088376689238096,7.087982797142856
4.355309789,3.3692919598428572,-2.993912066761905,1.3782206248285713,7.952214970714285
4.360231625,4.878033928985714,-2.7691121626714286,1.9449080670666665,8.99340389709524
4.365153471,6.4475469091285715,-2.5020807882238096,2.606968004495238,10.150769146047619
4.370075243,8.04493815127143,-2.205760701795238,3.3414115043047623,11.39423116409524
4.374997179,9.744267255223809,-1.9455899411761903,4.117843110019048,12.78153801757143
4.379919025,11.635298565985714,-1.7818713216476192,4.918963380114286,14.38676587447619
4.384840871,13.666719443795238,-1.6999618921714288,5.730343113685714,16.167720616095238
4.389762731,15.69728597708095,-1.6347217417428574,6.540068432447619,18.003756385333332
4.394684578,17.612787049366666,-1.553169603790476,7.346969864709525,19.80234699604762
4.399606424,19.36734630527143,-1.4835912201380954,8.167096539971428,21.541632474809525
4.404528251,21.008718244904763,-1.4985608415190477,9.018693438880952,23.271513283238093
4.409449868,22.610175900219048,-1.6413237409476191,9.874061000142856,25.028303656095236
4.414371712,24.21388177614286,-1.902606837757143,10.67871299261905,26.805108070333333
4.419293559,25.818580048047618,-2.240130967995238,11.37101836447619,28.55821852457143
4.424215434,27.380519389666667,-2.604281003757143,11.908984888380953,30.22873459561905
4.42913728,28.833249341238094,-2.947210628090476,12.247780868190475,31.741135342238096
4.434059051,30.078935168571427,-3.212741781995238,12.389833393761906,33.005038360952376
4.438980895,31.006404967142856,-3.346159683566667,12.36405372642857,33.91555142809524
4.443902741,31.544663201428573,-3.3246555425190474,12.215830241142855,34.40947251238096
4.448824665,31.69457916904762,-3.1801371128295237,12.005355948714286,34.505953186190474
4.453746522,31.495911642857145,-2.969291256400952,11.767134814238094,34.25921481428571
4.458668368,30.987658636190478,-2.7269710196866668,11.503333954761905,33.71677857904761
4.463590137,30.218588782857143,-2.4835012123009528,11.197152046857143,32.93160454619048
4.468511952,29.264973049476193,-2.2751476474628567,10.83009640347619,31.973970024761904
4.47343357,28.167983031714286,-2.1090115075580953,10.394834654523809,30.87719614461905
4.478355635,26.862131435761906,-1.9412375625580953,9.885336944095238,29.57409349019048
4.483277483,25.25466279657143,-1.7258004099914284,9.299863531285714,27.98007562109524
4.488199358,23.39572630177143,-1.4939619793247618,8.63765637057143,26.144608887761905
4.493120973,21.423187813628573,-1.3229108347533334,7.889950098390477,24.24585959390476
4.498042818,19.446854604200002,-1.24676054942,7.041225426580953,22.48871922
4.502964669,17.51732273462857,-1.2388495495509524,6.0673350881047625,20.93951087147619
4.507886515,15.606676091914286,-1.2298062136461905,4.966361368533334,19.532635867238096
4.512808337,13.66898415372381,-1.176438928122381,3.7847786223904754,18.19569179628572
4.517730183,11.676698856676191,-1.0765476288366667,2.5901564465333333,16.884371468190473
4.522652029,9.625867629676192,-0.9526512116461906,1.4658040822476188,15.590842083428573
4.527573823,7.542736384533335,-0.8365478124557142,0.4819956101523808,14.331162175333331
4.532495594,5.4859158559142855,-0.7762984385033334,-0.30172474694285717,13.15751739914286
4.537417428,3.5423007598190477,-0.8416118685033334,-0.8703509009904762,12.145481052
4.542339274,1.8062212486761906,-1.0975633866461907,-1.2524089991809524,11.378915078190476
4.547261082,0.3099528629142858,-1.5528726753128572,-1.5296307072285718,10.895674539142858
4.552182928,-0.9764262926571428,-2.1721066328119045,-1.7622518945142858,10.65589459152381
4.557104775,-2.0803147135619047,-2.910712540859524,-1.9922704648,10.58920530152381
4.562026597,-3.014231623038095,-3.726006534097619,-2.241429324038095,10.623170720571428
4.566948443,-3.8094488872285717,-4.578993800621428,-2.539798425133333,10.725747662952381
4.57187006,-4.4721492905142854,-5.447675072621429,-2.8675143442761906,10.887494262476192
4.57679189,-5.014315614371428,-6.312162584240476,-3.2038399556571426,11.109153833095238
4.581713737,-5.460543709847619,-7.144805162335714,-3.5222462764190476,11.403010107047619
4.586635554,-5.803191182847619,-7.935840133383333,-3.8064820830857142,11.781870261857144
4.5915574,-6.0307869400000005,-8.679463288097619,-4.043453938228571,12.24559584804762
4.596479161,-6.147422654238095,-9.372221689145238,-4.220423846047619,12.750608735238096
4.601401005,-6.160090559952382,-10.013578963288095,-4.330530030428571,13.194989902000001
4.606322928,-6.078807762619048,-10.594508931238096,-4.373155855047619,13.534374366238094
4.611244777,-5.923405397428572,-11.106015375238096,-4.3568016575238095,13.776619432380953
4.616166623,-5.7133902594285715,-11.536933966523808,-4.287314244761905,13.931555559047618
4.621088378,-5.4654805999523814,-11.88510999152381,-4.177719445571428,14.014343553809525
4.626010222,-5.198118311904762,-12.146089371619047,-4.047976164714286,14.036192586666667
4.630932068,-4.931336652571429,-12.320525804619049,-3.9143603530476194,14.006628042857145
4.635853686,-4.675134885809523,-12.411828267619047,-3.7902931146190477,13.932732811428572
4.640775761,-4.4347798937142855,-12.421043895238096,-3.694402819666667,13.819124665714288
4.645697609,-4.215810457809523,-12.34697687,-3.635585478476191,13.66186034047619
4.65061944,-4.003194684,-12.209577469190476,-3.588538862523809,13.454973553809523
4.655541055,-3.7879522527142857,-12.022474379571428,-3.552344345,13.20158283047619
4.660462838,-3.5871516181428573,-11.790611176,-3.5296718167142855,12.912839041142858
4.665384684,-3.4228767666190474,-11.531939551714286,-3.5193477643333333,12.613826891238096
4.67030653,-3.2817267575714286,-11.266220183571429,-3.487027338714286,12.312793782761906
4.6752284,-3.1667710939047615,-10.992714609238096,-3.438721429857143,12.012272911047619
4.680150246,-3.080564373952381,-10.713086150904761,-3.3767646665857143,11.715345231
4.685072093,-3.009631406619048,-10.435037317571428,-3.3029327677761904,11.424460105714287
4.689993895,-2.9581566537142856,-10.157648835619048,-3.2231513887761905,11.141524370047618
4.694915512,-2.932406425380952,-9.876747312571428,-3.144983490490476,10.865863112666668
4.699837371,-2.9314492769999996,-9.593971115952382,-3.0662685350619046,10.597922052238093
4.704759448,-2.9438082376666665,-9.31328373852381,-2.9839554856333335,10.334617471142858
4.709681296,-2.971603756809524,-9.039603823619048,-2.893437953347619,10.079388930999999
4.714603138,-3.0205964587619047,-8.771408330666667,-2.796048902442857,9.833054011190475
4.719524984,-3.0927905128095237,-8.51286297747619,-2.699038744061905,9.601259559571428
4.724446662,-3.1878709339047617,-8.261371771666667,-2.607455458014286,9.382269287952381
4.729368506,-3.3032254150952385,-8.022353535619047,-2.5268303667285714,9.18315633
4.734290352,-3.425849755571428,-7.803897857666667,-2.4629818939190478,9.010121489619047
4.739212124,-3.551498095142857,-7.607274895571429,-2.415727513204762,8.863610201904763
4.744133968,-3.6792771475238095,-7.436376253523809,-2.3819004127285717,8.74511244652381
4.749055948,-3.8049433344285717,-7.298253104761905,-2.3549875986333335,8.656578875666666
4.753977719,-3.924230632285714,-7.199444589142858,-2.3413354555857144,8.605085561
4.758899606,-4.030129239619048,-7.140922637190476,-2.349807784680953,8.593456685238095
4.763821452,-4.119206905333333,-7.1200096947619045,-2.381592080680952,8.617193812142856
4.768743376,-4.189234188619047,-7.1306538808571425,-2.4354978458714287,8.667287707619048
4.773665152,-4.242711532666667,-7.163059280000001,-2.5033232711095237,8.732449587904762
4.778586996,-4.278343813714286,-7.211548850619049,-2.577239990204762,8.805193647142858
4.783508852,-4.295833394571428,-7.2683819134761904,-2.6466094141428576,8.876584954666667
4.78843047,-4.295548450333333,-7.330097266571429,-2.7017633176190476,8.941591832761905
4.793352314,-4.274958406142857,-7.396381446285714,-2.734663225285714,8.997015854285715
4.79827416,-4.23278688247619,-7.462999094095238,-2.7417516537142856,9.03807092052381
4.803196006,-4.161733513761905,-7.524205843571428,-2.720464081904762,9.056454794761905
4.808117852,-4.068914458809524,-7.573829174000001,-2.6633184693333334,9.050031837238096
4.813039698,-3.9586502199523803,-7.606069360428571,-2.574662324857143,9.016619301285715
4.817961498,-3.8317519425714286,-7.615218503095238,-2.462760228409524,8.952035214714286
4.822883342,-3.687291360952381,-7.593841280190476,-2.333753090457143,8.851178668000001
4.827805188,-3.5152368431285717,-7.547510033476191,-2.19505913266,8.719437833285715
4.832727111,-3.3091683599999997,-7.475940182,-2.046399085311429,8.555672786761905
4.837648959,-3.0773270668952386,-7.374045281095238,-1.8818043754495237,8.359132724285715
4.842570805,-2.819383008095238,-7.238501480571428,-1.7056294694209524,8.131209611714286
4.847492571,-2.5277996743809523,-7.063715480571429,-1.5176884262590473,7.875543777666666
4.852414415,-2.1822838215238094,-6.856236094476191,-1.3143134330209523,7.627313526809525
4.857336031,-1.759788183904762,-6.627330110142857,-1.0851432922590476,7.432807678857143
4.862257875,-1.2391475836190478,-6.393475430333335,-0.82371504964,7.329450005666667
4.867179669,-0.6004590647142857,-6.162461485142858,-0.525896184544762,7.34675999
4.872101746,0.16088786604761904,-5.923999400333334,-0.19019305002095233,7.495362066809524
4.877023595,1.0482959861904764,-5.665269147761905,0.1792943831695238,7.780214127380953
4.881945465,2.0516408397619053,-5.373389164571428,0.5827317251219047,8.197173201761906
4.88686708,3.1765843460952383,-5.037393904857143,1.0173560905028571,8.754255140952381
4.891788924,4.4181354159523805,-4.638822229123809,1.492559241264762,9.455030436714287
4.896710755,5.763365257238096,-4.158716045647619,2.03014863236,10.300962135619049
4.901632602,7.179141328142857,-3.590819906552381,2.6377721640742857,11.278506858190477
4.906554448,8.652374778190476,-2.9543985213142854,3.31265709636,12.386480812952382
4.911476275,10.217249177619047,-2.313176589314286,4.034397336264762,13.640272066333333
4.916398046,11.93665371061905,-1.7291304071238096,4.786073484026667,15.076748355761906
4.921319967,13.801067528428572,-1.2083724140761904,5.54907269348381,16.680853561190478
4.926241739,15.708710670571428,-0.7004020128857144,6.312284100055238,18.368982562857145
4.931163597,17.52778820760476,-0.1451348832666667,7.077774767639046,20.036430891571428
4.936085214,19.19087133938095,0.4464635139238096,7.857624262433334,21.629429150333333
4.941007058,20.699026911133334,1.0113490848285716,8.667100033523809,23.147984950333335
4.94592888,22.108668611380953,1.4622892850666667,9.515023387447618,24.637071287285714
4.950850727,23.493218025,1.747364620352381,10.375020055428573,26.151809937190478
4.955772554,24.853321484761906,1.8853823329476194,11.187964144190477,27.66555219652381
4.960694631,26.137037550285715,1.934744861852381,11.906764734190476,29.09575295819048
4.965616248,27.28584784590476,1.950800956709524,12.49960266942857,30.361336362380957
4.970538058,28.22993337571429,1.9834826261857141,12.943861665666667,31.382845740952387
4.975459904,28.90870094285714,2.065687955804762,13.233444985523809,32.10220126476191
4.9803817,29.27787935190476,2.2108479546190476,13.382263410333334,32.48674937571428
4.985303544,29.328525361904763,2.408390815,13.418509301380952,32.54439930952381
4.99022539,29.060679481428572,2.6267989625238095,13.365999698333335,32.29054558952381
4.995147236,28.498445601904763,2.821544000742857,13.22436984352381,31.752525083809523
5.000069092,27.671929768476193,2.952265104314286,12.983569871523809,30.956548175809523
5.004990939,26.627097856952382,2.9930086596476193,12.648437386190475,29.947513126666667
5.009912556,25.396352882000002,2.932825043742857,12.226320834190476,28.750509524428573
5.014834616,23.961608955185717,2.817539715314286,11.725049552476191,27.36286329752381
5.019756233,22.267207423995238,2.7016099641238096,11.139449687380953,25.764126212857143
5.024678308,20.32948184585238,2.5828468749333333,10.474084048333333,24.01428411790476
5.029600151,18.259563417757143,2.402432436704762,9.728757927238096,22.249349842714288
5.034521767,16.191841256280956,2.101157535347619,8.899328737761904,20.597329760476192
5.039443611,14.19964678542381,1.695585240157143,7.9835426188095235,19.119019056714286
5.044365453,12.296031741947619,1.2454955811571429,6.973410124333334,17.810862303476192
5.049287299,10.436675315757142,0.8304498997285714,5.878177047333334,16.615153062047618
5.054209159,8.561858330185716,0.4897286217761905,4.732913284571429,15.456702429666667
5.059130931,6.657666450042858,0.21244262441904763,3.6026377170952384,14.319085025857143
5.064052775,4.756361069757143,-0.04299923991428574,2.5375951760952384,13.230685543952383
5.068974664,2.916848926138096,-0.31120425815238095,1.5764229134285714,12.217924199190477
5.073896587,1.195007545471429,-0.6268461041047618,0.7424464404761905,11.324838039666668
5.078818296,-0.36700090329047574,-1.0197416777714285,0.03830203061904762,10.60108524252381
5.08374014,-1.7446334306714282,-1.5070351533952382,-0.5540977255238095,10.080727239190477
5.088661987,-2.9230166220523808,-2.0903233006809523,-1.0663032354285715,9.763230790142856
5.093583833,-3.9075490465761904,-2.7458635057761906,-1.5225764846666667,9.62423446204762
5.098505679,-4.721437800528571,-3.4427561533,-1.9319423998095238,9.631077977761905
5.103427525,-5.378414273290476,-4.150530565347619,-2.3019742448095237,9.745487715761906
5.108349152,-5.884594945719047,-4.85207332882381,-2.6392045752380953,9.932312827761905
5.113271226,-6.259202940195238,-5.520530700680952,-2.9496604765238095,10.16971739095238
5.118192762,-6.518589797523809,-6.137695857490477,-3.2276147142857146,10.445822521190475
5.123114606,-6.669787985999999,-6.697885456538095,-3.450918089095238,10.746478300619048
5.128036529,-6.718266328238095,-7.199373591490477,-3.6005765192857138,11.032627563190475
5.132958377,-6.678911527047618,-7.637886109785716,-3.662704853809524,11.257886012952381
5.137880147,-6.57145333295238,-8.012985802809524,-3.6285986162809523,11.401582475142856
5.142801991,-6.400783709190476,-8.338838020904761,-3.509438039328571,11.462114245285715
5.147723871,-6.177022570714286,-8.619421879380953,-3.329244554104762,11.448691089904761
5.152645794,-5.916913986238096,-8.850370043761904,-3.118245735109524,11.37639353052381
5.157567565,-5.64315107895238,-9.019542512428572,-2.8928793555666665,11.258883912142858
5.162489414,-5.370223510904761,-9.124911853238094,-2.6670345891523812,11.106345477952383
5.167411261,-5.099627585714285,-9.170482817142858,-2.4495061153904762,10.924606170714286
5.172333107,-4.851361252047618,-9.165680885333334,-2.2444436521999998,10.733022360571429
5.177254733,-4.6366118363333335,-9.117667697761904,-2.054209939104762,10.539047177285713
5.182176577,-4.44750251095238,-9.03865169347619,-1.8790190787952379,10.342399226238095
5.187098625,-4.27184269547619,-8.938425699714285,-1.715193612261905,10.139322340761906
5.192020243,-4.11254803347619,-8.82065711695238,-1.5589203295714285,9.931204874333334
5.196942318,-3.9665434701904765,-8.693233013190476,-1.4083273723285714,9.722054016190476
5.201863873,-3.8275700410952376,-8.568153358666667,-1.2682261807714286,9.520223147380952
5.206785794,-3.7020391850952374,-8.453964914619048,-1.1466914216714286,9.33752659947619
5.21170764,-3.60934390347619,-8.345747334666665,-1.054046611004762,9.181536651380952
5.216629486,-3.557375465190476,-8.23760486790476,-0.993385136147619,9.052153744761904
5.221551333,-3.5442811308571422,-8.130540143904762,-0.9631290010523809,8.949252143714286
5.226473179,-3.5606323311428567,-8.030360698761905,-0.9612513866238095,8.87258869147619
5.231394935,-3.602024566666666,-7.938833849857143,-0.9880913354333333,8.821194136666666
5.236316779,-3.6699599426190472,-7.859623137047619,-1.0422493815761904,8.798897009142857
5.2412386,-3.7578796660476192,-7.790102958761905,-1.1241193357238095,8.79986284057143
5.246160447,-3.8703551520476185,-7.721916017190476,-1.2262129116761906,8.816728584190477
5.251082293,-4.002871524809524,-7.652780487571428,-1.333140957947619,8.842880597666667
5.256003925,-4.147083611809523,-7.583840165952381,-1.4330179634666667,8.87456813257143
5.260925769,-4.302880934380952,-7.517427898714286,-1.523381673152381,8.914538007095237
5.265847619,-4.464034126,-7.456901505,-1.603350100042857,8.961813386571428
5.270769466,-4.634351469285714,-7.402660869523809,-1.674794197042857,9.017698734285712
5.275691543,-4.811835709142857,-7.352282297142857,-1.741152575995238,9.078534688238095
5.280613151,-4.990692661,-7.3047530084285714,-1.7999602953285714,9.140081169619048
5.285534995,-5.166238807571427,-7.259412674761904,-1.8440671052095237,9.197997483190477
5.290456841,-5.331818898571428,-7.220102537333334,-1.8713999163619048,9.253003296333333
5.295378666,-5.481130793047619,-7.188419932476191,-1.884226009957143,9.305139174666667
5.30030051,-5.616397551190476,-7.163849785285715,-1.8876258674095237,9.356274149904761
5.305222341,-5.7446588789523805,-7.1357116472857145,-1.879206296942857,9.40166001595238
5.310143958,-5.861606825047619,-7.103321552380952,-1.854607582090476,9.437982462714286
5.315066057,-5.960961500857143,-7.068579060809524,-1.8071941059285714,9.463385560571428
5.319987905,-6.038859617190475,-7.03132320595238,-1.7340624410285712,9.474877188857144
5.324909521,-6.0896630968571435,-6.988079775047619,-1.6343455335619048,9.465480993238094
5.329831375,-6.111316431142856,-6.9363703728571435,-1.5130898632761907,9.431131850238094
5.334753221,-6.108365899047618,-6.871446813904762,-1.375056056004762,9.37023432357143
5.339675067,-6.077191648047618,-6.790287494714286,-1.2263480559285713,9.277851145809525
5.344597172,-6.016235964619048,-6.691412448952382,-1.0706901997,9.151172032571427
5.34951902,-5.921556711190476,-6.574771177285715,-0.9068370539285714,8.989160283523809
5.354440867,-5.793801057904762,-6.442877996619048,-0.7346052435,8.796235522714287
5.359362386,-5.643392926190477,-6.289144629619048,-0.5559500959761904,8.574413088142856
5.36428423,-5.47160274647619,-6.108533768523809,-0.3743763360238095,8.318242535904762
5.369206158,-5.275668893571428,-5.897970971714285,-0.19682076930952375,8.022757627809524
5.374127929,-5.041126501047619,-5.658620539285714,-0.026707481109523784,7.6808410396190485
5.379049774,-4.761727023761905,-5.392454930857143,0.1424194722714286,7.299452796142857
5.383971639,-4.428809590333333,-5.109375562142857,0.3210544734619048,6.918084367761904
5.388893485,-4.028171730904761,-4.83207818452381,0.5242727576047619,6.607703194380951
5.393815102,-3.5436908276666665,-4.577892695285714,0.7674464760809524,6.409624978047619
5.398737172,-2.9499403508095234,-4.350616824190476,1.0627802305095237,6.35193997
5.40365902,-2.220751159238095,-4.148247781380952,1.4186423285761907,6.455095066238096
5.408580867,-1.3327111161428566,-3.968360441190476,1.829371092552381,6.730372943285714
5.413502709,-0.29221008938095216,-3.7883545274761907,2.2797673635523807,7.166503853476191
5.418424555,0.8912237382857146,-3.576498343904762,2.7627850047238094,7.751234082285714
5.42334617,2.1995241424285714,-3.3018780181142855,3.2676011949190475,8.472129465857142
5.42826801,3.6209996661904764,-2.952695389685714,3.7877543713571433,9.336024579190475
5.433189856,5.13147384852381,-2.5312636893047618,4.334640599880952,10.338605779190477
5.438111707,6.700188853285715,-2.065828638542857,4.921899202561905,11.453881962095238
5.443033478,8.329614333714286,-1.6016923332571429,5.54252313472381,12.674018969476188
5.447955399,10.081899496333333,-1.1908590993523809,6.192446416971428,14.054075110380953
5.452877291,11.985417389809523,-0.8466239515904762,6.86841023867619,15.62627850752381
5.457799061,13.968548878095238,-0.5206155182095238,7.577328832819047,17.333096308238094
5.462720885,15.931122043190477,-0.16892409049523813,8.33445364262857,19.086589514904762
5.467642808,17.795802844333334,0.2056493900285714,9.149756565104761,20.82558347290476
5.472564656,19.519630989904766,0.5582968762190477,10.033033680628572,22.52616935142857
5.477486425,21.119231691,0.8153040209809523,10.983090486190477,24.218017248666666
5.482408346,22.662620066380953,0.9252749255333332,11.94786459504762,25.94088346214286
5.487330118,24.17233715214286,0.893441975057143,12.87210062590476,27.673865661952384
5.492251729,25.633401871238096,0.771618783390476,13.697252341666667,29.33833287661905
5.497173573,26.995175044238096,0.6187921619619047,14.372977529333333,30.850166514333335
5.502095645,28.184136936,0.4798518276285714,14.873777571190477,32.13062160523809
5.507017262,29.12496921047619,0.3901545007238095,15.183131740285713,33.104386616190475
5.511939337,29.7490318847619,0.3703273164857143,15.30376293552381,33.71110265190477
5.516860892,30.01954532857143,0.40981359981904764,15.26778629852381,33.93317944
5.521782736,29.92794545571429,0.4766018332809524,15.102003892285714,33.77581171095238
5.526704659,29.49622049904762,0.5206232147904762,14.837541693666667,33.27236090142857
5.531626507,28.754038358000003,0.5068925923285713,14.494416236571428,32.45536187933333
5.536548353,27.750174364809524,0.4239658819,14.06480958304762,31.364030067619048
5.5414702,26.543664354523816,0.2878305080904762,13.536555505714286,30.050849409761906
5.546392032,25.1537952924,0.1295206397095238,12.92135209657143,28.559579606428574
5.551313878,23.53750402482857,-0.014446554509523823,12.218815196914285,26.94382709052381
5.55623568,21.672319933352384,-0.14263703217577145,11.427790568914284,25.246850843
5.561157526,19.626644451161905,-0.3028155998376762,10.548003350961906,23.532447227142857
5.566079296,17.51097599530476,-0.547225308599581,9.575260918533335,21.884137998190475
5.571000911,15.409522327685718,-0.8826546023614857,8.518471804295238,20.360451805952383
5.575922755,13.365377152161903,-1.2668996574091047,7.384897454628572,18.983259770238096
5.580844837,11.364192779304764,-1.6268293779805334,6.185778499771429,17.714640587380952
5.585766685,9.350597743114285,-1.910570131199581,4.975395765961904,16.49046085595238
5.590688296,7.298645744066667,-2.1147759507233905,3.7999228365333333,15.28967554452381
5.59561014,5.218316303114286,-2.272131622532914,2.7011010718190476,14.116260896428575
5.600531986,3.1517382102571436,-2.423876964580533,1.7140476433428569,13.008924626428572
5.605453856,1.158628961685715,-2.612985654199581,0.8520516511999998,12.013894104047619
5.610375702,-0.6992566716476185,-2.8748298805805335,0.1277952945809523,11.179432686428571
5.615297474,-2.3702844908857137,-3.2317358404852956,-0.4566274754190477,10.554323705476191
5.620219318,-3.8119975515047613,-3.685275677532914,-0.9209175379904762,10.16329722452381
5.62514115,-5.012581281980951,-4.222259590375772,-1.291670536752381,10.009183420238097
5.630062996,-5.98988247107619,-4.806675615818628,-1.5951733348,10.065850041666668
5.634984866,-6.770930428361905,-5.402216269975772,-1.8537346734666666,10.288703242809524
5.639906484,-7.380679382219047,-5.980720667690057,-2.069514488895238,10.631811261190476
5.644828559,-7.840959198885715,-6.527659495499581,-2.235230058419048,11.06265193095238
5.649750146,-8.173621001476189,-7.0270671729281515,-2.344624869847619,11.54370714857143
5.65467199,-8.398433469380953,-7.469033448280534,-2.3784485856333335,11.970650210190476
5.659594067,-8.526948792380953,-7.848235059185715,-2.3334475868666664,12.276115303
5.664515929,-8.557730402047618,-8.16453577204762,-2.2225406321857144,12.454159213904761
5.669437775,-8.49601400442857,-8.416135254190477,-2.054597008395238,12.511297728428572
5.674359621,-8.357889606571428,-8.600958778571428,-1.8438574866523811,12.463579553999999
5.679281132,-8.149958632999999,-8.720659164999999,-1.6108929653095239,12.321686744428572
5.684203053,-7.88115401452381,-8.782976400142857,-1.3730171517857142,12.103705646857144
5.689124809,-7.5658869285714285,-8.799031302904762,-1.1491010980095238,11.834845201761905
5.694046653,-7.211513348571428,-8.77414049404762,-0.9524859115190477,11.52644037
5.6989685,-6.832645631571428,-8.707967303904761,-0.7922310506083333,11.190920483666666
5.703890346,-6.447092566904762,-8.595508915904762,-0.6675197173178572,10.834287913142857
5.708812192,-6.0735424586190465,-8.431349186523809,-0.5683738578226191,10.460285101333332
5.713734038,-5.725548290047619,-8.222197623238097,-0.48544924346547624,10.077979749047618
5.718655884,-5.4042997700476185,-7.974238440857143,-0.41271847942738094,9.68766927647619
5.723577807,-5.115788527857142,-7.697109403714286,-0.34523814558309524,9.29594500957143
5.728499574,-4.859968174047618,-7.39885938704762,-0.2829511913745238,8.90530875904762
5.733421418,-4.627293416380952,-7.094619160333333,-0.2247065751602381,8.521578445904762
5.738343264,-4.422147410190475,-6.797347113857143,-0.16566628939371428,8.157801738809523
5.743264891,-4.253790219571428,-6.52312233304762,-0.10489995468990475,7.833740052238095
5.748186736,-4.126814728619047,-6.278987793619048,-0.04263176692990474,7.559422582428572
5.753108582,-4.037404173809523,-6.071196011047618,0.017349283162952405,7.338929304285714
5.758030428,-3.985052176761904,-5.901882307809524,0.05919885572676192,7.174386477333333
5.762952264,-3.9662250789999995,-5.76910159695238,0.07585080756485715,7.061599496952381
5.767874035,-3.983038425333332,-5.67338550652381,0.06808428367914288,7.001467433
5.772795879,-4.032783485476189,-5.615986982904762,0.03498961642676193,6.992311661571429
5.77771774,-4.101723784380952,-5.6000958850952385,-0.020484287387523784,7.026680178857142
5.782639663,-4.184599626523808,-5.623697825809524,-0.09147461992085712,7.0995608416666665
5.787561511,-4.285719757857142,-5.677434308142857,-0.1730853336065714,7.207283782000001
5.792483367,-4.411728382,-5.7463522638095235,-0.2584799999065714,7.343084197380953
5.797405213,-4.562179962666666,-5.821648393333334,-0.341087951825619,7.499157442142857
5.802327059,-4.733181873857141,-5.900579997428571,-0.40967233364109523,7.668312888476191
5.807248819,-4.916067452571428,-5.985493001428572,-0.46097047655061896,7.846289376142858
5.812170434,-5.103350639285714,-6.076606228190476,-0.49613828842680946,8.029281061285715
5.817092509,-5.294810681095238,-6.166057177904762,-0.5199945749172857,8.211727865
5.822014357,-5.493254014428571,-6.249667689857143,-0.5352767644791905,8.393049366619048
5.826936203,-5.69367138547619,-6.326884519428572,-0.5416515262949048,8.571103890666668
5.831857829,-5.88272577242857,-6.403363295904763,-0.5299274782225238,8.743927258809524
5.836779673,-6.052480118666667,-6.483294486904762,-0.49316281293680947,8.911126346714287
5.841701519,-6.193267209238095,-6.5703213554761914,-0.4302318150842857,9.070741794238094
5.846623336,-6.305987153761904,-6.660141490666666,-0.34386943154999994,9.219520092285714
5.851545182,-6.392616589904761,-6.747548875285714,-0.2391499050242857,9.35390137247619
5.856467028,-6.458305813047619,-6.82886502852381,-0.12152890811714286,9.473466793095238
5.86138888,-6.505950814238095,-6.8968489737142855,0.006773181571428583,9.573440401380953
5.866310726,-6.533001400238094,-6.9436224073809525,0.1433495665857143,9.645272544428572
5.871232572,-6.5367717743333325,-6.959915842285715,0.28328032859999996,9.679037408428572
5.876154418,-6.522160393904761,-6.945166792142857,0.42405960953809524,9.677026074809524
5.881076184,-6.491812342761904,-6.893672647857143,0.5656946045619048,9.637642849809524
5.8859978,-6.442185924238094,-6.807900224333332,0.7096508939428572,9.559436588142857
5.890919904,-6.363639604571428,-6.690787542380953,0.8640691807714286,9.438401464714286
5.895841521,-6.242354779095238,-6.551020690333333,1.033023848342857,9.272645418666665
5.900763365,-6.067463193714285,-6.392327354000001,1.2164580849619047,9.061604557428572
5.905685216,-5.836134944714285,-6.2095541726666665,1.3989144193904761,8.803542746095237
5.910607063,-5.547640227199999,-5.999741066047619,1.5715982714380954,8.504361004380952
5.91552914,-5.198862373871428,-5.765495936047619,1.7293346977238093,8.183114477047619
5.920450983,-4.783971812061904,-5.51374847547619,1.8759957409047618,7.871385733095239
5.925372598,-4.285340482299999,-5.255625668,2.0219137412380954,7.6105978596190464
5.930294442,-3.6754505889666653,-4.998345556714286,2.182119499971429,7.448523107523809
5.935216209,-2.926872744442857,-4.739646786761905,2.383458869690476,7.43867522847619
5.940138053,-2.0256289215380945,-4.470126225857143,2.658145490047619,7.620372006095238
5.945059899,-0.9672898254904755,-4.18126836847619,3.0219956124761906,8.010505841857142
5.949981759,0.23435345974761967,-3.85850971232381,3.477823302714286,8.592265936095238
5.954903605,1.5510501718904768,-3.489506515761905,4.012464739095238,9.33369939095238
5.959825461,2.9614393454142864,-3.06418499352381,4.596390633619047,10.199344205619047
5.964747307,4.444490940747619,-2.5793663306190475,5.200185617285714,11.159299536666666
5.969669154,5.979758566319048,-2.049198796380953,5.792985223952381,12.18813449252381
5.974591025,7.583178279080952,-1.5290289251904763,6.346548886714285,13.284567550285715
5.979512872,9.329299208938096,-1.0844988695714286,6.853075129761906,14.500342665952381
5.984434718,11.244226736938096,-0.7395885430952381,7.326357296761904,15.874289420333334
5.989356569,13.25116605727143,-0.4441429703333334,7.783226989666668,17.360813952571426
5.994278415,15.22264002379524,-0.13373583133333336,8.237870715952383,18.86498987752381
5.999200012,17.05492862984286,0.21141211899999998,8.714397600904762,20.316216508999997
6.004121779,18.713673646080952,0.5499744485714285,9.240660928666667,21.706455605333332
6.009043625,20.239616436985717,0.808701737952381,9.835094622238095,23.085335981904763
6.013965528,21.708048778280954,0.9292331124380953,10.484517983047619,24.516905128857143
6.018887377,23.150794245285716,0.9089649219619047,11.148988859857143,26.009517758571427
6.023809223,24.536110526238097,0.7877462519619046,11.783676238285715,27.494951528714285
6.028730997,25.819707893333334,0.6152360140095239,12.335049720142857,28.885527541714282
6.033652841,26.937154815666673,0.43763300767619046,12.759599277095239,30.087655352380953
6.038574687,27.819778397142862,0.28644085348571424,13.018375646666668,31.013926573333336
6.043496615,28.413739658571433,0.17549271658095242,13.076628026666667,31.59592477714286
6.048418464,28.681928090000003,0.11387328724761904,12.931762286761906,31.794001808571426
6.053340233,28.639579864285718,0.08326881266666669,12.608123121047619,31.62990513095238
6.058262082,28.325573376666668,0.05959728921904764,12.145137105714285,31.15361778714286
6.063183928,27.772452264285718,0.019724245504761928,11.598342123333333,30.418334743333336
6.068105556,27.007152648761906,-0.04923941839999997,11.021156287952381,29.475063189285713
6.0730274,26.041535922999998,-0.14060724216190473,10.450363681190476,28.365832873904765
6.077949246,24.86169720866667,-0.21421582220952376,9.914983442761905,27.125806477952377
6.082871092,23.414730519261905,-0.2216718750666666,9.418974728809523,25.74399584171428
6.087792938,21.685638562785716,-0.1581196771142857,8.938310373285715,24.21848143257143
6.092714818,19.75091968145238,-0.08710267859047617,8.444322818857142,22.62937955152381
6.097636665,17.73367686364286,-0.08230753597142858,7.906347235157144,21.10115989390476
6.102558511,15.73339877654762,-0.16756334616190477,7.288656206338095,19.723215592857144
6.107480357,13.781995340452381,-0.30214544276666666,6.556070310766667,18.516389838809523
6.112402203,11.838820433309525,-0.41997858877619043,5.693129761004762,17.442629300714287
6.117324049,9.841100713785714,-0.47022987116666665,4.723292776671429,16.426843779761903
6.12224589,7.774020988071429,-0.45933506173809524,3.7049706723380957,15.42571520642857
6.127167736,5.687872680928572,-0.42927994750000004,2.689512201909524,14.459316067857142
6.132089498,3.6297581295000008,-0.4213176979285715,1.7260247582904762,13.561509861666666
6.137011342,1.6545667404523818,-0.48184892816666675,0.8586717730523811,12.764385921666666
6.141932959,-0.1827048133571419,-0.6428908691190477,0.11749675729047639,12.088139177380953
6.146855039,-1.8455948385952372,-0.9212522577380953,-0.48968967370952365,11.56570708690476
6.151776657,-3.3125448011190466,-1.318507519404762,-0.9703064248999999,11.221964119285715
6.156698501,-4.599832922071427,-1.8109257689761904,-1.3509677194714282,11.051752938333333
6.161620568,-5.73511607445238,-2.366585953090476,-1.6636399030904758,11.035106081666665
6.166542416,-6.738591899642857,-2.9552106346142857,-1.935768292090476,11.14845293452381
6.171464262,-7.613128323071426,-3.557351560661905,-2.1865029618999996,11.363927575714285
6.176386113,-8.346726214738094,-4.164770336185715,-2.414225725947619,11.664150528714284
6.181307959,-8.936404672547619,-4.763162277804763,-2.605457674928571,12.014396193714285
6.186229575,-9.395470818,-5.331306894423809,-2.7464241038238093,12.367873722809524
6.19115141,-9.731505689285713,-5.856019320757143,-2.8188889105142856,12.69203087957143
6.196073256,-9.950886181523808,-6.322024986661905,-2.8033475273238095,12.961739799190477
6.200995007,-10.059899307571428,-6.719136379852381,-2.6906028099571424,13.158905195857145
6.205916852,-10.063462348380952,-7.044509229042857,-2.481561430233333,13.272461479761906
6.210838708,-9.971909455047617,-7.305365599152382,-2.1819267578523807,13.298012049761905
6.215760554,-9.787150110523807,-7.5083703028095234,-1.8001165128047618,13.226198085761904
6.2206824,-9.519998391238095,-7.658843063000001,-1.3597089868523806,13.059604680190475
6.225604036,-9.193350996047618,-7.752670151666667,-0.8942859024238093,12.815217560047618
6.230526188,-8.833754630238095,-7.783119632904762,-0.43150599447142857,12.507319371809523
6.23544796,-8.461586384333334,-7.752733207666667,0.014165109814285828,12.150733166714286
6.240369801,-8.09444634095238,-7.657132489095238,0.4238670134809525,11.763182685380952
6.245291647,-7.757358210285714,-7.50172640004762,0.7827351014809525,11.372543033428572
6.250213493,-7.453013170333332,-7.296471640904762,1.0882758164333335,10.984431594809523
6.255135118,-7.179886647619047,-7.057502133333334,1.3381995224809526,10.603777151380951
6.260056963,-6.920916966047618,-6.801889691761905,1.539452289504762,10.227550450095238
6.264978799,-6.662972507047618,-6.5486212680476195,1.7048514775761905,9.858516140857143
6.269900645,-6.400886081523809,-6.309551579380953,1.844918766857143,9.500264724190478
6.274822491,-6.1441183090476175,-6.092546145047619,1.9669044365095238,9.163241524476192
6.279744246,-5.897876648714284,-5.901197070095238,2.0729318154428573,8.85361974661905
6.28466609,-5.670515809761904,-5.739629563761905,2.160471388952381,8.580519328428572
6.289587937,-5.468164194238095,-5.6100029036666665,2.2229387220380956,8.34892265157143
6.294509788,-5.298468794190475,-5.508184614619047,2.253349244538095,8.159547485190476
6.299431711,-5.160317875142856,-5.433088665904762,2.2408946723476193,8.005630903380952
6.304353482,-5.056658268,-5.381628604142857,2.180564622014286,7.880730425714286
6.309275336,-4.986499559333332,-5.347897665857142,2.0769717664428575,7.777006435285714
6.314197259,-4.945329598047618,-5.328762667571429,1.9371763268238094,7.689176352761903
6.319118795,-4.937935352333333,-5.3154484431428575,1.7691052725380954,7.619562840666666
6.324040639,-4.968160220571427,-5.301390920428571,1.5851874719380954,7.574744584714285
6.328962475,-5.032382034142857,-5.282168683619047,1.3991702396714287,7.556653913761904
6.333884321,-5.126444521428571,-5.261358783428571,1.2238707143904766,7.571414877285714
6.338806168,-5.245286964285713,-5.237755548476191,1.0665105707714289,7.616676431761905
6.343728259,-5.384377161714285,-5.210633754809524,0.9278319562000001,7.685813507714285
6.348649877,-5.534605003619046,-5.175307364761904,0.7992052406523811,7.764557701333334
6.353571721,-5.6978837649999985,-5.125580174666667,0.677670007557143,7.847028751000001
6.358493567,-5.872465099714285,-5.059403851,0.5652825774619049,7.9296086756666675
6.363415413,-6.059330440809523,-4.978881132095237,0.46243596067619064,8.01412166042857
6.368337265,-6.251048167619047,-4.885967708857143,0.3705696264142859,8.097119124428572
6.373259111,-6.437775067,-4.787958815047619,0.29042786494285733,8.176335431952381
6.378180957,-6.608837786238094,-4.6906835692857145,0.22485324590952396,8.246670837523808
6.383102723,-6.7584675380476185,-4.594612008142857,0.17557067380952396,8.302050977428571
6.388024339,-6.883293674142855,-4.498508283190477,0.137656577209524,8.339764577761903
6.392946413,-6.986608187380951,-4.399868897142857,0.11337271965714305,8.362759518190476
6.397868344,-7.066889989952379,-4.298797289619047,0.0989680992285716,8.370399883333333
6.402789882,-7.1283290500000005,-4.193080811333333,0.09502138618095256,8.365783043857142
6.407711726,-7.165492920666666,-4.081971055047619,0.10134485999047638,8.344457519809524
6.412633572,-7.17562402995238,-3.969352336190476,0.115146190609524,8.303334419571428
6.417555418,-7.161774226571429,-3.845110484571429,0.13671509637142876,8.23990769252381
6.422477265,-7.121265547619047,-3.706522816714286,0.16455237851428586,8.14999568704762
6.427399342,-7.044553643190476,-3.5550617263333337,0.20065533192380972,8.024426754
6.43232119,-6.928617500142856,-3.395320057857143,0.2402028576190478,7.85938412604762
6.437243021,-6.769965262666666,-3.2249614851904758,0.28614519251904774,7.650664654190476
6.442164636,-6.569217023380952,-3.0472916790476194,0.3360146688476192,7.398601977380952
6.447086475,-6.326038542238094,-2.867295770447619,0.3948419541047621,7.104955441952381
6.452008322,-6.023917408190475,-2.693246489514286,0.47259323866190495,6.766966045714286
6.456930168,-5.634641499709524,-2.5267185313714284,0.577396329709524,6.433767369666666
6.461851935,-5.137607256519046,-2.367689478990476,0.7294105681857145,6.193335346619048
6.466773779,-4.512964679995237,-2.2237905321333336,0.9478863243761906,6.083122751142857
6.471695625,-3.751716636423809,-2.105791239561905,1.225326758757143,6.116480246285714
6.476617552,-2.859267802614285,-2.007771662371429,1.5471487151857144,6.291251149238096
6.481539324,-1.840543656423809,-1.9235507080380954,1.8998353360904765,6.609566286714285
6.486461178,-0.694695359423809,-1.8436357521809523,2.268839473542857,7.081625615142857
6.491383024,0.5791887327190482,-1.7586544185142858,2.6406625282333334,7.704663508238096
6.49630487,1.9735795429095244,-1.653223753038095,3.0020557301666666,8.459951854190475
6.501226721,3.457076663195239,-1.5114696558714287,3.3511007456904762,9.312653728285714
6.506148568,4.98717283062381,-1.3266188439190476,3.6901908886428574,10.221362757190477
6.511070161,6.553198678004763,-1.1193619420619048,4.021428840547619,11.182987953190477
6.515992005,8.205446901766667,-0.9497288941571428,4.352320245357143,12.256908333857144
6.520913842,10.015874022719048,-0.8799704221476192,4.703417766690476,13.520424952714285
6.525835688,11.976057870195238,-0.9102173270523809,5.091751706071428,14.977028816666664
6.53075746,13.9809001971,-0.9805489005761905,5.531648726880952,16.543443568857146
6.535679304,15.901422546242857,-1.0260251384809524,6.038127104785715,18.10587558409524
6.540601227,17.66194389024286,-1.0303030432904763,6.6144052805,19.604000933047615
6.545522984,19.26355852457619,-1.025083853395238,7.256917116647618,21.04598195190476
6.550444828,20.752101217480952,-1.0599982305666669,7.9608253870571435,22.488124567952383
6.555366751,22.182359020385714,-1.1734117063571428,8.709136480809523,24.007448981095237
6.560288585,23.54940383809524,-1.3847082250238096,9.467237330857143,25.568720733238095
6.565210354,24.83408891609524,-1.6821060428809524,10.182221015333333,27.067680788857142
6.570132198,26.009693327666668,-2.041171649357143,10.796243758238095,28.440913673238096
6.575053796,27.03918906666667,-2.420193078214286,11.291982854714286,29.640683798095242
6.579975641,27.884982700000002,-2.776417149642857,11.664550667095238,30.62184333238095
6.584897703,28.49863760904762,-3.0637781697380952,11.90619870552381,31.32638624190476
6.589819551,28.823251725238098,-3.252474894738095,12.01819092847619,31.696548511904762
6.594741166,28.83345840190476,-3.3412473222142856,12.012962068428571,31.715052907619047
6.599663006,28.542075566666664,-3.365629033595238,11.91199634147619,31.409032396190476
6.604584852,27.980258942380953,-3.365894033717143,11.727057320285715,30.817740692857146
6.609506699,27.195096698047617,-3.3650321789552384,11.466626507428572,29.992648631619048
6.614428771,26.20792543419048,-3.355658746859999,11.143379653714286,28.96758759452381
6.619350388,24.97620974352381,-3.286145414574286,10.766390107457143,27.732418911761904
6.624272232,23.447362189433335,-3.118694748155238,10.330468778333334,26.287432179142858
6.629194083,21.640696144528572,-2.8739486535361904,9.830863602333334,24.71179987804762
6.634115929,19.659373151957144,-2.622618607107619,9.255979624619048,23.132328441095236
6.639037705,17.63939124552857,-2.441038035202857,8.60105824604762,21.670060159285715
6.643959549,15.667411241242856,-2.359660324598095,7.870448022904763,20.381310569333333
6.648881386,13.756459672100002,-2.3525221830361907,7.075898001380954,19.250003297619045
6.653803232,11.8619058521,-2.370052232655238,6.222941638142858,18.22057524380952
6.658725058,9.925531732576191,-2.373494520131428,5.324052539428571,17.21208713904762
6.663646904,7.945006034957143,-2.3495925353219045,4.4065904518095245,16.199616703809525
6.668568751,5.9403826221000005,-2.310823630798095,3.502787818761905,15.186937651904762
6.673490388,3.934255219242858,-2.275686272607619,2.6511151752857147,14.194004034285715
6.678412232,1.9621419278142862,-2.272107541655238,1.8765755970000004,13.254063874285716
6.683334309,0.06934200543333405,-2.3401232760838093,1.193147207514286,12.414750167619047
6.688256156,-1.6958494364714276,-2.515124692798095,0.6153804539238097,11.730802278095238
6.693178002,-3.294011406471428,-2.8204353509885713,0.14495599906190493,11.253518635714286
6.69809984,-4.7078206833285705,-3.249157959417143,-0.2364772905999998,10.99349751809524
6.703021455,-5.946561922138094,-3.7640740158457144,-0.558876861433333,10.928100539523811
6.707943222,-7.0189054759476175,-4.328495170128571,-0.8422211869571425,11.049137131904763
6.712865145,-7.933656074471427,-4.918128237509523,-1.1052086643857142,11.345138114095239
6.717786931,-8.701595323947618,-5.517480767366666,-1.3536773359095238,11.788547346904762
6.722708852,-9.32744592185238,-6.115696858271429,-1.5856411407,12.331450723952381
6.727630623,-9.818010499666665,-6.6960976657952385,-1.791974096052381,12.88813348657143
6.732552496,-10.182285852857142,-7.244833057319048,-1.9625166115285713,13.376282652428571
6.737474342,-10.427404107523808,-7.7518786215095234,-2.085105274433333,13.758945653190475
6.742396265,-10.565149896666664,-8.206697296033335,-2.160344802195238,14.035624319761904
6.747318143,-10.608597300380952,-8.597736815114285,-2.1940731406238094,14.212533417333335
6.752239989,-10.570863813619045,-8.917892154714286,-2.1941529086714286,14.298316914285714
6.757161758,-10.45945176547619,-9.161189158285714,-2.1666201040999997,14.294970475714287
6.762083597,-10.290782791285713,-9.320420310142856,-2.1169372428142856,14.212782651904764
6.767005443,-10.080164477238094,-9.389866624095239,-2.0494059069142856,14.059662574285714
6.771927289,-9.847557861999999,-9.370726335142857,-1.966765578357143,13.848535950380953
6.776848907,-9.610830715190476,-9.267865225904762,-1.872960816590476,13.592176872666668
6.781771014,-9.37170144452381,-9.089434282619047,-1.7753358164761903,13.29239340261905
6.786692631,-9.13257918995238,-8.84834262242857,-1.6800698603238093,12.954333899809527
6.791614475,-8.89613932595238,-8.56217786204762,-1.5906555248761904,12.58866010047619
6.796536257,-8.657637345761904,-8.244973613571428,-1.5070723331095235,12.200027563714286
6.801458178,-8.419296559238095,-7.914258252714286,-1.4196348098285712,11.801174234571429
6.806380026,-8.176295257142856,-7.58731090447619,-1.3153586181857142,11.400959175714286
6.811301877,-7.921426772619047,-7.273322741047617,-1.1826660938523808,11.00003023647619
6.816223723,-7.6522815111428555,-6.98164810447619,-1.0154257126142856,10.599011652190475
6.821145569,-7.379049936857141,-6.717005298380952,-0.8156278041285713,10.204749651380952
6.826067311,-7.114974158190476,-6.478447255761905,-0.5955634762952379,9.825813213047619
6.830989155,-6.870978763999998,-6.264962264571428,-0.3715211883761903,9.473755732999999
6.835910772,-6.649322464333333,-6.072255021142857,-0.15746257770476174,9.15166641352381
6.840832847,-6.45094219842857,-5.898051489047619,0.03320861080476208,8.862748959095239
6.845754477,-6.278821945142856,-5.738965488666667,0.1938948986423811,8.608596039285715
6.850676322,-6.135301453666665,-5.595809777619048,0.3190379022661906,8.392316166238096
6.855598168,-6.022909096285713,-5.46652982352381,0.40905599869952397,8.214228304238096
