Time (s),Linear Acceleration x (m/s^2),Linear Acceleration y (m/s^2),Linear Acceleration z (m/s^2),Absolute acceleration (m/s^2)
0.121799464,-4.202248151889524,-2.1772819314251524,1.6712803224214285,5.054821154171429
0.126721846,-3.943277782371905,-2.039862786886581,1.5825647492642858,4.755440960433334
0.131643953,-3.6835799841100005,-1.9032752614083903,1.4921077469357142,4.454189491395238
0.136566182,-3.421756281174572,-1.7658003073645812,1.4012411734214285,4.1522732885
0.141488567,-3.1594468639359055,-1.624465734287438,1.3108250286595238,3.8516420550761903
0.146410789,-2.897258827650862,-1.4788074945588665,1.2211445499690476,3.5537705268809523
0.151332943,-2.633102172309909,-1.3281269695922,1.1339268330214285,3.2611183931571426
0.156255326,-2.3677239454961,-1.1734334441255332,1.0509818310404762,2.974426697947619
0.161177449,-2.104632480681814,-1.0111842054017237,0.9718593529785715,2.6956497383428575
0.166099603,-1.8448076349422906,-0.8433140130969619,0.8951177313642857,2.4227637657
0.171021756,-1.5865178365803856,-0.6687943919017239,0.8197997780452381,2.156148654709524
0.175943989,-1.3309679431089572,-0.4895675336207714,0.7440784431976191,1.8935281003285713
0.180866145,-1.078888288113719,-0.3051848168017238,0.6670622031166668,1.6352671445190476
0.185788528,-0.8285292042137191,-0.11690643689696192,0.5882097724166667,1.3800067103285716
0.19071064,-0.5809637389232429,0.0742324210078,0.5067630552261905,1.1270029934238095
0.195632869,-0.33590227469467143,0.26674080629351427,0.42310181545000003,0.8752037705190476
0.200554982,-0.09494561914705238,0.46140299691256187,0.3362575755261905,0.6257963760904762
0.205477136,-0.11978828649467141,0.5133408991935143,0.3458363371285714,0.6832713975666665
0.210399596,-0.14645190669800479,0.5702138521092286,0.3470360509047619,0.7427554958428572
0.215321731,-0.1760860499656238,0.6293700888120858,0.3396299554204762,0.800608433252381
0.220243885,-0.20479285885276668,0.6888550411468477,0.3269562882547143,0.855587004547619
0.225166278,-0.23399500255752853,0.7476262335281905,0.3102675262894762,0.9095111504904763
0.230088434,-0.2653019544418143,0.8048680420848572,0.289887621099,0.9638771045619049
0.235010583,-0.2974938587941952,0.8628508536542857,0.26949219244661904,1.0203320388857142
0.239932811,-0.33272923874867144,0.9199643791342857,0.24865981136566664,1.0780584542095237
0.244854982,-0.36856162055400477,0.9716318540571429,0.22374019220376187,1.1338647182047619
0.249777365,-0.4062762400580952,1.018069280042857,0.19863685875138096,1.1871424755428572
0.254699598,-0.4483632402752381,1.058455661647619,0.1700308115180476,1.2359513590285713
0.259621665,-0.494262621517619,1.0919696603714286,0.13622066855614287,1.278363234
0.264543893,-0.5400994789033333,1.1144943266,0.09821247822280954,1.3118719342238097
0.269466355,-0.5843230024666667,1.1269352322857142,0.057216573846619045,1.3377079295333334
0.274388511,-0.630693243352381,1.126663897752381,0.014513287322809524,1.3563204158571427
0.279310665,-0.6745207685380953,1.1162009949095237,-0.025405189305761907,1.3675095039523808
0.284233047,-0.7141367211047619,1.0921472793857143,-0.06092818952480953,1.369071356952381
0.289155193,-0.7503520065761905,1.0610161395571427,-0.09414828482004761,1.364763301047619
0.294077422,-0.7788212937904762,1.0248805213666667,-0.12609399874861907,1.3532207762380952
0.298999564,-0.7969509590142858,0.9852491858714287,-0.15744637966290473,1.333227382142857
0.303921946,-0.803333055395238,0.9396484253238097,-0.18619895213909524,1.3031275185095237
0.308844179,-0.8007027691238096,0.8897062369809523,-0.2103880000105238,1.2649558517809523
0.31376627,-0.7863797673047618,0.8309091888333333,-0.22609276167242856,1.2137761423190476
0.318688422,-0.7631945290666667,0.765126333195238,-0.23002928551004764,1.1544586366285714
0.323610653,-0.7365867676390476,0.695352714547619,-0.22198533320142858,1.1001029098952382
0.32853279,-0.7098822905819047,0.6222918557142857,-0.2031935235219048,1.0543322336380951
0.333455249,-0.6872446238914286,0.5480032377380952,-0.17451552355047617,1.016006807704762
0.338377405,-0.6678442912342858,0.4727174255,-0.1405884270504762,0.9820386862809524
0.343299788,-0.6493209117866666,0.39678370939523805,-0.10271433226,0.9508782222857142
0.348221943,-0.6310165297390476,0.3264835674238095,-0.059269524221904756,0.9202460889095238
0.353144153,-0.6101631011247619,0.2597742845666667,-0.01368295241714286,0.8904442220380953
0.358066309,-0.5861662441771428,0.19723904615714288,0.03548447485904762,0.8609830683571428
0.362988458,-0.5571857676580952,0.14173876158714288,0.08596718790190476,0.8307160429
0.367910612,-0.5272137678771429,0.09326909638142858,0.13486618850190477,0.7998829778190475
0.372832999,-0.49813014836285713,0.05523704751,0.17910585428285714,0.7678032937190477
0.377755232,-0.46684362208666663,0.029340429452857156,0.21555490206380953,0.7330088201428572
0.382677386,-0.4322207641438095,0.01522571322904763,0.24236999718285715,0.6987664361380952
0.387599554,-0.3972527640390477,0.018804188771904772,0.26287323503047616,0.6750054320428571
0.392521937,-0.3589856688533334,0.03130285419571429,0.28432056858285715,0.6577803592428572
0.397444169,-0.31654852491809526,0.051257806652857146,0.31202180737333335,0.6508970470380953
0.402366566,-0.2780250495909524,0.07786709119095239,0.34605199791142854,0.6574339802
0.407288722,-0.24241104869095237,0.10827685302904763,0.38559971235904766,0.6745517587857143
0.412210876,-0.20672957249571428,0.14008304241952382,0.4208382366352381,0.6967778838952381
0.41713309,-0.17464842971952382,0.17336785221476192,0.4437199992495239,0.7234957477809524
0.422055246,-0.14607209611,0.20933928017190476,0.441767522982381,0.7526475125
0.42697739,-0.11364595278047618,0.24112566095285715,0.4109735233490476,0.7817070000809524
0.431899773,-0.08466519066142857,0.2728968042290476,0.3484787132109524,0.8156424097666666
0.436822016,-0.050639952985238094,0.29734813737190474,0.26760552325380954,0.8502876181285712
0.441744093,-0.0074873822614285645,0.3129058522414286,0.18542233249666668,0.8801355689333334
0.446666321,0.04279223646714286,0.32459713798428574,0.11019495269666667,0.9009157888333332
0.451588477,0.10009590353857144,0.32650604343190476,0.05045647846333335,0.9149539232571429
0.456510937,0.16185399884809526,0.3211467102461905,0.010183383296666685,0.9251394782238096
0.461433093,0.23241637996714287,0.30613166231761907,-0.00968718743190475,0.9468028486190476
0.466355489,0.30685452044809525,0.28430804464476195,-0.009792139860476182,0.983448685647619
0.471277645,0.36521251988619047,0.2648927111790476,0.004492476553809534,1.0143091799666668
0.476199874,0.4300215655052381,0.23091137906952383,0.0411668597157143,1.0658739102095236
0.481121948,0.4983078510385714,0.18510933150761905,0.09788266606333335,1.1334205407857143
0.486044177,0.5668382331909524,0.12109423678380954,0.1624028108014286,1.2107254072666667
0.490966337,0.6243402801290476,0.04340633185047619,0.21799133363476192,1.2714029805523812
0.49588872,0.6588870903766667,-0.041611332220952375,0.2569020944109524,1.311834440495238
0.50081089,0.6636685665100001,-0.13627604496380952,0.27263371434904765,1.335479569747619
0.505733044,0.650778566792381,-0.24131380514952377,0.26661066641095243,1.3527981454428573
0.510655273,0.6284941853447619,-0.3540091358209524,0.24064595260004765,1.373943371395238
0.515577725,0.6039376613590476,-0.4737863242495239,0.2039604290667143,1.4066992595380952
0.520499881,0.5827786606633334,-0.5916115627066667,0.17242080868100002,1.4490917308761904
0.525422035,0.5694786129204762,-0.7031069894542857,0.16228923741766668,1.493130564704762
0.530344422,0.5608296596538096,-0.7991157046352381,0.18344480854004766,1.5272480667142858
0.535266655,0.5713557547728572,-0.8794543700304762,0.24486714236861906,1.5443031064285715
0.540188809,0.5885807548919049,-0.9386291780542857,0.3347872856781429,1.5515691438571426
0.545110972,0.5978071366728571,-0.9747323216333333,0.43409933284480956,1.555414218047619
0.550033126,0.5987970421014286,-0.9967961311285715,0.5281993795686191,1.5617831656190475
0.55495528,0.5896726126490476,-1.0055325598904763,0.603023235921,1.5687504588095238
0.559877662,0.5745231356680953,-1.005062750404762,0.648731806373381,1.5710857258571427
0.564799833,0.548692849782381,-0.9948307020333333,0.6591993299971904,1.5505337716428573
0.569722062,0.5169116134728572,-0.9813331323047618,0.635994188773381,1.509401451495238
0.574644218,0.5037425660919048,-0.9733168936952381,0.5875095236181429,1.474370274657143
0.57956661,0.48691575763952377,-0.9559547993476191,0.5139310459800477,1.4227699342666666
0.584488766,0.46821175764428574,-0.9317469902095238,0.42540076307052377,1.3595174665
0.589411226,0.44399328068714283,-0.8937314188285713,0.33519533209433333,1.2873859970285715
0.594333377,0.42727613910619044,-0.8471325604219049,0.25671514234195236,1.2238649756809523
0.599255607,0.4279108519395239,-0.7932922764295239,0.19511547687528571,1.175428811942857
0.604177761,0.44855385132333336,-0.729581563472381,0.15381014208004765,1.137933427804762
0.609099911,0.4835317088757143,-0.6573399456438095,0.13583999875242858,1.1004829576333335
0.614022294,0.5223742336757142,-0.573486709372381,0.13987580825095242,1.0573490381333333
0.618944527,0.5588247566709524,-0.4783755677533334,0.15762147481333333,1.0065722287238095
0.623866694,0.5868245185857143,-0.3772749015914285,0.1748034755245238,0.9533845005333332
0.628788848,0.6038607571809524,-0.27978804512952377,0.18321195172452384,0.9022755398
0.633711002,0.6093499944333333,-0.19312390206285715,0.17318833281166668,0.8560382882476192
0.638633399,0.6015734218428571,-0.11970361803428571,0.1409259039259524,0.8167603811809523
0.643555632,0.5878069940095239,-0.05965133384380952,0.08622937807833335,0.7818487047190475
0.648477785,0.5787709951428571,-0.014779475653333332,0.016032045602142875,0.7545674838571429
0.653400192,0.5761513284285714,0.018003714757619044,-0.06133252685499998,0.7341784653666666
0.658322348,0.5806024244857143,0.04577923867666667,-0.1345699544978571,0.721575793652381
0.663244577,0.5916594721,0.06912309552428571,-0.19317490591690475,0.7169437296190476
0.668166719,0.6063964735857142,0.09063366676714285,-0.22805395245500001,0.7214669497809524
0.673089101,0.6226440441047619,0.11338395288619046,-0.23854323869119046,0.7340756582809523
0.678011242,0.6375763302809523,0.13998723863857143,-0.22721366741690474,0.7502101898333333
0.682933396,0.651991426952381,0.17043619124333334,-0.2028436193978571,0.7678923490333334
0.687855536,0.6658786648904762,0.2038120490861905,-0.17268533452642856,0.7871126413238094
0.692777765,0.6783008064619048,0.2430747625052381,-0.13666233365023808,0.8111841780809524
0.69769992,0.6842585688619047,0.28821838275095235,-0.09164857099309523,0.8427292185238093
0.702622303,0.6800509506809524,0.3393477137585715,-0.03825357004071427,0.8853004435952381
0.707544459,0.6609959513714285,0.3977069045633333,0.02617333743071431,0.943449100495238
0.712466688,0.6205309512428572,0.47035185992523815,0.09367685927738097,1.0216958557619047
0.717389086,0.5641371405619048,0.5560054289395238,0.15333980944690478,1.1154478460238095
0.722311242,0.49841142801428573,0.6528239569395238,0.20685352086547623,1.2174893718142856
0.727233471,0.43058628660476195,0.7559984390157143,0.26353299566857147,1.3264760773380952
0.732155851,0.3651558100523809,0.8704074912204762,0.31588728107333336,1.441076651547619
0.737078006,0.30695600134285717,0.9979622484871429,0.3584345183780953,1.558272455052381
0.742000156,0.2522017640095238,1.1360092021252381,0.38727132854,1.6767773620714286
0.74692231,0.20129671516190478,1.279732726887143,0.3967379014257143,1.7957315013904762
0.751844529,0.1531109040047619,1.4320701985490476,0.3786448519019048,1.9222640744428574
0.756766685,0.10881504665714288,1.5931121026142858,0.3385797563828572,2.0582819449333334
0.761688839,0.06914037928095237,1.7587330547428575,0.2881195199828572,2.202203055552381
0.766611235,0.029722713742857145,1.935635672452381,0.23542837678761905,2.353937872109524
0.771533391,-0.006114954295238092,2.118798661080952,0.17863885443047622,2.511615333352381
0.77645562,-0.032040190385714276,2.3056759905238096,0.1154618093619048,2.6727132549047616
0.78137801,-0.039556285004761896,2.4893859440238097,0.03514000281428574,2.837693194238095
0.786300242,-0.034230573104761894,2.669904754252381,-0.04010080932857139,3.000843116095238
0.791222396,-0.02654047552380951,2.849056749085714,-0.07750414166190474,3.1572632802380953
0.796144779,-0.0239453801142857,3.022070036033333,-0.0630445714142857,3.312952038476191
0.801066704,-0.022607712809523794,3.189985882666667,-0.023371524033333296,3.4753435223809523
0.805989071,-0.014352045180952365,3.358049636809524,0.011727760957142896,3.640459763095238
0.810911304,0.016181097204761918,3.524539118761904,0.01140723557619051,3.795888745142857
0.815833449,0.07188366714285717,3.677452825380952,-0.03299147669047616,3.9299545987142857
0.820755603,0.1236940481,3.7977181049047615,-0.10573723625238093,4.028616526285715
0.825677986,0.14599942882857142,3.8781362034285713,-0.16896475707619044,4.089846736476191
0.830600136,0.13710985869047623,3.916065011714286,-0.18866099274761902,4.1206658543809525
0.835522365,0.10268228682380955,3.904346670428571,-0.12533190063809518,4.154605559904762
0.840444521,0.0466467142666667,3.8410113879523813,0.029448052980952433,4.227004348666666
0.845366909,-0.016555664042857125,3.719099291738095,0.2556229957761905,4.330674822190476
0.850289142,-0.0587888558142857,3.5179887186904764,0.5167796555238097,4.435214524285715
0.855211524,-0.09226613948095237,3.2049083397380946,0.7388318039285715,4.5079382383809525
0.860133651,-0.12469590131428572,2.72946711097619,0.7996481387380951,4.641357762714286
0.865055805,-0.16817776004761903,2.037903686261905,0.5923465277380954,5.046428451333333
0.869977964,-0.2252092340857143,1.0896893370714285,0.09719899850000002,5.802634692095238
0.874900193,-0.3117342790761905,-0.10004775592857146,-0.555007484642857,6.832118558857143
0.879822348,-0.44590704224285715,-1.4592984148333334,-1.0483331947857142,7.917571574714285
0.884744502,-0.6424515617333333,-2.9181645796904765,-1.1384942969285714,8.984463697904763
0.889666885,-0.9258917599238095,-4.4279966665,-0.8742568589761904,10.116334223142857
0.894589137,-1.348410149447619,-5.902087719595238,-0.4646022885095239,11.287349695904762
0.89951129,-1.8455364307095241,-7.346055039404762,-0.12279938775238097,12.44905514890476
0.904433444,-2.275084373542857,-8.785354600166666,0.04707408262857144,13.540501845666668
0.909355904,-2.5470086223047623,-10.215393824309523,0.02574946510476191,14.539400707
0.91427806,-2.636909476385714,-11.556827826357143,-0.09967477237142858,15.411327626809525
0.919200442,-2.6088444250285714,-12.738575694357145,-0.20857700962857142,16.12464626861905
0.924122578,-2.4963728956285713,-13.766846415880954,-0.26218110225714286,16.72560851138095
0.929044732,-2.3228229455,-14.658150908976191,-0.2744099126190476,17.247650002
0.933966961,-2.1156968503095235,-15.417154230214285,-0.3259828655714286,17.69627226209524
0.938889366,-1.8936807031190475,-16.03009215740476,-0.4735586243428572,18.032947351190476
0.943811291,-1.643657468690476,-16.486896535071427,-0.7065172902619048,18.22827288490476
0.948733673,-1.398801281404762,-16.789269101380953,-0.9955311358333334,18.29218693952381
0.953655829,-1.2168143250714285,-16.931066150095237,-1.2868804162761904,18.258883836857144
0.958578289,-1.0939115627380953,-16.891031912761907,-1.4957094700809523,18.156637077095237
0.963500444,-1.0172010377238094,-16.62071396945238,-1.506273040909524,17.89781379238095
0.968422689,-0.9499555117285714,-16.075130925561908,-1.2228181467804762,17.335949982085715
0.973344843,-0.8696121318619047,-15.230172001514285,-0.6379807596280953,16.467645325704762
0.978267226,-0.7566369914380953,-14.09947894037143,0.11794548305761896,15.377288318085713
0.983189382,-0.5942320369809524,-12.755393848847618,0.7295020469623807,14.280829831561906
0.98811161,-0.3764082817904762,-11.274189634228572,0.9645584813433333,13.240808930466667
0.993033737,-0.08161236560000001,-9.706234163228572,0.8478517126766666,12.173857082228572
0.997955814,0.3537334998285714,-8.1414552448,0.540464951057619,11.1045274258
1.002878023,0.8763308752095239,-6.57427336227619,0.22652824067666663,10.071627099752382
1.007800408,1.3448231958285715,-4.9814268778476185,0.021916198448095194,9.128303209514284
1.012722568,1.6615155367809522,-3.3743908776571425,-0.0403411368519048,8.29847461870476
1.017644797,1.7954047748285713,-1.837868284704762,-0.015530328823333373,7.622480147609524
1.022566953,1.8218067714476187,-0.4432463901809524,-0.005288184537619092,7.134441046466667
1.027489126,1.7986663864476193,0.8257804570095237,-0.04606470977571432,6.797162677419046
1.032411509,1.728248959542857,1.9999088987714284,-0.1473266646852381,6.579142287895238
1.037333741,1.6378289121142857,3.0898229935333332,-0.2588701838233334,6.469496582180953
1.042256124,1.5499221484476189,4.082783242104762,-0.3407484655757143,6.470572170276189
1.04717828,1.448347676447619,4.956611130723809,-0.38933370165666675,6.562071246371429
1.052100509,1.3576217720190475,5.718793547961904,-0.41002513051380957,6.7385375505619045
1.057022564,1.305208768257143,6.4010806622,-0.4236270353566667,7.0112316170857145
1.061944792,1.3018445288285714,7.01676823667619,-0.4406101271709524,7.3823402188000005
1.066866948,1.3408039071238096,7.56616038917619,-0.4587098410661905,7.843372485990477
1.071789331,1.3987867180333333,8.06403464909524,-0.488618363852381,8.341511818666666
1.076711564,1.463056666595238,8.527563571714287,-0.5319704128714287,8.807667546000001
1.081633717,1.5316620016,8.95211291295238,-0.5956584611666667,9.232801241714286
1.086555871,1.599357099857143,9.322056542857142,-0.6884936973428571,9.601348833
1.091478263,1.6678081978571426,9.638191177285714,-0.8229990828190478,9.915792286952382
1.096400419,1.7485912868571425,9.896191414857142,-0.9898612243428572,10.177405137095239
1.101322648,1.8357929956666665,10.094469478809524,-1.1686706513904763,10.389030526380953
1.106245028,1.9238280966190477,10.241357598666665,-1.338515744247619,10.558462249571429
1.111167184,2.007191430952381,10.338913735571428,-1.4631635063523811,10.680568912666667
1.116089413,2.0811475231428567,10.39435373,-1.5154749835761905,10.756331522523809
1.121011472,2.134327229952381,10.423298426666667,-1.4978981727142857,10.795335843714286
1.125933701,2.1499761853333332,10.44328816695238,-1.4224818891285713,10.811545224380954
1.130855866,2.117451372523809,10.466525940238094,-1.298138794742857,10.817237815333334
1.135778249,2.079213372238095,10.488042149904762,-1.1373206493761905,10.820669588190476
1.140700496,2.0359249412333336,10.506633621809524,-0.9559735119952383,10.822641414380954
1.14562265,1.9696190817904764,10.528531846095238,-0.7748383741380953,10.830960445333332
1.150545032,1.8722320829952381,10.567012150857144,-0.6111559985190477,10.862387092
1.155467188,1.7457893667571427,10.62141740895238,-0.4676652867095238,10.91585197057143
1.160389417,1.6091257992809525,10.668671335142855,-0.33409047732857144,10.96601742247619
1.165311802,1.4714142288999998,10.69698678847619,-0.20366095399523815,10.998371797238095
1.170233967,1.3382435163285713,10.703506197047618,-0.0751178097952381,11.01012149342857
1.175156196,1.2119129419476191,10.680102393714286,0.0596586604333333,10.992723177238096
1.180078352,1.0874337077428573,10.626519793714285,0.19968832358571426,10.945354699142857
1.185000487,0.9631066115238094,10.551887239904763,0.3476212731,10.87641103247619
1.18992287,0.8377326072857142,10.473821595,0.5125546508952381,10.802592080095238
1.194845049,0.7088509399585714,10.403322447380953,0.7052285611333333,10.732699362476191
1.199767203,0.5728388008776191,10.350240026714285,0.9195436973714285,10.673995533428572
1.204689457,0.4337671859204762,10.319515864428572,1.1504833580857141,10.631139333428573
1.209611613,0.294598754577619,10.303085917857143,1.3886547879428572,10.59812748104762
1.214533996,0.1638055662823809,10.299379439904763,1.6067553130380954,10.579769813952382
1.219456151,0.050903572120476165,10.297474952285715,1.7904158429428574,10.56884451390476
1.22437838,-0.03648232640333336,10.284845670380951,1.9351041228142858,10.55352346947619
1.229300765,-0.09568875540333337,10.246129445,2.051449122847619,10.519458554714285
1.234222988,-0.1254092775128572,10.178533281999998,2.1476912611761905,10.464020666380952
1.239145141,-0.13124927816523815,10.082748731238095,2.2288455508571428,10.384689560428571
1.244067524,-0.12335361123666672,9.960215705190475,2.299252651952381,10.27979528652381
1.24898967,-0.10272151524619051,9.810443583380952,2.3587867531904765,10.145977706952381
1.253911899,-0.06980894408904767,9.634066672904762,2.406380091380952,9.98215751995238
1.25883406,-0.030435847108095285,9.432991187,2.4451470488571427,9.790733820523808
1.263756137,-0.0026608489652381476,9.213656539428571,2.469763142714286,9.579509260142856
1.268678365,0.00043181465380947605,8.970685096619047,2.4586091438571427,9.341798129428572
1.273600769,-0.013428518870000052,8.69463443795238,2.379963760519048,9.066384993809525
1.278523002,-0.03092418506047625,8.36964388147619,2.2201288589952384,8.749522166952381
1.283445156,-0.06298680357000006,7.970619411761905,2.0174815759952383,8.389714467571428
1.288367533,-0.15135771287476193,7.446745906580951,1.7829500599,8.054504264190475
1.293289766,-0.31122628887476195,6.736619165961905,1.5074423940904762,7.889345250857143
1.29821192,-0.5298495779285715,5.7916569821523805,1.2559765399,7.944223719428571
1.30313406,-0.761411778704762,4.561273518057143,1.1569890684333335,8.262722543238096
1.308056442,-0.9314486367476191,3.003493252247619,1.4151618416238096,8.95846285752381
1.312978353,-0.9699928757809524,1.0581281183428568,1.9588244349095238,10.115981315619049
1.317900505,-0.8100639266761905,-1.2925150850380955,2.4362582070523806,11.638554151285714
1.322822899,-0.5492503158,-3.891019378704762,2.429077539004762,13.339650136095237
1.327745055,-0.27057523075238105,-6.538883947371429,1.667469858195238,15.198805960904762
1.332667275,-0.05767670384761914,-9.107477063466668,0.38112042524285694,17.205741664238094
1.337589659,-0.1226596077000001,-11.347706034276191,-0.6946504525666667,18.83191175019048
1.342511815,-0.47367478661904777,-13.140166566847618,-1.136462127661905,19.870270909000002
1.347434029,-0.9907387705904763,-14.572456235085713,-1.0389917533285715,20.638112470523808
1.352356185,-1.505718199757143,-15.805371364228572,-0.6691718170904762,21.35751401104762
1.357278567,-1.8903801485000002,-16.9735046228,-0.3232797169952382,21.99537168233333
1.362200805,-2.1297609509095237,-18.165059486895238,-0.15709072761428583,22.570860212238095
1.367122959,-2.2341736712428575,-19.373173293609526,-0.177844820852381,23.137076102142856
1.372045342,-2.244469050957143,-20.52476121127619,-0.21623844319523813,23.70255304333333
1.376967473,-2.1814779072714288,-21.58236613737143,-0.17053567852380955,24.270106871333333
1.381889627,-2.0747041930666668,-22.53261675184762,-0.013809766666666693,24.85507254628571
1.386811846,-1.9441573848285714,-23.356568512609524,0.1685246620952381,25.45111256995238
1.391734002,-1.7924792370476192,-23.978417759809524,0.3201753718428571,25.95395670380952
1.396656156,-1.6178224708795237,-24.325785364285714,0.466635896879619,26.211596376190474
1.401578543,-1.4183412773557145,-24.360647564761905,0.5665319858367619,26.18591138285714
1.406500699,-1.2391639334890476,-24.054937635238094,0.5033194151462856,25.85007266485714
1.411422928,-1.146394503679524,-23.37437302738095,0.08893012275104761,25.095936512238094
1.416345308,-1.1994309805414285,-22.25779067895238,-0.5911512830346667,23.839475911
1.42126754,-1.4702584555890477,-20.678089959190476,-1.1757421989870476,22.168529602666666
1.426189694,-1.8561902085414286,-18.78284349871429,-1.247867250677524,20.269149349095237
1.431112087,-2.257415009065238,-16.768803562333332,-0.5350120878203809,18.16533461104762
1.436034243,-2.5867509200176193,-14.758889413857142,0.7149072019891428,15.874824634761902
1.440956387,-2.6175657762938096,-13.002146601571429,1.7521397997986665,13.928147628380952
1.44587854,-2.33053454867,-11.616808397861906,2.140868804417714,12.541485575666664
1.450800759,-1.8364041840604763,-10.517755571528571,1.9780027115605712,11.447087624714285
1.455722915,-1.29439013587,-9.547460153480952,1.5361150547986666,10.462923317714285
1.460645313,-0.8267361858223811,-8.57653760414762,1.118990048274857,9.632903626142857
1.465567469,-0.4536196699176192,-7.525664597195239,0.8741583868891427,8.928455661000001
1.470489622,-0.17878138129857152,-6.39290861362381,0.8057800540748569,8.298141430619047
1.47541186,0.03192971755857134,-5.243531176814286,0.7731811021529522,7.74334541157143
1.480334245,0.1758370531109523,-4.1029187334333335,0.7032072416910475,7.272191052428571
1.485256478,0.259210954525238,-2.976866103861905,0.5832079976100951,6.863900278047619
1.490178865,0.3000040044299999,-1.8581589012904767,0.4616717143386665,6.524028273428572
1.495101021,0.3468022393157142,-0.7798326761952383,0.38944057204342847,6.283942114666667
1.50002325,0.4187131936238095,0.2513029281857141,0.3619034755066665,6.155151870190475
1.504945329,0.506831575052381,1.2455342434238093,0.3630407619304761,6.126686918761904
1.509867558,0.5983749089238094,2.2254606705666666,0.37859271360190466,6.181952926285714
1.514789727,0.6850593374285714,3.182468396519047,0.3885714280447618,6.30103669747619
1.51971211,0.7664566714333332,4.101469044757143,0.3764149048114284,6.470945374904762
1.524634035,0.863475100647619,4.964782469757143,0.33496938131142845,6.693262533714287
1.529556505,0.9835199082333332,5.766395777852381,0.26232771628285706,6.973188717761905
1.534478661,1.1242720023285715,6.507844509566667,0.14376009628285702,7.314280155333333
1.539400814,1.2846231027571429,7.191817390614285,-0.01116566447904776,7.719159120666667
1.544322982,1.4459618123761904,7.810930205947619,-0.18785690709809538,8.176550181333333
1.549245442,1.5945136198952379,8.372318074619049,-0.3752405701933335,8.684785212142858
1.554167598,1.720197571857143,8.886934961619048,-0.5589771897171429,9.199832859285715
1.559089966,1.8131441409999998,9.357254153095237,-0.7464510488123811,9.683522092
1.564012122,1.8862306127619046,9.765709195666668,-0.9621210923361906,10.112964811190476
1.568934351,1.9527815147142857,10.105670860619048,-1.1965590036171432,10.486418982047619
1.573856473,2.021215480714286,10.372061865619047,-1.4418957597076192,10.806488806714285
1.578778627,2.0906719444761905,10.576540515476191,-1.6828073717285714,11.074767559095239
1.583700781,2.1537732701904764,10.727611905,-1.893260893361905,11.284839917761905
1.588623178,2.2140543652380953,10.841439746619047,-2.062956934852381,11.447054983571428
1.593545334,2.2840100775238095,10.92506980890476,-2.1931704169142856,11.57167597104762
1.598467794,2.3508326517619045,10.992493674761906,-2.2819861287000003,11.667319433142856
1.603389978,2.413514025857143,11.037084079904762,-2.3342421253428576,11.730099390476191
1.608312209,2.467244309333333,11.053620474666667,-2.346934077276191,11.757044294761906
1.613234363,2.5183326850238092,11.043993495619047,-2.315263267066667,11.754796025714287
1.61815676,2.5661479199,11.020266805142857,-2.2346498866857147,11.739913592857144
1.623078916,2.6009323000666664,10.993503978952381,-2.1091130744761903,11.72623543809524
1.628001144,2.6027493959095236,10.965459596571428,-1.9468065045952383,11.717430757619047
1.632923218,2.552069539085714,10.923876489904762,-1.7541005100190477,11.700977136666666
1.637845447,2.4549391581809523,10.87024715942857,-1.5232706580666668,11.67375380190476
1.642767608,2.3240642490714287,10.798887615619048,-1.255816993257143,11.625661344761905
1.647689991,2.1826820629,10.716147467571428,-0.9571250279714288,11.56481367857143
1.652612159,2.0360947790619046,10.616836638238095,-0.6301784628761906,11.48556027
1.657534388,1.8876058274666667,10.498915126666665,-0.2931678975904764,11.387867588571428
1.662456544,1.746636971804762,10.362686065857142,0.05356387869523791,11.267586204761905
1.667378946,1.5912771178809524,10.237627800952382,0.42585454674285694,11.141663595238095
1.672301102,1.4091349794142856,10.14229347547619,0.8234823999333332,11.023628581904763
1.677223561,1.2091193493523809,10.07909547652381,1.2430370081238094,10.913734606666667
1.682145717,0.9975485485857143,10.039039293333333,1.6610724812666664,10.81397791904762
1.687067948,0.7944470775095237,10.014811061095239,2.050663721028571,10.73501945095238
1.691990102,0.6039293674095237,9.999082110619046,2.399200530266666,10.676201993809524
1.696912236,0.4296217476923809,9.978939555380952,2.7052081993619046,10.623735669809523
1.70183439,0.28151131826857134,9.941024325619047,2.9648730073619047,10.567891687714287
1.706756516,0.15426879993999992,9.891201836142855,3.1765719141238096,10.511865550190475
1.711678899,0.04687618230666659,9.835845628666666,3.3313733906761898,10.458638132571428
1.716601132,-0.03508152690285723,9.759926750047619,3.4232930512380952,10.387816893238094
1.721523304,-0.09041633333142866,9.661018189619048,3.4382071949047615,10.288259076761905
1.726445687,-0.11510238034095245,9.544051533476189,3.3938394273809522,10.163765272238095
1.731367847,-0.10832766674095246,9.418664069047619,3.3096369504761904,10.023672961
1.736290076,-0.07712442871238104,9.301848865380952,3.1972656192857145,9.883944791333333
1.74121246,-0.048463570752857225,9.186611311666667,3.0426689584857143,9.737067348285715
1.746134616,-0.03550999841952389,9.05926631747619,2.811126246319047,9.57611278252381
1.75105677,-0.04217300013857151,8.897247609619047,2.475769954033333,9.402568267333333
1.755978999,-0.06450985780047627,8.675401483238094,2.0134359115571425,9.24759059247619
1.760901151,-0.09779295096714294,8.382119201476192,1.4613304393666664,9.125255963238095
1.765823305,-0.17837009244809532,8.006207028999999,0.9201305281285712,8.985053458666666
1.770745467,-0.3419352786195239,7.4823320592857145,0.3456132780809522,8.917632526142857
1.77566785,-0.5865647922480953,6.737145571476191,-0.06503774720476205,8.881728589476191
1.780590006,-0.8594160379957143,5.771112362333334,-0.04736531063333346,9.020665502333333
1.785512269,-1.1013494589909523,4.495832545047619,0.5055644654619046,9.667965913285714
1.790434425,-1.240694178914762,2.7229809643809526,1.3883776241285712,10.883294852333332
1.795356807,-1.1645141288623808,0.3065892284285713,2.021105292747619,12.527212046142857
1.80027904,-0.8320333227166669,-2.7116276311904763,1.824563007033333,14.64425818347619
1.805201423,-0.38662308815000007,-5.9507301309523815,0.8633865550809523,17.127103942714285
1.810123578,-0.2038915065833334,-8.937682367666666,-0.23969789563333355,19.396244580238097
1.815045792,-0.47518469256904766,-11.309653770666667,-0.8867933260142858,20.952693992619047
1.819967948,-0.98497970555,-13.072723014428572,-1.0316140360285717,21.925650146238098
1.824890083,-1.5103594768357145,-14.387920913523812,-0.8444384669333337,22.566602734142858
1.829812237,-2.020148432997619,-15.44622606357143,-0.6568259787904764,23.01358009390476
1.834734595,-2.4917887175595235,-16.47902846390476,-0.6584925019809527,23.396906663714287
1.839656751,-2.9029069716357143,-17.54049913119048,-0.7968110236000003,23.78720907147619
1.844578985,-3.1642553114047622,-18.722755375571428,-0.853355358714286,24.247812415476194
1.849501141,-3.250241555247619,-20.014928761380954,-0.7108193089285716,24.836040392666664
1.854423524,-3.226794602233333,-21.262045645,-0.4170502217857145,25.45234118642857
1.859345664,-3.1246812219238094,-22.385612953571428,0.03216916397619022,26.01707137652381
1.864267893,-2.979161891495238,-23.355946825,0.5016377348333331,26.471375368142855
1.869190278,-2.7917558908285716,-24.144762363142856,0.9274237304999998,26.855515237952382
1.874112506,-2.5594044174,-24.678313937095236,1.3349008311714283,27.056763287142854
1.879034659,-2.2649646191095236,-24.928902263333335,1.5624947725047615,27.162021068095243
1.883957042,-1.9530999450142859,-24.925138020000002,1.3664409127761903,27.05428645952381
1.888879194,-1.6736839515666666,-24.57220091185714,0.6579364189904758,26.398840369238098
1.893801348,-1.4927988523142857,-23.674227896666668,-0.3526662200428574,25.131799624190474
1.898723502,-1.4962873759333333,-22.077504203952383,-1.0886860359476194,23.390746618809526
1.90364573,-1.7264640858857143,-19.826850914428572,-0.9820401282809526,21.13898557652381
1.908568115,-2.0600169345999997,-17.30884561152381,-0.11697334474761935,18.49457391604762
1.913490348,-2.143814559695238,-14.991891543761906,0.8609221017761902,16.017178077047618
1.918412545,-1.7901268986952383,-13.229714030857146,1.357546435228571,14.196389687
1.923334699,-1.2134709317428571,-11.999446358476192,1.347980341033333,12.912190996523808
1.928256818,-0.6325921119809526,-11.129420420138095,1.0434536287999998,11.926989184952381
1.933179201,-0.08050772826666683,-10.430789672714287,0.770867000733333,11.14697881842857
1.938101434,0.43327065168571416,-9.68431055861905,0.7137088118528568,10.488609196857142
1.943023574,0.9025429075904761,-8.850104522666667,0.8231094304861902,9.88281347052381
1.947945956,1.2399412947333333,-7.834995687619048,0.8907814305290473,9.268761236714287
1.952868107,1.4344338732571427,-6.643477221761905,0.8474393794814283,8.596614554857142
1.957790261,1.526555682990476,-5.408093779238095,0.7482866214338093,7.9547304127142855
1.96271242,1.5216072543238095,-4.181864384190477,0.6028695215290474,7.387736545619047
1.967634649,1.4548019682333333,-2.9916547002380955,0.5161396657814283,6.937673893952381
1.972556805,1.3718652995285712,-1.859686837714286,0.4665983314766664,6.616789029285714
1.977479192,1.3158534886095237,-0.8102053093809526,0.48158933104333307,6.434413020142856
1.982401348,1.2809445368619048,0.1915266994285711,0.514136807790952,6.332624497476191
1.987323577,1.268409108142857,1.1597139409523807,0.5484736159719045,6.272900563142857
1.992245733,1.270978820490476,2.095541423285714,0.5550499965290474,6.263141227952381
1.997168115,1.2750597745428571,2.9976352199999994,0.5286293777242854,6.313748391571429
2.002090348,1.255929961833333,3.8560426949047617,0.47229485307809493,6.424905996
2.007012711,1.2144176257857144,4.673198601095238,0.39651099579714255,6.589781199238096
2.011934867,1.1652766672142856,5.460806770571428,0.3174607585733331,6.803076930190476
2.01685702,1.1285581397380953,6.213039867095238,0.2513685690019045,7.082802871095238
2.021779174,1.1131927151666665,6.9257092394285715,0.1988721414066664,7.443922062095239
2.026701403,1.1181922392142856,7.601050879428572,0.14550162023523783,7.897354939714285
2.031623559,1.1433530911190477,8.229650832519047,0.05851228275428547,8.435459439857143
2.036545757,1.1928534259285715,8.803562811761903,-0.0641140006076193,9.00220821542857
2.041468139,1.2617049990714286,9.315403098619047,-0.2376606699176193,9.534471888904763
2.046390372,1.3549389988333334,9.757317112190476,-0.4761827680747621,10.017833408095239
2.051312517,1.4783285210714285,10.122930459047618,-0.7491434394414288,10.444984389047619
2.056234671,1.611393903690476,10.424674011761905,-1.0374357622985717,10.811504466142857
2.06115713,1.7634424233571429,10.667453607333334,-1.3022945757747622,11.120741830190477
2.0660793,1.9412065211666667,10.860954625619048,-1.5236113447747623,11.379199657761903
2.071001683,2.133679765257143,11.01672667595238,-1.6974633456938097,11.590156552761906
2.075923839,2.320967534390476,11.145641236761904,-1.8258988183414289,11.759756156
2.080845983,2.503460912404762,11.256437211285714,-1.9127503413557145,11.901360163714285
2.085768211,2.6752860985285714,11.351274218190476,-1.9507646276890476,12.022964880190475
2.090690372,2.825322151104762,11.437408175238094,-1.9493464373461908,12.13415658357143
2.095612526,2.9461142419761908,11.51169954047619,-1.9099444832128574,12.231280631904761
2.100534685,3.034675810909524,11.579792386190476,-1.8351177686604763,12.31861682095238
2.105457145,3.086769098238095,11.640183948095238,-1.7288832004428571,12.395328870952383
2.1103793,3.1026206242857137,11.688340822380953,-1.593917579161905,12.456864602857143
2.115301439,3.0908982469523805,11.71845327047619,-1.435918906614286,12.497160252857142
2.120223822,3.062542103528571,11.72130680047619,-1.2513990480428574,12.507963614285714
2.125146055,3.0256306726904763,11.691677956190476,-1.0476550509476192,12.483830653809523
2.130068256,2.982681907295238,11.620387577142857,-0.8277247654714288,12.415281591904762
2.134990639,2.927766007980952,11.515489033333333,-0.5849010511857144,12.30787340952381
2.139912795,2.853590247142857,11.388591493809523,-0.3176268190428574,12.172840212380953
2.144835029,2.762482149228571,11.244139898095238,-0.014701868090476381,12.010776906190475
2.149757108,2.64753981427619,11.093899544809524,0.32873209105238077,11.823849240666666
2.154679336,2.500461862133333,10.956023125142856,0.6888021947666664,11.629257547190477
2.159601502,2.3287429525238097,10.827630133666666,1.030374275147619,11.43250858104762
2.164523962,2.1418691475666667,10.706613495,1.3334689460047617,11.242316228238096
2.169446118,1.9503041931238096,10.581839107190476,1.5911308108619047,11.055708668857143
2.174368276,1.7646507109714282,10.44317772247619,1.7974008130523809,10.867190333857144
2.179290429,1.5934032741000002,10.280478022857142,1.9443004791476188,10.667667320761906
2.184212812,1.4331773718095238,10.089608578190475,2.0257935275857144,10.447111943571429
2.189135031,1.289688232390476,9.873390742619048,2.037911241985714,10.204429002095239
2.194057185,1.1720970386285714,9.634663649761904,1.9853191957857141,9.942921012714285
2.198979567,1.0924846643428572,9.379750796761906,1.8878239549571425,9.67397619052381
2.203901718,1.0598219547714285,9.117308820857142,1.7602706225238092,9.408116744761905
2.208823947,1.0732507109142855,8.851679870142856,1.6172466263952379,9.147832759095238
2.213746127,1.1266268519619047,8.579650515857143,1.465185481895238,8.889443489904762
2.218668281,1.2021416566761904,8.30425705257143,1.3180293824190474,8.630623434904763
2.22359074,1.2698131827190475,8.03373995290476,1.1993944276238093,8.367604839047619
2.22851291,1.2967047548428572,7.763856229428571,1.1141556217761903,8.093985245666667
2.233435293,1.2696056123714285,7.481832345190477,1.0240788091142854,7.7982379250000005
2.238357228,1.1898783259904762,7.157680273142857,0.8703826240523808,7.46435978542857
2.24327961,1.063772086495238,6.771236124523809,0.5690599140999998,7.1792090199047625
2.248201766,0.879604942647619,6.340040099147619,0.2056438327190474,6.961909662476191
2.253124206,0.6197833687428571,5.8553391553904754,0.025787543719047408,6.7065233913333335
2.258046362,0.3217017493619047,5.265208076961905,0.01815258605238074,6.556804522190477
2.262968516,0.034589553066666584,4.5126606085333325,0.008415071719047408,6.526708685619047
2.267890645,-0.16434658578571437,3.4947382524380948,-0.1118386898809526,6.716686168428571
2.272812799,-0.2039391562795239,2.2160514564380946,-0.056912317166666865,7.18372280447619
2.277734938,-0.10269563765095248,0.6734292082952377,0.5106835168333331,8.10606818947619
2.282657398,0.07739631107761898,-1.1244674039904767,1.2556734628333333,9.370992559238095
2.287579323,0.35260445503476184,-3.2042348355142862,1.735963625790476,10.841782485476191
2.292501724,0.686788164977619,-5.5782725556571435,1.4424354776904762,12.608091500285715
2.297423957,0.9540061133109523,-8.20815675327619,0.4321864176666667,14.865211513476192
2.302346111,1.0247779266919048,-10.975381087895238,-0.7191467014571428,17.328555619000003
2.307268494,0.7574149234061904,-13.56269376341905,-1.4368429424047617,19.461034415714288
2.31219065,0.1650556415014285,-15.5621850008,-1.6349681742285713,20.951441920904763
2.317112878,-0.536438280022381,-17.008004106038094,-1.3559689477761903,21.970080627238094
2.322035259,-1.1984236772604764,-18.118091114657144,-0.8103066271571429,22.79458740747619
2.326957415,-1.751557971022381,-19.076679873561904,-0.3650862319333333,23.45689420142857
2.331879644,-2.0715634049271427,-20.005146148180952,-0.07059774799047615,23.999066648142858
2.336801723,-2.095176356874762,-21.0168207568,0.14108334833809524,24.601466458809526
2.341723951,-1.9405616869414288,-21.991012797133333,0.39393087225714285,25.262531466952378
2.346646308,-1.7103295447033335,-22.843437044228573,0.7116895800666667,25.812402004857145
2.351568464,-1.4628347336080954,-23.55244785551905,1.021265807590476,26.210239173238094
2.356490631,-1.2193510170652382,-24.108110450380952,1.0948429973,26.575570344190478
2.361412859,-1.0057120614271429,-24.469422136095236,0.9444704751047619,26.774332279666673
2.366335015,-0.841704579331905,-24.596511523000004,0.7848839490095239,26.820174752095237
2.371257388,-0.7903901572366668,-24.399056434666665,0.7610923292999999,26.618318476666666
2.376179544,-0.917426200109524,-23.86588875447619,0.6183829063528571,26.096321272809526
2.381102003,-1.205530666109524,-23.00215441852381,0.025663737257618998,25.098120483285715
2.386024159,-1.5646183263000002,-21.80672075642857,-0.6795271145519048,23.73755315042857
2.39094639,-1.9909066585380952,-20.23491495004762,-1.077717328885238,22.140910450714287
2.395868544,-2.4248254638714286,-18.296903893952383,-0.672034560742381,20.22378761004762
2.400790698,-2.751463318038095,-16.023740507190478,0.45521111540047615,17.781527798333336
2.40571308,-2.8637214174,-13.548934121023809,1.7076533333528567,15.101457108190475
2.410635236,-2.6372571799238096,-11.198244837723811,2.4771523833385714,12.73855406795238
2.41555739,-2.092733895161905,-9.37408149177143,2.6756098997052384,11.072406632047619
2.420479619,-1.4490993035904762,-8.04382828824762,2.3616902930385715,9.936240233857143
2.425401771,-0.8522887130190477,-6.998015522580953,1.7683438279909525,9.038496911428572
2.430324153,-0.34737032506666676,-6.060427148961905,1.2524200497528573,8.348386116619047
2.435246309,-0.03219279925714297,-5.105393392533334,0.8739400893433332,7.830812396380953
2.440168467,0.031030914652380844,-4.001036149819048,0.5974297087766666,7.324233458952381
2.445090927,-0.041231897576190585,-2.847676010057144,0.3610465161814285,6.838317690285713
2.450013082,-0.14626442102857154,-1.7181349761047628,0.22023266434904756,6.448671550047619
2.454935294,-0.20733699195238106,-0.6429612345809532,0.1613882839204761,6.186531589142858
2.459857449,-0.1801825604952382,0.37859343960952296,0.17139571219190472,6.042568566428572
2.464779603,-0.0722782256095239,1.3444696104190468,0.25325680795857136,5.996558409333334
2.469701742,0.08498544500952372,2.273921643895237,0.37010413572047607,6.024510089619047
2.474624124,0.27100302072380944,3.175946685085713,0.46782156279190473,6.113832425523809
2.479546313,0.4874587755333332,4.0319658187047605,0.5036207995819046,6.277079253190475
2.484468467,0.7447773403428571,4.844738387990476,0.4667059911961904,6.488699642238096
2.489390706,1.0147652868190478,5.611901710180952,0.3515008466199999,6.756573672238095
2.494312862,1.264553900342857,6.319231970942856,0.1875075163771428,7.094032374333334
2.499235321,1.4576503791047617,6.994227415799999,-0.013175010194285797,7.500299203571429
2.504157701,1.589755191747619,7.632011556180951,-0.2231985269085715,7.983981649571429
2.509079857,1.6804124770142856,8.239575473823809,-0.4257357626704763,8.531703309714285
2.514002011,1.751289007252381,8.803507634333332,-0.5996236718466668,9.105106452809522
2.518924239,1.812752771966667,9.311305238857141,-0.7452820542133335,9.628494601095237
2.523846395,1.8763348176333334,9.766537666285714,-0.8720377743085714,10.099615742142857
2.528768549,1.9561426781571432,10.174480869666667,-1.0037413497371428,10.53439604504762
2.533690703,2.053753577538095,10.536759172238096,-1.1433877833561905,10.933980917
2.538613086,2.1628964430142856,10.852827866761904,-1.2980129238514286,11.295514713904762
2.543535318,2.288217587157143,11.118493397857142,-1.450673356189524,11.609438923238097
2.548457696,2.4293166796714285,11.339787346666665,-1.594079924737143,11.877019676666666
2.553379621,2.5798836322190475,11.526154290809522,-1.7259360694761905,12.105165042619047
2.558302004,2.7194373437619044,11.674719038333333,-1.8419333087142857,12.288027282571429
2.563224256,2.8334185793809525,11.787152154142856,-1.9421796388380952,12.425643215285715
2.568146409,2.9180648667619047,11.874256134285714,-2.0173798304,12.527445793333332
2.573068792,2.9767900024285714,11.936728431904761,-2.0609596372714285,12.597684746190478
2.577991021,3.0099320525238094,11.971647716666666,-2.057870300128571,12.638376502857144
2.582913175,2.9950871013333336,11.978548685714285,-2.008501109685714,12.64839714047619
2.587835329,2.935941151190476,11.964654786190476,-1.9144844384904764,12.637110721904762
2.592757472,2.8376219641285716,11.919298308095238,-1.7683669627238097,12.59588690952381
2.597679855,2.7261723010095236,11.850983392857142,-1.5777345796714286,12.534954900952382
2.602602011,2.6182008712047615,11.760700498571428,-1.3448345278142857,12.452897862857142
2.60752424,2.526059677190476,11.650020872190476,-1.0794522038619048,12.348236364285716
2.612446395,2.446596294642857,11.516189666571428,-0.7867076808619048,12.216406860476193
2.617368807,2.3761182413095234,11.360561553095238,-0.462755585004762,12.058238999047619
2.622290963,2.2954998598095235,11.194413231142855,-0.11305205733809527,11.88477600904762
2.627213117,2.2015314315095234,11.018542063047619,0.2547304218999999,11.697636157000002
2.632135581,2.0871941887142857,10.839108058714285,0.6306394779,11.50104357404762
2.637057737,1.9545446676666667,10.664193653190475,0.9926361058523809,11.301114033095237
2.641979967,1.8062108059285713,10.494460106333332,1.3357201006142856,11.099910301095239
2.646902107,1.649078186042857,10.327271870714284,1.6527960116619045,10.89994872452381
2.65182449,1.486560805890476,10.16299620195238,1.9353495368523808,10.705749785428573
2.656746631,1.3231362828095237,9.99653784495238,2.184515015090476,10.513768245571429
2.661668785,1.163151285452381,9.833054860904761,2.3976861565666665,10.330317633333333
2.666590938,1.0099525706619046,9.673472768095237,2.5762989678047616,10.15647179252381
2.671513167,0.8680339001142857,9.507261866714286,2.7031075373666664,9.980551444
2.676435323,0.7377828089809524,9.321728888333332,2.749516016047619,9.78218958552381
2.681357726,0.6315004236523809,9.118166446857142,2.7039103480285713,9.563557846904763
2.686279882,0.5649028533761904,8.901042779380951,2.6207318255866667,9.334425524523809
2.691202036,0.5331939487095237,8.681761446523808,2.5419611057485714,9.10351434795238
2.696124274,0.5101625686819047,8.475589547857144,2.464038199558095,8.884368909904762
2.701046735,0.4715288545628571,8.268825008571428,2.3661123889390474,8.660057544428572
2.705968891,0.40832042497714277,8.039324692333334,2.2001277196890476,8.406886799809524
2.710891265,0.32047480718190474,7.764381999047618,1.9068105379747617,8.150630808333332
2.71581319,0.21073685749142848,7.431456475,1.4615035783557142,7.980577032190475
2.720735568,0.06882985811047614,7.034647334142856,0.9386861596890475,7.872961129857143
2.725657723,-0.1307813856276191,6.5477693307476175,0.3462242444509523,7.846623701238095
2.730579867,-0.42389786147047626,5.910089890128571,-0.4351465315014286,8.06378442852381
2.735502096,-0.7777745742466667,5.07469380465238,-1.2319212141680953,8.412449331476191
2.740424252,-1.08863748158,4.0641162397,-1.6800420352633334,8.672483606238096
2.745346396,-1.2826114826514288,2.8624271551285707,-1.4062145505966668,9.133068807285715
2.750268778,-1.3365627687847619,1.3329349131285706,-0.5316435449776193,10.20323582957143
2.755191011,-1.2166763903466669,-0.6959979762047626,0.3947863966890474,11.712556372476191
2.760113165,-0.8822960162657144,-3.2872396311095247,0.6474784830223808,13.541367470904762
2.765035548,-0.3486494328609524,-6.2978456703952395,-0.05708177421571451,15.864777996
2.76995778,0.1699212016438095,-9.441936231871429,-1.0947588465966671,18.41433320109524
2.774880154,0.37237353200095236,-12.186519270966667,-2.096926321310953,20.565619327238096
2.77980231,0.056569630943809526,-14.122291304014285,-2.547961883310953,21.86108222047619
2.784724454,-0.50347184968,-15.448808840633335,-2.296820587768096,22.698291314333332
2.789646608,-1.037876200641905,-16.466495185061905,-1.7482833197071432,23.433465669571426
2.794568846,-1.4875161738323808,-17.39935210791905,-1.5329589944880955,23.94727578661905
2.799491002,-1.7542656972190478,-18.378232672109522,-1.5411689921880953,24.39140562514286
2.804413385,-1.8240490782666665,-19.390947239966668,-1.6409118986119051,24.848192205380954
2.809335618,-1.7262260289238096,-20.401739790395236,-1.597553755371429,25.36339945190476
2.814257695,-1.5328765029238094,-21.358067705490477,-1.311197567371429,25.907734103857145
2.819179908,-1.304758219542857,-22.222566842966664,-0.879704137466667,26.35092778238095
2.824102293,-1.0910527479714287,-22.978851902919047,-0.39660833265714324,26.693485411380955
2.829024526,-0.8829465991619049,-23.59818551661905,0.21127020472380914,26.92167615857143
2.83394668,-0.6434106472714285,-24.001705805523812,0.7681386499142855,26.836006434761906
2.838869062,-0.4056529360809523,-24.158167021904763,1.3674139466619044,26.59224891904762
2.843790987,-0.26122845217619045,-24.098023505714284,1.6507347660238092,26.424084408095236
2.84871338,-0.2584466863666666,-23.794213885238097,1.2533853786047617,26.027603250476187
2.853635536,-0.3896597780142857,-23.116945312000002,0.3056438472714284,24.9944475872381
2.858557999,-0.6696196837285714,-21.884174891714288,-0.6597023359190478,23.477983483190478
2.863480155,-1.1295581531095238,-20.02003937657143,-0.9366877541571431,21.58330393519048
2.868402324,-1.7342684991095236,-17.65735873690476,-0.25300787249047624,19.11958080047619
2.873324478,-2.254921038704762,-15.086831138095238,0.7610275284619048,16.368556024095238
2.878246707,-2.4035688919904765,-12.836453562523811,1.7093764338619049,13.968169818190475
2.883169105,-2.0037223722761905,-11.304670963714287,2.0957683744390474,12.417730734523808
2.888091261,-1.3541575158952381,-10.289397279090476,1.8004766980342854,11.358026149857142
2.89301349,-0.7419296899428571,-9.49048469137619,1.2008453827009524,10.449271155666667
2.897935632,-0.23969462360952387,-8.704656475852381,0.8988756274628573,9.811407178857143
2.902858015,0.07474499667619039,-7.817323991185715,0.7956754387342858,9.284209573952381
2.90778017,0.2023159011047618,-6.841193187519048,0.7886155807771431,8.793268596619047
2.912702333,0.17560004346190466,-5.792111771328572,0.6864759148342858,8.321185238142858
2.917624562,0.057802468657142766,-4.700995956090477,0.45590372521523814,7.874103157761906
2.922546718,-0.0866673403000001,-3.5909903503285716,0.2343390576438096,7.4930569590000005
2.927469101,-0.1988426686952382,-2.474069697566667,0.04026210516761913,7.197883791761905
2.932391256,-0.24592157406666673,-1.3634900250428579,-0.1987378065466666,6.972319236809525
2.937313495,-0.22914762180857154,-0.27916809456666736,-0.17720247523714278,6.851436689190476
2.942235651,-0.1347943334038096,0.7778816116238089,-0.15841128360380946,6.778375758238094
2.947157805,0.029734567243809438,1.8017959940047612,-0.15310861669714276,6.731296047761906
2.952080293,0.2398988019914285,2.7822886311476185,-0.18621285475428564,6.726786649190477
2.957002449,0.4592994178961904,3.727954671719046,-0.28200285492095234,6.7658948214761905
2.961924832,0.6630423250866665,4.629724763814285,-0.432020235635238,6.867422706476191
2.966846978,0.8405898990866667,5.469744580099999,-0.6075978080161905,7.039863911619048
2.971768901,0.9645027557533332,6.247088125671427,-0.7899753848733333,7.3053126444285725
2.976691284,1.026011565967619,6.9757633549571425,-0.9715650053495236,7.659499943666666
2.981613439,1.0513415644914286,7.66322192700476,-1.1250500508923809,8.106566645285714
2.986535663,1.0660908530628572,8.30877860962381,-1.2367982410409524,8.618720324190477
2.991458048,1.088301905158095,8.900222715952381,-1.3337062853028572,9.147127922190478
2.996380204,1.1350983405866668,9.423847641571427,-1.4562576640647618,9.663112952095238
3.001302437,1.2131358693485712,9.879843939380951,-1.6183879518266666,10.149213097
3.006224822,1.3297505346342855,10.27112508995238,-1.8214625830171425,10.602367655714286
3.011146978,1.4820237269199998,10.60184567342857,-2.0433549569219047,11.014680631142857
3.016069207,1.6611180641819048,10.872839473904762,-2.2388213334457143,11.368859903428572
3.020991363,1.8646286849390474,11.08214755342857,-2.375759962112381,11.65063201904762
3.025913516,2.0782351702295236,11.233073325761904,-2.45634247863619,11.861873602571428
3.030835899,2.2930293972914284,11.333708945380952,-2.4796947666838096,12.01119435647619
3.035758055,2.5042065370438094,11.396936508095237,-2.4583230983885715,12.11597554047619
3.04068019,2.7056682974666666,11.43173799095238,-2.4091303831266666,12.18934283904762
3.045602419,2.8841518702047617,11.450934591904762,-2.3358771446504765,12.246243331428573
3.050524574,3.0302785407,11.465694927142856,-2.2352454818714285,12.298114256190475
3.055446723,3.1441386880476188,11.471799759523808,-2.100122335442857,12.340697031904762
3.060369106,3.2228054942380955,11.46995667047619,-1.9318438569904761,12.36933577952381
3.065291349,3.2608016444285717,11.457926296190474,-1.7315691851809523,12.377666408095237
3.070213503,3.259954355904762,11.440454483333333,-1.516114708990476,12.371725407619047
3.075135885,3.235108358428571,11.406634558095236,-1.2980726134666665,12.344511375714287
3.08005806,3.1934890235476185,11.346608798095238,-1.0856567593238093,12.286478070952382
3.084980289,3.1377563561238095,11.249917484761903,-0.8722491860857142,12.18503002047619
3.089902673,3.0706951163619047,11.119272005285714,-0.6583473257047617,12.045523461428573
3.094824799,2.991831308290476,10.971084776666666,-0.43184071213333325,11.882875507238095
3.099746953,2.9027734455190477,10.818027042285713,-0.16701200179999987,11.703510644761906
3.104669107,2.7995363473476194,10.670729409999998,0.14071862186666678,11.511826288428571
3.109591336,2.6780888239190475,10.531052362333332,0.48399439591428584,11.30657528004762
3.114513492,2.537660871204762,10.399716104857143,0.8393099108666668,11.095156483809523
3.119435874,2.3788326751571427,10.278958366047618,1.1749041449142859,10.892454489000002
3.124358107,2.2067031008714286,10.168111528476189,1.4634480106761907,10.709583589000001
3.129280246,2.0286938519666666,10.057105881809523,1.6972072890095238,10.540472638476192
3.134202629,1.8458975297952378,9.939251309095239,1.868569479009524,10.376809721142857
3.139124789,1.6651428654095237,9.807492392095238,1.9744391951428573,10.20779323052381
3.144047018,1.5010874867380952,9.661748272809524,2.0196222917619044,10.029752913238095
3.148969174,1.3604975796904761,9.512551557333333,2.0082252933333335,9.849821832761904
3.153891538,1.2507132887857142,9.35950715190476,1.9512904881904762,9.667062974666667
3.158813693,1.165537093357143,9.203215894285714,1.8572464357761906,9.481097121476191
3.163735847,1.1046718103571427,9.043541295238095,1.7483230033952384,9.295557253190477
3.168658057,1.0711893268809523,8.881290572047618,1.640192713,9.11318403609524
3.173580442,1.0490885660714286,8.721674328761903,1.5506585694142858,8.937303702190476
3.178502598,1.018600707942857,8.566195033952381,1.482622001795238,8.768772116619047
3.183424831,0.9700685185857142,8.416688623809524,1.4251161955095237,8.60938135
3.18834691,0.8983306132380953,8.265732787809522,1.3567303361809526,8.449339326238096
3.193269139,0.796519610142857,8.110392297904761,1.2279476182142859,8.28929980204762
3.198191552,0.6718137505476189,7.934800511190476,1.002385528261905,8.141104911190476
3.203113785,0.5292343170809523,7.7209316888095225,0.7838939569761907,7.963401072428571
3.208035938,0.37452445853809513,7.442770401523809,0.6303360035952382,7.7160179165714275
3.212958307,0.21710759825238088,7.066620054571429,0.3970736690714286,7.456607859380953
3.217880463,0.004281459823809432,6.530450684571429,-0.0767857659285713,7.4420798849047625
3.222802673,-0.29665421160476196,5.7781666118571415,-0.4366203802142856,7.489258843523809
3.227724752,-0.634733743557143,4.8227379889523805,-0.23653871954761896,7.70965302352381
3.232646951,-0.9524162709380954,3.566258317047618,0.42777230359523816,8.43601276642857
3.237569107,-1.166161510147619,1.7744960107142849,1.4022922546428571,9.776628554238096
3.242491499,-1.1531217934761906,-0.7333121294285723,1.9979564945952382,11.607860135333333
3.247413655,-0.8828889485666668,-3.891206468238096,1.5308326398809524,14.061941174523811
3.252335883,-0.5787933283761907,-7.267332530380954,0.41311917716666663,16.902713759285714
3.257258034,-0.5404778562333334,-10.395897205904763,-0.5497931948333333,19.45710679642857
3.262180417,-0.8631049465190477,-12.940869648285714,-1.022095923990476,21.349770278190476
3.267102573,-1.4083538693761906,-14.782909346857144,-1.0603059711333334,22.564756849809523
3.272025013,-1.9773970401380954,-16.162585643666667,-0.8833758784999999,23.388265539761907
3.276947169,-2.492583128566667,-17.329376197047623,-0.7356895474380952,24.013041883666666
3.2818694,-2.9176653949142857,-18.453517572238095,-0.7652787860380952,24.55713115257143
3.286791521,-3.158790877819048,-19.70990775780952,-0.7412202624190476,25.17508544109524
3.291713675,-3.2383100247619048,-20.971576371809526,-0.5870252744714286,25.811460554857142
3.296635824,-3.1607781179619048,-22.17589780147619,-0.3068030373619047,26.420475130000007
3.301557977,-2.9630005458190483,-23.29995597995238,0.0701371448761905,26.975984352666664
3.306480355,-2.707561639009524,-24.322052750333334,0.3802908108761905,27.499072393904765
3.311402511,-2.4426413475809525,-25.207686661714288,0.5202828095428571,28.008561095142856
3.316324655,-2.2236513962952382,-25.907932076142856,0.6473649048000001,28.443636489285716
3.321246884,-2.005232974104762,-26.358489875809525,0.9486588682761903,28.562733697619052
3.326169268,-1.7511861107352382,-26.52486660285714,1.1317642462285715,28.562594842380957
3.331091443,-1.516538053354286,-26.426169167714285,0.797373679752381,28.337167641238096
3.336013903,-1.3489612407828573,-25.967341286238096,0.06271161158571428,27.579403361142855
3.340936058,-1.315181426687619,-24.906187011761908,-0.9317227167476192,26.189720055476187
3.345858285,-1.5240023827828575,-23.05251775457143,-1.509453434747619,24.288972408380953
3.350780439,-2.0042868919733334,-20.47396353304762,-0.9971686336523811,21.743981551047618
3.355702593,-2.523056031306667,-17.603035381952377,0.17658715963333327,18.772909297285715
3.360624737,-2.768760125878095,-14.902640950285715,1.1960249153,16.038901388333333
3.365547119,-2.6284507920685716,-12.707174884547143,1.7199917896809525,13.921584722142857
3.370469275,-2.222684821497143,-11.14543912969,1.8069273595380952,12.468823404047617
3.375391463,-1.7559729825257147,-9.986029833547143,1.6692109810619047,11.43823348652381
3.380313692,-1.2832584668590477,-8.988262566880477,1.5242725575380953,10.644535394619046
3.385235848,-0.8443270102066669,-7.9859673907376205,1.5238854140190476,9.977251830904763
3.390158244,-0.5581381466209525,-6.807170032213811,1.4434907968790474,9.27818192047619
3.3950804,-0.4273697127161906,-5.572509406737619,1.2326794742457143,8.612149649809524
3.400002841,-0.4495201408857144,-4.347780981547143,0.9275412382457142,8.020988222523808
3.404924997,-0.5809605689380953,-3.1469254085471436,0.6222532413409523,7.50848752047619
3.409847227,-0.7556819944285715,-1.9817482901185721,0.39254890954571425,7.08398130752381
3.414769366,-0.9353772856000001,-0.8639559335471434,0.2894866261361904,6.766910624476191
3.41969152,-1.058504949009524,0.19189405002428506,0.315847578207619,6.560997947952382
3.424613908,-1.1080604720780953,1.1810343336433327,0.44011110036476186,6.450129860714286
3.429535833,-1.080356520209524,2.123918688071904,0.5872711422695238,6.421210273142857
3.43445824,-0.9632052371142857,3.030888711976666,0.6968720949838095,6.473902462380953
3.439380472,-0.7653153300666669,3.917544837167142,0.7226445707504761,6.594672453428571
3.444302626,-0.5034980450666667,4.775994091738571,0.6697906162390476,6.776845568619048
3.449225019,-0.21351061725714293,5.593277086452856,0.5517800442009524,7.0178727004761905
3.454147175,0.07797323912380943,6.356986313500475,0.37703137939142856,7.303280225428572
3.459069412,0.36256071321904754,7.068472562405238,0.15611047605809525,7.655729006333334
3.463991797,0.621883617647619,7.723027718357618,-0.09064204718,8.083157083857142
3.468913953,0.8462518038857143,8.32369496642857,-0.3407782807038095,8.58399135147619
3.473836177,1.0221135201714284,8.875800041095237,-0.5896860397990477,9.118770180999999
3.478758333,1.167887714342857,9.383879569714285,-0.835418035037143,9.639957073285714
3.483680486,1.2762756152952381,9.847797710666665,-1.0621468036085713,10.132078751380952
3.488602879,1.3667005701666666,10.26924555547619,-1.2679052361561904,10.583610354619047
3.493525112,1.4629943828666665,10.642051060285713,-1.4293269523495238,10.98626169742857
3.498447286,1.584257241152381,10.960958366714285,-1.5384459560971429,11.332469297619047
3.50336944,1.7366854264742857,11.22083055342857,-1.5729722928590477,11.61246060204762
3.508291593,1.9024477643838096,11.42632398090476,-1.5687470047638097,11.835054573619047
3.513214058,2.067389668493333,11.586644035809522,-1.5488511474733333,12.012427530380952
3.518136214,2.2301143365695237,11.711913062571428,-1.5182411477333335,12.153268507238096
3.52305861,2.3692679519314286,11.812365530904762,-1.4946833857809525,12.268147337095238
3.527980766,2.472488289857143,11.88979280442857,-1.4776653883190478,12.357674943857143
3.532902995,2.534448527238095,11.942092621904761,-1.4607906719380952,12.418778329047619
3.537825151,2.5437202454285712,11.969650721904761,-1.438691148652381,12.44986093952381
3.542747305,2.4923760550809524,11.971057028571428,-1.3922595277285714,12.44908858952381
3.547669459,2.3878618621190477,11.946522258095237,-1.3084143368361905,12.417767507142859
3.552591822,2.251782722132857,11.898990812380951,-1.1823149092742857,12.36292729
3.557514055,2.10437543449,11.838168416666665,-1.0010750942742859,12.29796529952381
3.562436223,1.9503456223661904,11.75555061142857,-0.7529058991790476,12.212084955238094
3.567358377,1.794753007656667,11.654498145714284,-0.4574435746552381,12.10483783
3.572280531,1.6419810550471428,11.52640874047619,-0.13583763113142858,11.967999939523809
3.577202986,1.4969935286328573,11.368391309619048,0.1991261333447619,11.80352582095238
3.582125142,1.352237333542381,11.184972718,0.5462152196304763,11.617553662285715
3.587047296,1.1982765294042856,10.989010811190477,0.9013859350114285,11.422264549142856
3.591969664,1.0311713826090476,10.782185146047619,1.2572135617257143,11.219509022761905
3.596891896,0.8567894282852381,10.573465529,1.5959058067257141,11.018469080857143
3.60181405,0.6709382857899998,10.37124393095238,1.9091325292971428,10.829347951666668
3.606736409,0.4721201471233333,10.184357325190476,2.1875751959638094,10.662112425761904
3.611658334,0.2683450477899999,10.015909512809523,2.427065148725714,10.51494862447619
3.616580793,0.06746533202809517,9.86352938695238,2.6314033359923807,10.384311789952381
3.621502872,-0.12110590535285722,9.720946811666666,2.799415954661905,10.263173778714286
3.626425101,-0.29423218849571436,9.57730456795238,2.933532045142857,10.140395585523809
3.631347257,-0.4505104808290477,9.435959089857143,3.0315258106666665,10.016199333714285
3.636269731,-0.5914478602576191,9.294985181238095,3.0943058105714285,9.887106932857142
3.641191809,-0.7108581962814287,9.144764151190476,3.1105720487142854,9.740267766380953
3.646114038,-0.7989196737385716,8.977308909238095,3.068904760447619,9.569152652095237
3.651036194,-0.8577061028480953,8.791320483238094,2.9679354259952384,9.378046410047618
3.655958654,-0.8991304351238095,8.596623920380953,2.846588475442857,9.178798490761906
3.66088081,-0.9438142945761906,8.401681536666667,2.7214878060238097,8.978501662857143
3.665802949,-1.0239086320238098,8.215869426619047,2.6026853238523806,8.794184743571428
3.670725332,-1.163589775457143,8.047062828285712,2.4685501385857145,8.649351088714285
3.675647488,-1.3500979286095238,7.894774800142857,2.2522420443476188,8.546593894
3.680569627,-1.5726798714809525,7.760683672666667,1.905739422347619,8.513248043904762
3.685491856,-1.8157468607238096,7.636365436238094,1.555208048633333,8.49582257504762
3.690414031,-2.0557767775857143,7.4966529663333334,1.3520473369619048,8.430669227714287
3.695336414,-2.315036211552381,7.311770416333333,1.183092286209524,8.352219095857143
3.70025857,-2.5784346942285716,7.030139298523809,0.8644943336857142,8.256088027428572
3.705180808,-2.8356584024952385,6.6229057225380945,0.4415839385428571,8.188311991809524
3.710102963,-3.1147185051619046,6.1047168145857125,0.38141499101904763,8.111137625095239
3.715025117,-3.3983508971619045,5.457951151061904,0.656676211495238,8.288093750190477
3.719947485,-3.6620256615428572,4.544952225014285,1.158326147304762,8.763032483761904
3.724869718,-3.8542907974476193,3.1278807007761897,1.7476948991619048,9.630911055952382
3.7297921,-3.821914319347619,0.8723375368714279,1.8879339562571427,11.102559713904762
3.734714236,-3.4569693163952375,-2.3133173759857146,1.1231851671619049,13.582696379523808
3.739636159,-2.952819595633333,-5.960691801652382,0.07292856282857128,16.62053682847619
3.744558538,-2.6685686010857146,-9.546706980652383,-0.6756425093142857,19.553283692571426
3.749480694,-2.847457606042857,-12.481435580604764,-1.1079382716666666,21.844660453047616
3.754403138,-3.3452582228285714,-14.50773433079524,-0.9498150367380953,23.31963542604762
3.759325063,-3.836614107233334,-15.849356865080955,-0.5220620878047619,24.242446262476193
3.764247446,-4.207800068471429,-16.91326580517619,-0.18375908948095235,24.874366696095237
3.769169621,-4.501484346709524,-17.980837649414287,-0.012815758309523797,25.43678410347619
3.77409185,-4.709787650661904,-19.095875362985716,0.0972594273857143,25.97172825547619
3.779014006,-4.752552541423809,-20.25728855579524,0.328279140052381,26.472232690190474
3.783936451,-4.5929444043761904,-21.449799137938093,0.7224952915285715,26.916418056000005
3.788858607,-4.302003270990475,-22.619769127985716,1.0977683375761906,27.329773989238088
3.79378099,-3.960115308752381,-23.743277717461908,1.2415676709142855,27.759322237333333
3.798703145,-3.5702703007999994,-24.771559678509522,1.2157054326809524,28.158180754619053
3.803625299,-3.167511867085715,-25.643764129842857,1.2847105246809523,28.533989542571426
3.808547523,-2.782395255895238,-26.31933368961905,1.4461944369190478,28.825518758809523
3.813469679,-2.4015771500380954,-26.79960559685714,1.2751973878,29.05126851
3.818391833,-2.056175472685714,-27.072911080952377,0.821265118795238,28.950612038095237
3.823314011,-1.7816744697333333,-27.000681559333337,0.17527570950952379,28.487591235952383
3.82823647,-1.6219965725428571,-26.350233895380956,-0.5328238031095238,27.575609945999997
3.833158626,-1.7015129961666664,-24.788915293428577,-0.7599869533,26.013600155714286
3.838081038,-2.0973386660714284,-22.227391038285717,-0.04841649730000001,23.396853771095238
3.843003194,-2.617129576595238,-19.12902989804762,0.9759702947476191,20.177291932809524
3.847925422,-2.8957730938857145,-16.01992868209524,1.7390161732238099,17.036863320523807
3.852847592,-2.696997705938095,-13.48362331109524,2.2245531742714286,14.51258677914286
3.857769975,-2.170988756042857,-11.776974799185716,2.152455702461905,12.788894837238095
3.862692131,-1.6329603012961906,-10.679818598042859,1.8113817069380953,11.64205354204762
3.867614285,-1.1817672432295239,-9.790508090661907,1.537421899938095,10.838526783333334
3.872536438,-0.744316388672381,-8.838570347185716,1.4021111421761903,10.148797233476191
3.877458672,-0.30470975048190485,-7.798722723614286,1.3199698137523808,9.500373530380951
3.882380828,0.02808629523238084,-6.670587110566668,1.1892646274285712,8.901762796190477
3.88730323,0.19080800861333322,-5.466042339280953,0.9984252843095237,8.348003434333332
3.892225386,0.23789557865619035,-4.241762390709526,0.8097129488809522,7.855434427952381
3.897147614,0.23141105313238083,-3.005455746233335,0.6961639016033332,7.432502858619047
3.902069756,0.1912820528799999,-1.776055974423811,0.7153884246795237,7.09189260852381
3.906992139,0.1164556249942856,-0.5624315196619062,0.7992735182033331,6.832986848047618
3.911914372,0.024198054337142744,0.617626505576189,0.9084811398509522,6.66603323852381
3.916836744,-0.059244900429523926,1.7475693089095221,0.9943431860509522,6.607159274714286
3.9217589,-0.11327261532952393,2.83357029605238,1.0287482819938094,6.656462946142858
3.926681054,-0.11521732755809537,3.8687948925285696,1.026981188765238,6.799738524952382
3.931603194,-0.054316947358095356,4.839839205719047,0.9941507588366666,7.010287141571428
3.936525423,0.053948761265714185,5.740741613290474,0.9198745708728572,7.271801494238095
3.941447578,0.1666059534942856,6.5795830514809515,0.8050459019966665,7.59396484647619
3.946369732,0.27808481011333325,7.353508662671428,0.6590522861014284,7.979988658095239
3.951292115,0.3705841457371428,8.073930079099998,0.485718385768095,8.42355204895238
3.95621429,0.44470205036095234,8.732052425719045,0.3035220524823808,8.92077933557143
3.961136519,0.5070496235609523,9.335370955238094,0.11703571748238083,9.463617934142857
3.966058674,0.5609161017190475,9.882931652666665,-0.08104371527952395,10.003858252190476
3.970980837,0.6098872459380951,10.373769714809521,-0.29453766418428584,10.50716143090476
3.975903297,0.6541940549523808,10.798933642285713,-0.5242635756604763,10.951919257428571
3.980825681,0.6901431999999998,11.155626660142856,-0.746865480427143,11.332749015761905
3.985747818,0.7229633396190476,11.442760762809522,-0.961868675674762,11.64516787757143
3.990670049,0.7621762476666666,11.663706234857141,-1.1429174818890477,11.892645071333334
3.995592126,0.8063353875714285,11.831420626285713,-1.2909155767938096,12.083794020095239
4.00051436,0.8557672054285713,11.949299086095236,-1.408832436849524,12.22043564704762
4.005436516,0.9125781038714285,12.018360955714284,-1.4944402919400002,12.303302346666666
4.010358888,0.9894922894238094,12.039080075238093,-1.5474258636209526,12.333868691428572
4.015281044,1.0955039554142856,12.02201330142857,-1.5720632923971432,12.32465118857143
4.020203273,1.2154815772285712,11.974356788095237,-1.5665003880495239,12.284356437142858
4.025125434,1.3078711977142856,11.895620074285713,-1.5208147220828572,12.212118929523811
4.030047588,1.365045578047619,11.794361887619047,-1.4397180104733336,12.121525327142857
4.03496996,1.3712200544190476,11.687254044285712,-1.3195187289257144,12.033466086190478
4.039892193,1.3183022454142856,11.577494077619045,-1.1564319665333334,11.952393103333334
4.044814347,1.2246747216142855,11.458340419142855,-0.9508439181333335,11.870201150476191
4.049736711,1.1078660517095236,11.328398978142856,-0.704464818,11.783184360952381
4.054658943,0.9852995730904761,11.188546318095238,-0.42134749528571436,11.689058742857142
4.059581097,0.8607541918999999,11.049723898714285,-0.10462615242857153,11.598270911904763
4.064503222,0.7361859508999999,10.904423396619046,0.24444956228571418,11.50146549047619
4.069425376,0.613567042947619,10.745496569142855,0.6182419494761904,11.387810305238096
4.074347759,0.4914940908047618,10.571516083380951,1.0107142847619046,11.251115895238096
4.079269914,0.3655468083761904,10.389057841666666,1.410467435238095,11.096691750952381
4.084192143,0.2306657604095237,10.213384720380951,1.8035901537142853,10.940260273619048
4.089114304,0.0853883311904761,10.051676751190476,2.183711010142857,10.792063641095236
4.094036687,-0.07012881552380962,9.900623276904762,2.540504970047619,10.653061435142856
4.098958842,-0.22967323804761913,9.758387430142855,2.862723115666667,10.523319421238094
4.103881071,-0.39170567195238104,9.62369968847619,3.1358479808095234,10.400067140333332
4.108803456,-0.5507674274285715,9.494672730619047,3.349802213809524,10.281310413142856
4.113725612,-0.704958614857143,9.367129553571427,3.488484309585714,10.161084605285714
4.118647851,-0.8581027587142859,9.235521998142858,3.5457730237142857,10.030880678333332
4.123570006,-0.9954687583809525,9.089474950857142,3.516602500614286,9.878960674285715
4.128492403,-1.0623168547761905,8.92124591595238,3.3952275472380955,9.703625447238094
4.133414636,-1.054757854747619,8.732132071714284,3.1940375013333333,9.514424304714286
4.138336727,-0.984526804509524,8.529344377047618,2.931385739952381,9.321565719619048
4.143258956,-0.8747383270809524,8.330700897095236,2.6410271624761905,9.128219901
4.148181111,-0.7482550910333334,8.139584155380952,2.3431074463333332,8.927565755238094
4.153103514,-0.6327535651761906,7.961384069428571,2.032944061952381,8.726022339142858
4.15802567,-0.5647864222561906,7.792163553761903,1.7223705975714285,8.52050186709524
4.162947824,-0.5672330907323809,7.613075392666665,1.412318157285714,8.306028908809523
4.167870033,-0.6573487514466668,7.415640467761904,1.1291525889047618,8.097669976571428
4.172792417,-0.8136714634466667,7.2078147843333324,0.9341422049714284,7.917400333523809
4.177714573,-1.0172007134942858,6.9797084899523805,0.8902513427333332,7.803652297285714
4.182636802,-1.2462478189228572,6.655367374428569,0.7426570554476188,7.626039236571428
4.187558881,-1.515366190384762,6.08947109038095,0.038394594685714184,7.7554819786666656
4.192481114,-1.8251510370228572,5.285515876047618,-0.9597022347904763,8.248466815
4.197403499,-2.094758842070476,4.41011605942857,-1.1074532936190478,8.364963693809525
4.202325665,-2.323580596546667,3.4969293504761896,-0.4506333825238097,8.944457958190476
4.207247894,-2.543843464641905,2.331655820238094,0.7663310441428569,10.118179292904761
4.21217005,-2.6235380365466665,0.612077304285713,2.075807567380952,11.676361804857143
4.217092217,-2.3918161244514287,-1.8964052653333348,2.7322601209523807,13.554810244619048
4.2220146,-1.8871540194514285,-5.134705543238097,2.1093249394285714,16.146284048714286
4.226936756,-1.3825480960704761,-8.68152014404762,0.7006810453857142,19.321965017047617
4.231859221,-1.3308286661228572,-11.870345410571431,-0.40655095742857156,22.08933410552381
4.236781376,-1.796488122732381,-14.03723469204762,-0.5874533420000001,23.715571579
4.241703607,-2.369883232922857,-15.45050280404762,-0.02942822028571443,24.71356038933333
4.24662577,-2.9475114082085714,-16.47735843171429,0.7259144562380951,25.49331054890476
4.251547924,-3.524697033256191,-17.372489542952383,1.2376958195238095,26.071111322285716
4.256470078,-4.003389539303809,-18.32249625504762,1.4274705314285712,26.55414931695238
4.261392237,-4.288827242985714,-19.39294785504762,1.6286175314285716,27.083473153285716
4.266314619,-4.3312009513190475,-20.53497936552381,1.912155486952381,27.67252750252381
4.271236852,-4.162603099123809,-21.67814381852381,2.253417713952381,28.29358638761905
4.276159021,-3.890189482028571,-22.78125174761905,2.510806867695238,28.872510897809526
4.281081403,-3.5815116156809523,-23.81923988795238,2.519151154647619,29.330958725000002
4.286003559,-3.286381703457143,-24.712436470714287,2.541958054552381,29.814828235238092
4.290925788,-2.998392143833333,-25.30970010204762,3.0650632243619045,29.95564618047619
4.295848173,-2.7127090568809527,-25.616037367571433,3.8733221545809524,29.700597353333333
4.300770329,-2.4927851065000004,-25.795283815714292,3.891168585647619,29.79056663571428
4.305692532,-2.3365912143095238,-25.863891509523814,3.1536380023619044,29.37352272952381
4.310614688,-2.1990088667857144,-25.58938335095238,1.8946558092666663,28.301500349999998
4.315536761,-2.187571110119048,-24.667900765190478,0.5705854804095237,26.778207942571427
4.32045899,-2.455118070404762,-22.87316285861905,-0.06406731578095251,24.879838514095233
4.325381365,-2.961708890880953,-20.265344278,0.6104953881238094,22.214844832761905
4.33030352,-3.4535503405238095,-17.256380306904767,2.1004005182190477,18.915578462333333
4.335225749,-3.5111918183333337,-14.507719231809526,3.327051329409523,15.975819660619049
4.340147881,-3.0872623611619048,-12.686784902114287,3.6643697611714288,14.123218195285714
4.345070264,-2.578285920214286,-11.535604651828574,3.2854361667904755,12.870928201428569
4.34999242,-2.0604014608333334,-10.69822512249524,2.7016544476,11.878085152904763
4.354914663,-1.5363751195428572,-9.925551197638097,2.345430370490476,11.155105138714285
4.359837048,-1.087665423004762,-9.04736263292381,2.3153831808714282,10.583717992380953
4.364759281,-0.7842338141428574,-8.00469313249524,2.271043989538095,10.018106019571428
4.369681416,-0.6723843425666668,-6.828641334400002,2.130350892633333,9.446548143857143
4.374603569,-0.7041537239619048,-5.583507457638097,1.9013702322047616,8.88318318557143
4.379525699,-0.7874127700428573,-4.319857381066669,1.6678707903952377,8.381157502142859
4.384448082,-0.8795821002952382,-3.0522367041619067,1.5303694541095234,7.983723912571428
4.389370223,-0.9660673386142858,-1.7875030717809544,1.4831375982523807,7.675602771619047
4.394292377,-1.0252167174285713,-0.5469315955904783,1.494826264938095,7.439482902571429
4.399214605,-1.0347092907142859,0.6606879805999979,1.512915122980952,7.256993719238094
4.404137014,-0.986699389904762,1.8178013734571405,1.470609930185714,7.110234497333333
4.40905917,-0.8891956256238096,2.9136523182190452,1.3800346942523807,7.021234329714286
4.413981324,-0.7639440103,3.9313038305999974,1.257467217295238,7.012309415428571
4.418903553,-0.640175148532,4.872465667695236,1.1207365974761903,7.094237766666668
4.423825937,-0.5301646225081905,5.739415248742855,0.9684394100476188,7.250576444190476
4.428748093,-0.44895628701771434,6.531353235742855,0.8215609348333333,7.476479527428572
4.433670303,-0.38866143038914286,7.258561259885712,0.6863376511666665,7.786864079761905
4.438592459,-0.3437501437320001,7.932472774790475,0.5579169377809521,8.192545518619047
4.443514822,-0.29915457294152387,8.552000194142854,0.44145950953333307,8.681750875857144
4.448436978,-0.25272828664152386,9.112168204809521,0.33020931905714257,9.20803555209524
4.453359136,-0.21201990440342863,9.608002526904759,0.2257815556761902,9.69835783347619
4.45828129,-0.1624250465510477,10.039874849190474,0.11198626954761881,10.131763917190476
4.463203749,-0.09936528370819055,10.415919054476188,-0.025786966071428837,10.51270059447619
4.468125905,-0.015337330617714357,10.73279430785714,-0.17790515507142882,10.838058428238096
4.473048134,0.1067640511394285,10.986193316428569,-0.31304262788095266,11.10314348109524
4.47797029,0.2679069084346666,11.171860331571427,-0.4285930550714288,11.301358681761904
4.482892444,0.43509657180133327,11.29881572738095,-0.5014799577428575,11.437728381857143
4.487814826,0.6134590889441904,11.365214529523806,-0.5185280526761908,11.515384651428572
4.492737059,0.8062738478013333,11.385707400952379,-0.47931709739047645,11.549936713809524
4.497659204,0.9985298443251428,11.383272624761902,-0.3792544829809527,11.568980818095238
4.502581587,1.143611131658476,11.366751715714283,-0.21886438410000025,11.585061538095239
4.507503526,1.2182379407394284,11.339944384761903,-0.014263810114285992,11.605501630000001
4.512425908,1.2325139897060953,11.299691199476188,0.22793504953333302,11.62663804809524
4.517348055,1.2144411816346665,11.253934859476189,0.4960890057761902,11.649172686190477
4.522270284,1.171959848638095,11.198612166761903,0.7776387603571425,11.664161307619048
4.52719244,1.104634802995238,11.141422361523807,1.0674843717380949,11.67586796904762
4.532114608,1.0286729477904761,11.086085409333332,1.3541566970952377,11.687479925714287
4.53703699,0.9501670925666668,11.022518656333332,1.6365266598571426,11.68661001047619
4.54195916,0.8769747132761904,10.93448815895238,1.9186800988142854,11.656321301428571
4.546881389,0.8016094778857142,10.825026420047616,2.192818617538095,11.599558672857142
4.551803774,0.7133518131619047,10.701754841380952,2.4674694182999994,11.524906627142858
4.556725991,0.6111804772571429,10.568205378285715,2.7360008032047616,11.434831991904762
4.561648145,0.49901490701904755,10.421103749095236,3.0037875103952376,11.324049810476192
4.566570528,0.3786424299714285,10.265164147333332,3.2640696067761903,11.19175649104762
4.571492458,0.24250995126190472,10.111537887047618,3.5092939861571426,11.050529770857143
4.576414841,0.08934614070952375,9.962647528238094,3.7223055518238093,10.90756388052381
4.58133701,-0.08346105038095245,9.827833220523807,3.896973597061904,10.773207972238096
4.586259239,-0.25318985742380956,9.690195219190475,4.020648692257142,10.637954590666666
4.591181395,-0.4080178041285715,9.54697168385714,4.095493169,10.495787177761905
4.596103812,-0.5373540384857143,9.393467993571427,4.125537599809523,10.340601074238096
4.601025968,-0.6412128932933334,9.22560217247619,4.102073079,10.162878913666667
4.605948196,-0.6920428942266668,9.041983899380952,4.019146408285714,9.95815766709524
4.610870342,-0.6828913702076191,8.856370448999998,3.877634406047619,9.735517496904762
4.615792802,-0.6211781330742857,8.668436277428569,3.674594595280952,9.493456535190475
4.620714958,-0.5257108494695238,8.469221932523809,3.425975305661905,9.233746555952381
4.625637093,-0.4092428030980953,8.263284229047619,3.178033121980952,8.96766781804762
4.630559475,-0.29243766409809535,8.054561365142856,2.9492942264809523,8.699099193142857
4.635481631,-0.2090669501266667,7.8494911192857115,2.7483120929571427,8.432877008
4.64040379,-0.18636580875523814,7.662017663190475,2.604664365433333,8.201490977
4.645326019,-0.21321076437428577,7.502629370809522,2.532258357290476,8.033192874476189
4.650248184,-0.3318177234695239,7.35847940890476,2.4904429288142858,7.921240305428571
4.655170337,-0.5348255407552381,7.215213979904761,2.4373197952904757,7.848424379666667
4.66009272,-0.7840575775171429,7.068207695285713,2.4016357887190476,7.809640211047619
4.665014872,-1.0427264429933334,6.892713478571427,2.434936983242857,7.789720608047619
4.669937101,-1.3137135279457144,6.667555445666665,2.44920197557619,7.73924547995238
4.674859251,-1.5512723469504763,6.345640886333332,2.2803816880619046,7.578005819
4.679781634,-1.7718534328742859,5.8674580425714264,1.7633601001571424,7.599101208095238
4.684703867,-2.0036468052600003,5.256993719476188,1.3147340133476189,7.634858750285714
4.689626001,-2.218061748074286,4.565715988428569,1.5529651159666666,7.751395324714286
4.694548383,-2.4279829377980953,3.7248563028095214,2.0660146391571423,8.187688045714285
4.699470539,-2.596336936012381,2.492163538809522,2.7577530400619046,9.039450728761905
4.704392693,-2.6322397448333335,0.6306020589523789,3.439907059966666,10.421277171714285
4.709314833,-2.458824072614286,-1.9587267979523832,3.807689391633333,12.42739092447619
4.714237062,-2.1335823053809526,-5.160476781380955,3.6109971008714283,15.047284229428572
4.719159218,-1.809971505714286,-8.69241926261905,3.0866579073999993,18.05631196590476
4.7240816,-1.7372505069047617,-12.09911213104762,2.6074796660666664,20.94225562895238
4.729003833,-2.1679338472380953,-14.791563335809526,2.3442163355095236,23.12789464447619
4.733925987,-2.831716579904762,-16.614470533809527,2.3183529066,24.527145734619044
4.738848141,-3.400154820161905,-17.85625914814286,2.316118810980952,25.376468604999996
4.743770523,-3.8320025031999996,-18.900495490476192,2.321827618980952,25.976009862190473
4.748692746,-4.164650190152381,-19.960925176904762,2.3673980946952375,26.505684762809523
4.7536149,-4.258652720819048,-21.08846558371429,2.4682759586952376,26.996460265190475
4.758537283,-4.117827528676191,-22.253359619380955,2.595385281933333,27.458462647619047
4.763459449,-3.824595204790476,-23.424382511190476,2.7378030875047616,27.908260901
4.768381603,-3.4510095321714287,-24.52717927004762,2.798098941790476,28.32109587733333
4.773303846,-3.0348109719809524,-25.53873619061905,2.8244424804095236,28.734494132
4.778226231,-2.6586179140761907,-26.411700391000004,3.0167415711142853,29.234788358857138
4.783148387,-2.332471016266667,-27.069731621761907,3.5201244468761903,29.50211274866667
4.78807063,-2.045627881042857,-27.5281166352381,3.9844135330666663,29.706233844761908
4.792992709,-1.8359773673904762,-27.823257673809525,3.7762173812571427,29.791559736666663
4.797914938,-1.7064269898666669,-27.877151807619054,3.3305279526857134,29.538056324761904
4.802837079,-1.6900103266761906,-27.450078601285718,2.729733160733333,28.853734025238094
4.807759538,-1.8674307611904761,-26.308879126190476,2.1403770559714284,27.616688990952383
4.812681694,-2.28943653947619,-24.347938265428574,1.8593760103523804,25.72072162266667
4.817604058,-2.8778747779047618,-21.690191564285715,2.146234398685714,23.17074574704762
4.822526214,-3.455662813,-18.61755257561905,2.7873371668761897,20.182953400666666
4.827448368,-3.7619258056666665,-15.58573312966667,3.404663267542857,17.261448269190478
4.832370526,-3.53971051647619,-13.192283113395241,3.7987370263523808,15.000164525047618
4.837292754,-3.035710732761905,-11.59476977549524,3.917291079190476,13.489317504857143
4.84221491,-2.5490573993333334,-10.509100155828573,3.9634086971428566,12.52510765942857
4.847137313,-2.1088716679523807,-9.574058137638097,3.940738223761904,11.818296874380954
4.852059469,-1.6878105984476188,-8.594481504733336,3.8109146015238093,11.170986737761904
4.856981623,-1.3929904458857143,-7.515534573638098,3.604065168380952,10.557155818999998
4.861903836,-1.2425552507952382,-6.357469686209527,3.389987179142857,9.977498305904762
4.866826221,-1.2145774883190479,-5.142868328638098,3.158177949047619,9.424963773428571
4.871748454,-1.279572725324762,-3.9213484043523836,2.953742339428571,8.940736435142858
4.876670608,-1.4090627233485715,-2.7025222012095265,2.8449866146666665,8.538673799047618
4.88159299,-1.5621152917771428,-1.4935688888761929,2.799210043095238,8.207412189238095
4.886515146,-1.7065954350152381,-0.3174751517333358,2.82984756847619,7.966493064476191
4.891437315,-1.8187382420009524,0.812923235314283,2.862220622190476,7.807267734
4.896359544,-1.8726780017485714,1.8960587948380925,2.890119240333333,7.722500083047619
4.9012817,-1.8460634776533331,2.925510755314283,2.877410383380952,7.6897942616190464
4.906203872,-1.7320461415057145,3.9035602151714257,2.8174866777619045,7.698000062095239
4.911126255,-1.5335637075342858,4.8236144238857115,2.7210816257619044,7.744639445428572
4.916048411,-1.282121268024762,5.671583615504759,2.604659528904761,7.841651003714286
4.92097064,-1.009668272129524,6.457686023885711,2.4795212404761906,8.00450475552381
4.925892796,-0.7523711308914287,7.182794420457141,2.3313219022047615,8.24376112047619
4.930815298,-0.5266656151295239,7.851326235457141,2.1448676628761905,8.56896346147619
4.935737454,-0.3294479917485715,8.472536101090475,1.889474907066666,8.969417178952382
4.940659837,-0.16220204170095243,9.037174463190475,1.5967403295428566,9.437417667714286
4.945581987,-0.02575666132000008,9.528307324476188,1.2977642942095233,9.918214848857144
4.950504141,0.09881996120380944,9.935324941523808,1.0005581989238093,10.347995306761906
4.955426305,0.2090020116514285,10.265809581476187,0.728008779733333,10.708200035761905
4.960348459,0.3073724359942856,10.53012831990476,0.5046043098285711,10.993494787380953
4.965270678,0.39819619137999984,10.74220264533333,0.3455865482571425,11.214485957142857
4.970193062,0.49757957111333323,10.906577201095235,0.2498173586047616,11.381874020571429
4.975115218,0.6007121474999999,11.037670362523807,0.20228859497142823,11.51519663647619
4.980037452,0.7104325280476189,11.142634755095235,0.17645359749523776,11.619004514
4.984959608,0.8286166233809522,11.224863370380948,0.15871921749523776,11.695730587619048
4.989881767,0.9517444811904762,11.28918189085714,0.14544826039999967,11.749903126666666
4.994804149,1.0741488124666665,11.334492456190473,0.14317683520952348,11.783969666190476
4.999726382,1.1749720016590477,11.361427397619044,0.15840826287619014,11.805608424285715
5.004648774,1.2303803829257143,11.37433011190476,0.19558563259047584,11.825302335714285
5.00957093,1.2304854290161904,11.366293180476188,0.26881572887619015,11.842859073809523
5.014493084,1.176706190282857,11.33965392333333,0.3957119059238092,11.863056055238095
5.019415232,1.0767500453923808,11.299359593809521,0.5762908075904759,11.88670619
5.024337386,0.9466247101161904,11.240301767619044,0.7987248457809522,11.901675674285714
5.029259615,0.8080898065923809,11.159882363285712,1.0616198011952378,11.901495924761905
5.034181771,0.667204379735238,11.054251625142856,1.381696187333333,11.879098847619046
5.039104154,0.5302108069257142,10.913728986095235,1.7765634712857141,11.814527754761903
5.044026401,0.39086985559238097,10.746617407619045,2.2315076731428567,11.710728174285714
5.048948555,0.251365144735238,10.570307503999997,2.711885755952381,11.584207242857142
5.053871015,0.09825547506857134,10.405588694380949,3.1939723236190476,11.458515774285713
5.058793074,-0.07767019416952389,10.266149157047616,3.6529003183333333,11.356993740952381
5.063715302,-0.264543329264762,10.145132109952378,4.060766557857143,11.282309617142857
5.068637458,-0.4478451357409525,10.028615678571425,4.4050138422857135,11.226795642857143
5.073559842,-0.6213058974552381,9.90987691385714,4.67785112917619,11.17575008047619
5.078482075,-0.7805709047409525,9.775674274571426,4.8964294081904765,11.110824696047619
5.083404151,-0.9211280973600001,9.627977847619045,5.068169128333333,11.030296322238096
5.088326379,-1.047149102217143,9.470085347857141,5.200778223238094,10.934880426333333
5.093248784,-1.1524403893123811,9.302468980714284,5.295155275428572,10.820708354190476
5.09817094,-1.236370104017143,9.130137079952378,5.347269171761904,10.688957696238095
5.103093169,-1.2956843404,8.95361539290476,5.362803640857142,10.539599951809524
5.10801532,-1.3262160533333334,8.768122536571425,5.335325990428571,10.363332782666667
5.112937473,-1.3278234344761906,8.561961764285712,5.1996273710952385,10.124313431523811
5.117859856,-1.2943344342571428,8.330053238476188,4.908143809904762,9.83951815409524
5.122782089,-1.2539195758238095,8.098232382666664,4.594870431095238,9.546740682285714
5.127704243,-1.2318209096809523,7.874183359619045,4.300876441480952,9.254242055285715
5.132626625,-1.2465362009190477,7.6638394310952345,4.054158866438095,8.981599514285714
5.137548752,-1.3069968705857142,7.467929454095236,3.808665670123809,8.737372391761905
5.142470906,-1.4223440119190476,7.2853055227142836,3.4591822369333336,8.532461667285716
5.147393074,-1.5945779056809526,7.102491015428569,2.957576272123809,8.414987131619048
5.152315303,-1.8237682949666667,6.907255921952379,2.4706725592666663,8.32497028204762
5.157237439,-2.0881145369190475,6.673097065428569,2.1009015214571427,8.204776779333333
5.162159822,-2.3743575839190476,6.3404076722857114,1.6574102328380949,8.10294394452381
5.167082055,-2.6859489083,5.894892212785711,1.0326282836476188,8.127114263095237
5.172004214,-3.030699386442857,5.369709227642854,0.7010049053619044,8.06231528
5.176926368,-3.374715183395238,4.827868254309521,0.9826931640285711,8.270655076190476
5.181848521,-3.7087320514428574,4.165809900928569,1.6606261985523807,8.852665075857143
5.186770976,-4.019700677585714,3.168088705499997,2.6332421899809524,9.81795601252381
5.191693132,-4.184294919109523,1.513734882404759,3.6108422422190474,11.164411685095239
5.196615515,-3.983371391109524,-1.1402016628333362,3.712611962028571,13.061657840095238
5.201537665,-3.4215860452523805,-4.692331544452384,2.5430447856000002,16.028418972809522
5.206459894,-2.91206110382381,-8.348609087404766,1.0386174659809522,19.218751692
5.211381964,-2.8701021998476186,-11.857129463452384,-0.017456154447619235,22.137045715904762
5.216304193,-3.340422805133333,-14.526767324976193,-0.2719532000190479,24.246886312761905
5.221226567,-4.0147245544,-16.321344106309525,0.3283104180285711,25.740940927333334
5.2261488,-4.486181505119047,-17.556434748119052,0.9948367071714282,26.735212601047618
5.231070877,-4.827095345833333,-18.472423170785717,1.2970852248333329,27.29437846804762
5.235993125,-5.159501196833333,-19.43620895554762,1.4717582683999997,27.86467807
5.240915281,-5.421041609738095,-20.51967700659524,1.7284078420476188,28.51696968633333
5.24583774,-5.485339524261905,-21.65033263569048,2.0532538486190477,29.121921771285717
5.250759896,-5.328546537309524,-22.75188160278572,2.6271915598571423,29.641258379333333
5.255682279,-5.05369976922381,-23.738799529976195,3.094753281666666,30.025814948904763
5.260604435,-4.70446867085238,-24.609401025261906,3.3669896629523812,30.36146184495238
5.265526674,-4.285530340614285,-25.327758730023817,3.6494124212380945,30.614296149285718
5.270448752,-3.8384560635666665,-25.87351301771429,4.058212506642857,30.680390996428567
5.275370971,-3.381118632995238,-26.269879420714293,4.170613742323809,30.775437610476192
5.280293127,-2.964603692809524,-26.58435138076191,3.692452674228571,30.548020927714283
5.285215496,-2.6111929180523807,-26.711127054238098,2.83224102927619,29.909164237238098
5.290137652,-2.321648193766667,-26.443004153952383,1.685903077228571,28.85810851852381
5.295059865,-2.1953930902428573,-25.459289709523812,0.5509776947523806,27.399360716238096
5.299982021,-2.4464281447666667,-23.40676834428572,0.31494763837142825,25.35838741247619
5.304904404,-3.0603259677666665,-20.38544612804762,1.3761044336571424,22.218276106857143
5.309826565,-3.605674055719047,-17.19505449676191,2.7899516645142852,18.820377105142857
5.314748793,-3.6607688640761906,-14.080761591380957,3.7730694268,15.665465269238094
5.319670949,-3.1919909745999995,-11.719966012076194,4.0363473321333325,13.346518799666663
5.324593346,-2.5218716548761906,-10.138341895647622,3.5714917125142853,11.686203492857143
5.329515579,-2.0279092277952384,-9.046676162171432,3.0415166616095233,10.566854091523808
5.334437733,-1.625436241791429,-8.209281345552384,2.8431615715619043,9.937056792714285
5.339359886,-1.1819173874533335,-7.268607994123814,2.730398336990476,9.341028813333333
5.344282269,-0.7553130654390477,-6.158433792457146,2.514089618371428,8.688044345190477
5.349204425,-0.4735049133342859,-4.956090510409527,2.3126848537999996,8.09459942447619
5.354126579,-0.3657797216390477,-3.728586347647622,1.9895755733095235,7.547985081333333
5.359048808,-0.34747938844380966,-2.5512580561714318,1.7483599468952375,7.161353484857143
5.363971207,-0.3908369608295239,-1.414117827361908,1.5928547523380947,6.894695140857142
5.36889344,-0.4979040548104763,-0.31106700521905056,1.5093526626476186,6.715531699999999
5.373815608,-0.6147020100533334,0.7525967952571401,1.491287996285714,6.620003135714285
5.378737762,-0.7132470561533334,1.7716727790666638,1.4782275684380948,6.608349623809524
5.383659916,-0.7707698171247619,2.7454941009714253,1.4590755203619044,6.667488269428572
5.388582283,-0.7606107702485715,3.67266099425714,1.4512957575047614,6.786726693714286
5.393504439,-0.6981108184914286,4.564219142066664,1.439043137219047,6.95875862052381
5.398426668,-0.6121045354533334,5.424976856209521,1.3974654716380948,7.184496624238095
5.403348823,-0.5109983906104762,6.238447537638093,1.3209802365952377,7.466916228
5.408270977,-0.40277796094495255,6.993300547590474,1.2082338112819042,7.796473887428571
5.413193441,-0.29301500707828576,7.684375282019046,1.068752434239047,8.169253935809524
5.418115597,-0.1864730555640001,8.293877949495235,0.8922542368580948,8.576635121714286
5.423037751,-0.07555419875447629,8.82927564733333,0.6606572333819043,9.01584967795238
5.427959905,0.03474818137885706,9.280998161380948,0.3980097124771424,9.44910952952381
5.432882059,0.12890765677409513,9.650713341238093,0.12627595166761857,9.832889436095238
5.437804437,0.20806870291314278,9.937527519999998,-0.11833842809428619,10.136426111095238
5.44272667,0.26837389528933325,10.149820940523806,-0.33123133509428615,10.351539647904762
5.447649053,0.30542556165599993,10.299996648190474,-0.4790531418561909,10.49913008642857
5.452571222,0.3247543715750475,10.410727069190475,-0.5580021916657147,10.60613555804762
5.457493451,0.3318098954226666,10.497408049142855,-0.567439764051429,10.69213002652381
5.46241553,0.34396403890361893,10.559566997190473,-0.52240829030381,10.758488192047619
5.467337764,0.3552001819806189,10.609521002666664,-0.4446476705085719,10.817198826523809
5.47225992,0.36959427794728555,10.654081707666665,-0.34913862815142904,10.873832141190476
5.477182326,0.37213470738061893,10.68998200528571,-0.24092324786095282,10.926319512619047
5.482104482,0.3557487547663333,10.71237005480952,-0.12079577431333378,10.970672505476191
5.487026711,0.3164019462663332,10.724815050523807,-0.0002710130942861687,11.010705749285714
5.491948886,0.24944356425204756,10.727152688142855,0.11327765742952337,11.045866428333333
5.49687104,0.1625309975425237,10.710070110047617,0.2405896648580948,11.068467660238095
5.501793422,0.06811200140919035,10.668465296238091,0.40204370948666623,11.075281989761905
5.50671565,-0.02921357410033346,10.607146535285711,0.5977058545771424,11.06836434642857
5.511638033,-0.12555419633728584,10.53810746338095,0.8233655251285709,11.055720652619048
5.516560189,-0.2324889552039525,10.467431477666665,1.0763011418857138,11.04123709547619
5.521482403,-0.35042309705157154,10.41271164338095,1.3753928102190471,11.037964157857143
5.526404482,-0.48283676252776203,10.369152250999997,1.7423402794571425,11.032116087857142
5.531326696,-0.6207941878610953,10.341163408619044,2.1532865123619045,11.027474020714285
5.536249081,-0.7570866170515715,10.330385072190474,2.574946981028571,11.032386509761904
5.541171228,-0.8892610464801429,10.331356094285711,2.966307593171428,11.054851314523809
5.546093381,-1.0143538594325239,10.338482266666665,3.310244036504761,11.096332693761903
5.55101561,-1.122389429527762,10.341718219857139,3.6023858430285705,11.146317354809524
5.555937756,-1.2141303811801432,10.330683390571425,3.8457232202190474,11.189040779619047
5.560860139,-1.2888815227039525,10.297151384190474,4.042144417714285,11.209813955714285
5.565782295,-1.3449715242515716,10.242155938047617,4.1967516171904755,11.204859688571428
5.570704749,-1.3821219517714287,10.162233761666663,4.308888707761905,11.166522589476191
5.575626905,-1.4014900468285714,10.059949602619046,4.382278430952381,11.094545173571428
5.580549136,-1.3980914297190477,9.934750920333332,4.406829005095237,10.983403519380952
5.58547128,-1.3662260004238096,9.782534576714284,4.377254860666666,10.826957174761905
5.590393434,-1.3097899073190478,9.605851922999998,4.306042813047618,10.63239281095238
5.595315603,-1.234288620052381,9.409929911428568,4.2083477121428565,10.409357688190475
5.600237757,-1.1448904346380953,9.202711060285711,4.096857564666666,10.168906572238095
5.60516014,-1.0556299146809525,8.990952015095235,3.9815562338095227,9.921014562380954
5.610082373,-0.9806936723333335,8.780976704571426,3.876252140238095,9.67842988552381
5.615004526,-0.9441415723809525,8.584510916952379,3.7920548007142854,9.461628077333334
5.619926889,-0.9653535314761906,8.412800697999998,3.7205607095714277,9.285024472285714
5.624849045,-1.0363272910952381,8.247918015571425,3.6387455235714277,9.125464912190475
5.629771274,-1.1410086750952382,8.068914845047615,3.5162708190952374,8.952608044952381
5.634693678,-1.2838555319047622,7.865354129238093,3.303701060095238,8.761194691047619
5.639615834,-1.4560169010000001,7.61761329285714,2.9888649269999994,8.565519775904761
5.644538063,-1.624477996714286,7.3145715168095204,2.6712226469999996,8.33722958404762
5.649460204,-1.7763543838571432,6.919205058142854,2.2702638705238094,8.10348187152381
5.654382281,-1.9790514225238098,6.367849718952378,1.6215443780952377,8.105034171523808
5.659304491,-2.269753708752381,5.614772280047616,1.142033525809523,8.136520614857144
5.664226646,-2.6091298035333335,4.68295082038095,1.156567136380952,8.322715175333334
5.669149024,-2.945651315509524,3.445992044142854,1.6341469569523805,8.97791199247619
5.674071486,-3.2012748775285718,1.6313632614761875,2.4925762070952375,10.294190782523808
5.678993641,-3.242290689838095,-0.9689272185238123,3.1260661339523805,12.182072777
5.683915872,-2.952276317852381,-4.284377114809526,2.9491340857380948,14.681562693571427
5.688838026,-2.529257195338095,-7.865968834523812,2.143887755166666,17.588224088190476
5.69376018,-2.3128947615857145,-11.150045252714289,1.416011631071428,20.226982581999998
5.698682544,-2.4752042819000004,-13.813576942095242,1.1279644990714282,22.233070494285712
5.703604699,-2.8630591361714286,-15.80340055571429,1.2533205488333328,23.644295743571426
5.708526853,-3.2357854162238096,-17.34003933766667,1.509075558928571,24.667822696761906
5.713449067,-3.5727752731428573,-18.573841883333337,1.5974214158333329,25.375002989333332
5.718371223,-3.933525028761904,-19.690592260000003,1.4943909414095233,25.948623638476192
5.723293392,-4.273753359285714,-20.857228704380955,1.3199828447714281,26.53038270495238
5.728215774,-4.490330650761905,-22.079340338142863,1.2594436502952375,27.11624163647619
5.733138007,-4.550376131476191,-23.274859422380956,1.342723407580952,27.68579966609524
5.738060194,-4.446123849809524,-24.412886000380954,1.589423353866666,28.247866925238093
5.742982348,-4.242990669790476,-25.451181519000006,1.9422913148190473,28.769159637047615
5.747904731,-4.021454047977143,-26.344757278047627,2.2054244092476187,29.22918377509524
5.752826905,-3.8103764210166666,-27.05716364657143,2.5028501788666664,29.61309368857143
5.757749134,-3.5603241456166663,-27.521076724190483,3.00890215067619,29.68235738238095
5.762671519,-3.2483742879642854,-27.693472044285716,3.34603767567619,29.651547072380954
5.767593752,-2.9327246706785717,-27.61340345619048,3.2070857723428565,29.41615724095238
5.772515905,-2.6891139139642855,-27.174135412095243,2.6347046621047614,28.696876416142853
5.777438059,-2.576766118107143,-26.104916095380958,1.7175421303428564,27.317970990285712
5.782360208,-2.699590060392857,-24.19313476176191,1.0608780992476188,25.3587591067619
5.787282362,-3.160637187535715,-21.490116414380953,1.2622645708428568,22.78009038047619
5.79220475,-3.7440147418214287,-18.430600654285715,2.15117295717619,19.793648910095236
5.797126906,-4.112396559916667,-15.576988799000006,2.9932722606523807,17.07259116728571
5.802049104,-4.089599849583333,-13.256930146690479,3.395183928033333,14.97639664504762
5.80697126,-3.8224483802976192,-11.52838261921429,3.3612149685095236,13.465315449571428
5.811893414,-3.535669669154762,-10.182311160404764,3.1617695278428566,12.337658424999999
5.816815797,-3.255640956964286,-9.079670611023813,3.072881473033333,11.529473964190476
5.821738029,-2.8997854863452384,-8.05037380407143,3.120275518790476,10.857065190666665
5.826660412,-2.485865628759524,-6.9393039430238135,3.2033788988095235,10.177666832619048
5.831582578,-2.1333221498309523,-5.732660611500003,3.1700512341428566,9.518942133238095
5.836504807,-1.899557760215714,-4.5030097051666695,3.025032520333333,8.923094503190477
5.841426963,-1.8002064243690474,-3.268482367119051,2.801318194204762,8.389971257333334
5.846349106,-1.7838585662023807,-2.0518825849761932,2.576209755180952,7.940506715047619
5.851271489,-1.8044837086728573,-0.8903496380714314,2.46407856827619,7.623044834523809
5.85619366,-1.847848755057143,0.21398887169047354,2.4337692317523802,7.424882779428572
5.861115814,-1.9025665164571428,1.257996264023807,2.477349616228571,7.346714599428571
5.866038043,-1.945747944347619,2.237209842119045,2.552097377323809,7.372160448952381
5.870960203,-1.9372908967761906,3.1561857630714263,2.6364753814190474,7.468016762285714
5.875882586,-1.848029092457143,4.039121627547617,2.7064143816571424,7.599936548523808
5.880804742,-1.6793465654666666,4.890652338452379,2.7427129518476185,7.750134605333334
5.885726975,-1.4562249068,5.6993652295952355,2.7385739144666665,7.922880302190476
5.890649359,-1.2068301976380953,6.45214525840476,2.682516109371428,8.126653353714286
5.895571592,-0.9691256254476192,7.145189069261901,2.5643742936095233,8.366133230761905
5.900493722,-0.7410229527809524,7.777703750166663,2.408512115466666,8.642199933571428
5.905415876,-0.5340483782571429,8.36162589785714,2.222435723466666,8.964425247238095
5.91033803,-0.35324794600952375,8.89667594942857,2.0184550590619046,9.330133338428572
5.915260412,-0.20883423354761904,9.384576331571425,1.8059853961095238,9.722047679666666
5.920182568,-0.08477704278095237,9.824243045523806,1.6051045450142856,10.11680286047619
5.925104802,0.019967669733333356,10.203444457619046,1.4224759247761902,10.48056176447619
5.930026958,0.10011514615714288,10.516364846571426,1.2688122100619044,10.79180741347619
5.934949112,0.1596693852714286,10.771472135999996,1.1452446856333331,11.047851494761906
5.93987148,0.2058545755752381,10.979658240142854,1.0541726854142854,11.255895406238094
5.944793713,0.252355147,11.143650054476186,1.000679065738095,11.418909705904762
5.949715867,0.29919576505238094,11.268491381380949,0.9825934951761901,11.542786090571429
5.95463823,0.34603371650952386,11.363941419238092,0.984766777033333,11.637504790142856
5.959560462,0.3942376198047619,11.432717277571427,0.9862202504619043,11.703831390476191
5.964482616,0.4477721906885714,11.47477849285714,0.9762137205095234,11.739054452857143
5.969404985,0.4959053326266667,11.49526328095238,0.9510978558904758,11.74778163714286
5.97432691,0.5142141907171429,11.499392054761902,0.9107078071761902,11.737566164285715
5.979249383,0.4871829507314286,11.480393136666665,0.8674375144619045,11.708423513333335
5.984171462,0.405339333312381,11.438288869523806,0.8454440363190473,11.66991437904762
5.989093922,0.27577742797904764,11.378175280571426,0.8581034157476187,11.62811092095238
5.994016088,0.12163190619809522,11.302348998904758,0.9142537953666663,11.583136598095239
5.998938317,-0.0357254686114286,11.210892903666664,1.0240280726999995,11.535256104285715
6.003860472,-0.18989538004000003,11.10066545528571,1.1795230180809522,11.476985145714284
6.008782626,-0.33457128770666666,10.96379125642857,1.3903293885571426,11.399989515714285
6.01370478,-0.47193419362095246,10.80325607980952,1.657184858342857,11.305696664761903
6.018627198,-0.6014556685590476,10.623594692142856,1.9640498068666663,11.194524943333333
6.023549431,-0.7249047159447619,10.431944392380949,2.299856432104762,11.071430451904762
6.028471584,-0.8437081432685716,10.236914543428568,2.653676631152381,10.948214125238096
6.033393733,-0.9592249988495237,10.045945303095234,3.0069948739619043,10.835674509428571
6.038316116,-1.071290282892381,9.858355067190473,3.3418498287238094,10.731168782190476
6.043238344,-1.1768525667638094,9.671734150619045,3.6495659797999997,10.632316313619047
6.048160498,-1.2731893742733333,9.483302138571426,3.9227187434619046,10.53447739347619
6.053082641,-1.3549991362733333,9.285782245714282,4.155054694095238,10.427053546666667
6.058004795,-1.4158560888257143,9.072019917095236,4.343602833238095,10.299511120000002
6.062927178,-1.4497982780685714,8.841191813380949,4.491681462190476,10.147686878428571
6.067849344,-1.4568061352333335,8.598515373714283,4.603093646809524,9.97381512709524
6.072771498,-1.4314198500190476,8.348983696095235,4.683180616,9.782414374047619
6.07769374,-1.3701286591809523,8.098912420428569,4.738078798571428,9.58024825647619
6.082616125,-1.2689241816,7.8532785232380915,4.779241698142856,9.375722416904761
6.087538358,-1.1464237534666668,7.613189969761901,4.817817460904761,9.175181621761904
6.092460483,-1.032901895142857,7.380074728142854,4.862021412142856,8.985624985380952
6.097382865,-0.9562343734571428,7.1505035446190455,4.894723506190476,8.796787503809522
6.10230479,-0.9291989951714287,6.915191400666664,4.868877138380952,8.579674450761905
6.107227183,-0.9503836553142858,6.663599354952378,4.723194905666666,8.31540003342857
6.112149339,-1.0095736050285715,6.382876782285711,4.431950818904761,8.04738687004762
6.117071573,-1.1048211802190475,6.072049140999997,4.083050682380953,7.797569452285715
6.121993728,-1.2493942670285716,5.707127332761902,3.740290255714285,7.562387466095239
6.126915882,-1.4569308282190476,5.193772247904759,3.241616998333333,7.470815349857143
6.131838265,-1.7621571712666668,4.4166363989047595,2.5145852451904758,7.702011631285715
6.136760498,-2.1004833926952378,3.3511905444761885,1.922293095333333,8.082067135666668
6.141682652,-2.3879873390761905,2.059737591809521,2.0070117995714285,8.657507404333334
6.146605034,-2.5536515351238096,0.4830589750476161,2.846078509571428,9.861448672904762
6.151527267,-2.5291722509619046,-1.5459516614761932,3.9052865620476185,11.560337927809522
6.156449421,-2.2680976682000002,-4.070569492428573,4.599926221904762,13.537653465095238
6.161371798,-1.770632889304762,-6.9911128452380975,4.353249132254762,15.785291461285716
6.166293724,-1.2752615220761905,-10.07236616961905,3.1426959857309518,18.397873773809525
6.171216115,-1.2701289984,-12.7602072442381,1.815127091254762,20.69255368657143
6.176138271,-1.7863924821238097,-14.722258658523813,1.1115006404452379,22.19556404152381
6.1810605,-2.468949206480952,-16.128284386190476,1.0758264544452376,23.213765136714283
6.185982656,-3.0774162657285715,-17.195299761380955,1.467290074730952,24.061670755809523
6.190905038,-3.630709791671429,-18.09892779266667,1.9072034840642855,24.80850585857143
6.195827204,-4.016058132947619,-19.05490832066667,2.12055496082619,25.406290907809524
6.200749433,-4.218674026966666,-20.09748027404762,2.1035748577309517,25.95339284319048
6.205671589,-4.258511745014286,-21.180470920571434,2.059298427254762,26.544736855761904
6.210593976,-4.197689269490476,-22.244992210761907,2.1280251371595234,27.190830420714285
6.215516209,-4.096910701109524,-23.242980184952383,2.3809351835404757,27.826675079333334
6.220438363,-4.007593697252381,-24.151131970380952,2.7072786972071428,28.406290453761905
6.22536073,-3.940074895347619,-24.935889936380953,2.998807035683333,28.920398031857147
6.230282886,-3.86029833577619,-25.486367588904766,3.378210002445238,29.218719020952385
6.23520503,-3.714972902109524,-25.689372562380953,3.9384710362547617,29.13646509142857
6.240127184,-3.5617457318238093,-25.53201384809524,4.353139658730951,28.866000282380952
6.245049393,-3.4798502214428573,-25.077105976809527,4.109744432397618,28.36931968809524
6.249971778,-3.5228089351095235,-24.27339794566667,3.136220145540476,27.220941476666667
6.254893934,-3.739868646747619,-22.942646730904766,1.9614633801595236,25.53480859738095
6.259816083,-4.161332703938095,-21.02758993457143,1.1685637263499995,23.517061682809523
6.264738312,-4.7662281026999995,-18.623777571476193,1.3295384875714282,21.169114683190475
6.269660468,-5.318682710509524,-15.977552277857146,2.462309480047619,18.409865548619045
6.274582928,-5.3558217115,-13.648366150714288,3.717591291857142,15.938795493619047
6.279505083,-4.878274942780952,-11.975769920323811,4.358355164761904,14.253301248142856
6.284427466,-4.252236598557142,-10.792435138228575,4.332778789,13.057712794428571
6.289349602,-3.7168558237619047,-9.882198376800002,3.875958176142857,12.056204039904761
6.294271756,-3.236821154752381,-9.072998816704764,3.3567645266190467,11.189946871380952
6.299193901,-2.9150936234666665,-8.154871348038098,3.053951995714285,10.513615543142858
6.304116055,-2.7526840170380953,-7.101063907752383,2.9880219130476187,9.933874861428572
6.309038287,-2.718930014561905,-5.953148339942859,2.990798240619047,9.376852582857143
6.313960672,-2.754650067752381,-4.75630837141905,2.9831181537619047,8.85511019
6.318882905,-2.800963875847619,-3.548997149990479,2.908973915238095,8.382513281428572
6.323805069,-2.8038819262285712,-2.3612271694190503,2.7932240225238094,7.976145749619048
6.328727451,-2.7372414015619047,-1.21389475094286,2.6951079709523804,7.643079138761904
6.333649607,-2.6230509252761904,-0.12499482041905037,2.6651246320952375,7.406948084380953
6.33857185,-2.4773622552761907,0.904718765009521,2.684794391952381,7.248640945380952
6.343494006,-2.2876512976095236,1.8709240895809496,2.7181139617142853,7.130966598333332
6.34841616,-2.059090293628571,2.7820397813428546,2.7304867165714284,7.055254981904762
6.353338547,-1.8136535287523807,3.656230066438093,2.70861761347619,7.023134277142857
6.358260703,-1.5723477698190476,4.481771630819044,2.6575293711904755,7.055314641190476
6.363182932,-1.3657871518933333,5.253325964485712,2.5805105539047615,7.172954350047619
6.368105316,-1.2280767693409524,5.970586733771426,2.483619934047619,7.388019839666666
6.373027247,-1.15933372066,6.636382287295235,2.3746136540476184,7.681164500428572
6.377949398,-1.1317973383838094,7.24994382110476,2.262350982123809,8.03284630590476
6.382871778,-1.111288194712381,7.809147534047616,2.1407582163714283,8.410627211857141
6.387793934,-1.0835159579171427,8.315457020523807,2.021366450028571,8.802655500809525
6.392716163,-1.0443742446320474,8.774136724809521,1.8991945467471427,9.18986697152381
6.397638542,-0.9940003888320474,9.185799053761903,1.7741881695904758,9.551073651
6.402560775,-0.9230775315987143,9.549240157952378,1.6367718877428568,9.868265966857143
6.407483158,-0.8285315782653809,9.862831751952378,1.4956117902142854,10.137172611428571
6.412405305,-0.7114945288796667,10.121920858428568,1.3724215568238092,10.35664323142857
6.417327458,-0.5771649544320476,10.321667944190475,1.272413409728571,10.521889376666666
6.422249617,-0.43668328656538097,10.464704967999998,1.2125175082523807,10.640135083333334
6.427171771,-0.3151624253034762,10.554348174095237,1.1984688410619044,10.71379837752381
6.432093925,-0.2095808571987143,10.603663581238091,1.2266793163952376,10.757456348380952
6.437016168,-0.12210537854633334,10.621963410619045,1.2897560849666665,10.782041455142856
6.441938552,-0.066203902213,10.624843325428568,1.3774026488238094,10.804858528428571
6.446860708,-0.0626070003082381,10.633661270619044,1.4796302231095235,10.848346782619048
6.451782905,-0.10360519238442857,10.634408860476189,1.600469705395238,10.898365795238096
6.456705134,-0.18282590173680954,10.61516334947619,1.75420575177619,10.948173042380953
6.461627309,-0.29045556314633336,10.58241626242857,1.9284147902047615,10.994463035238095
6.466549768,-0.41345652040538095,10.531099865047617,2.1216914112523804,11.030432843809525
6.471471924,-0.5366643776244286,10.45939309333333,2.334112544680952,11.052338940952382
6.476394283,-0.6557109535910952,10.374006090238092,2.564721246395238,11.064826536190477
6.481316439,-0.7709788107958572,10.276895795999998,2.8105309518904757,11.068925345714286
6.486238592,-0.884985000853,10.173345974714284,3.076443569833333,11.070563667142858
6.491160746,-1.0018165195863333,10.063611348761903,3.3601453259857146,11.070391935714285
6.496083009,-1.1191461895714288,9.934710911809521,3.6595796149814284,11.053749867142857
6.501005165,-1.230066716,9.778915451047615,3.961872367280952,11.009025703333332
6.505927548,-1.340212670852381,9.60439359590476,4.254950232080952,10.938704854761905
6.510849698,-1.454625050947619,9.423079763095235,4.529551766466666,10.853167974142858
6.515771852,-1.5789700044285715,9.247681685952378,4.771600008,10.763504244666668
6.520694071,-1.7147573835904761,9.08609383438095,4.9750350543333335,10.67675642557143
6.525616456,-1.857517810838095,8.938503288190473,5.133019061333333,10.592820412809523
6.530538689,-1.9830748602428572,8.80390255785714,5.237125533,10.510615147142857
6.535460847,-2.0888653852047616,8.670994327142855,5.287768102857142,10.416562820809524
6.54038323,-2.1558431444285713,8.519609973523808,5.29089872047619,10.287598608095237
6.545305381,-2.1657639543809526,8.340967337238093,5.2513754935714285,10.111921030761906
6.550227535,-2.127121193133333,8.143049489809522,5.1737572125238085,9.897630953904763
6.555149764,-2.046326857287619,7.936115060476187,5.0698112079047615,9.659279274904762
6.560071914,-1.9323864806733335,7.725314049428569,4.941424687714285,9.40225042909524
6.564994068,-1.8039671055352382,7.502087002666664,4.81000565347619,9.131566066523808
6.569916451,-1.670848100701905,7.264713014809522,4.695142269142857,8.856241218619047
6.574838607,-1.556560576697143,7.011923778571426,4.6038456189999994,8.58487163547619
6.579760835,-1.4818849542685715,6.739508606095235,4.516937778095238,8.310452546571428
6.584682991,-1.4392315752685714,6.429622650095235,4.377462500571428,7.98619896695238
6.589605379,-1.4216381006495238,6.070423903904759,4.097332643580952,7.5805042583809525
6.594527612,-1.4351741110780953,5.660692187990473,3.731617219390476,7.196568640142857
6.599449994,-1.481542959792381,5.189269016180949,3.562308738628571,6.885778066857144
6.604372155,-1.5941690582685715,4.648619204752378,3.5289287978666666,6.745090775285715
6.609294384,-1.7872957254114286,3.9588799547523785,3.3386732240571426,6.682428128047618
6.614216443,-2.0529385273638097,2.969079501371426,2.7410932225809526,6.993968086761906
6.619138672,-2.327744487554286,1.7473094647047593,1.9977509591523803,7.592719098619047
6.624061047,-2.570124448125714,0.4377736205619021,2.059085864342857,8.19885958104762
6.628983203,-2.720440981697143,-1.0654261837238121,3.0308355558666666,9.433993426666667
6.633905432,-2.692930457887619,-2.9416194572000025,4.133026765628571,11.022067133285713
6.638827602,-2.4753517856495235,-5.284528770676193,4.8977313451999995,12.853420138666666
6.643749756,-2.1420548735542857,-8.04406515077143,4.729425817953333,14.964982745666667
6.648672138,-1.8284712128400002,-11.075245532342858,3.5699106983819044,17.58854213442857
6.653594049,-1.8696120218019048,-13.931895158009524,2.0660584218580946,20.224909993666667
6.658516509,-2.4076158142190476,-16.1268312744381,1.1598593525247616,22.10914458647619
6.663438894,-3.014465349738095,-17.663182228628575,0.9822153551819045,23.27345142514286
6.668361039,-3.49674535292381,-18.791430125390477,1.4203835515152377,24.186433153904762
6.67328327,-3.8749474968047624,-19.703303397771432,2.0349238901819042,25.03867337895238
6.678205429,-4.132352936809523,-20.566406026961907,2.417494792658095,25.698688725904763
6.683127812,-4.275435935857143,-21.446656537580957,2.6000052594199996,26.270488374809524
6.688049958,-4.340272176809523,-22.309613015914287,2.7021846958961904,26.854070019190473
6.692972111,-4.344008218666667,-23.141915160342858,2.922366040410476,27.530522883476195
6.697894265,-4.310501212190476,-23.938099258952384,3.223284857934285,28.200558390285714
6.702816499,-4.293569212904761,-24.663376137809525,3.2938150454580954,28.800432379761908
6.707738655,-4.297225645619047,-25.27759817609524,3.196309566839047,29.23189267895238
6.712661038,-4.290603263047619,-25.686552501428576,3.244550989124762,29.581026007142853
6.717583227,-4.241463740666667,-25.726810954285714,3.7059612617914284,29.5341254847619
6.722505456,-4.201638255809524,-25.46906702809524,4.357024238648571,29.180017406190473
6.727427612,-4.209695305142857,-25.05526115714286,4.2762583327914285,28.803495286666664
6.732349994,-4.307001783714286,-24.381956281523816,3.355108307124762,27.782132448095233
6.73727215,-4.553504120714286,-23.248795009380956,2.359640485410476,26.369676924761908
6.742194303,-4.9478020270476195,-21.552179858333336,1.7331320449342855,24.66893373333333
6.747116518,-5.441742425857143,-19.337602364904765,2.0233184327523808,22.64500045566667
6.752038674,-5.919620951000001,-16.755863881761908,3.270421351657143,20.067673425142857
6.756961057,-6.018557707428572,-14.278018065571432,4.845449339704762,17.43154493347619
6.761883213,-5.607400156095237,-12.399861715904766,5.806034230085714,15.508615817666666
6.766805366,-5.12864909847619,-11.106693417300002,6.007346187333333,14.272561730571429
6.771727605,-4.768495764,-10.143411712109526,5.564773888952381,13.279894905190478
6.77664999,-4.50369200247619,-9.3213763995381,4.9134695075714285,12.366540795142859
6.781572146,-4.346942129571429,-8.476843489585717,4.456560316571428,11.675402047
6.786494378,-4.27648641947619,-7.550331611633337,4.185874371333334,11.11089127604762
6.791416763,-4.260791267666667,-6.565299416633335,4.054339034238096,10.620468339904763
6.796338919,-4.289334172285714,-5.525033788538098,3.955375115095238,10.153897047476189
6.801261134,-4.321475596619048,-4.4417283613476215,3.883976209714286,9.70260471304762
6.806183213,-4.305193412809524,-3.3425495249190504,3.8726738747619045,9.280198096428572
6.811105407,-4.207291114857144,-2.2461241052523837,3.9260487782857143,8.904409756571429
6.816027792,-4.031280642380953,-1.1728127308238123,4.014480579428572,8.570109659714285
6.820949977,-3.813799364142857,-0.1365195193476217,4.101015011428571,8.284006719952382
6.825872131,-3.5544494616666666,0.8483545701761879,4.1377843901428575,8.02497554847619
6.83079436,-3.252263071909524,1.7793407929380927,4.096238772,7.7899377376666665
6.835716779,-2.937717491604762,2.6594030778428546,3.968233051666667,7.580084924666666
6.840638704,-2.656020913747619,3.4818788745095213,3.7652240479523806,7.4352657753809535
6.845561087,-2.4434942517476195,4.254685564366664,3.5075463396190476,7.383715889666666
6.850483305,-2.300200905080952,4.9901661452238075,3.243283856366667,7.445843695904761
6.855405687,-2.202006226461905,5.683977504938093,3.0036317222619044,7.611076411190476
