Time (s),Linear Acceleration x (m/s^2),Linear Acceleration y (m/s^2),Linear Acceleration z (m/s^2),Absolute acceleration (m/s^2)
0.126449024,-0.028100093199999995,0.6037092180285715,-1.421973983652381,1.8144877700952382
0.131371103,-0.007213236314285707,0.5164505498571428,-1.4145666987,1.7999308032380954
0.136293312,0.009377382347619053,0.43985888218571434,-1.4042625542238096,1.7777874913333336
0.141215161,0.019118191591904768,0.37494835681904765,-1.3901333639857143,1.7482596800952384
0.146137312,0.01977357233476191,0.3228279263809524,-1.3707915091285716,1.712926672
0.151059428,0.016382238344285722,0.2894914005095239,-1.3471246050333332,1.6773922071428569
0.155981813,0.008047905353809528,0.27659763576666674,-1.3169557963809524,1.6480588073809523
0.160903969,-0.004754999208095237,0.2797614446238096,-1.2746693208714286,1.6248427782857144
0.16582607,-0.024047667427142854,0.2935735381476191,-1.2180208450761905,1.608246938857143
0.170748223,-0.051728619350952375,0.3163852972428572,-1.1463040363947619,1.6014808828095237
0.175670109,-0.08775238231761906,0.3480311515761905,-1.0584438466519048,1.6075017753333334
0.18059226,-0.12772699941761903,0.38424862538571436,-0.9583488470519048,1.6218072552380953
0.185514375,-0.16633561999380952,0.4239740539095238,-0.846927752985238,1.6417968520952382
0.190436529,-0.20416652480809525,0.46501843105238094,-0.7269831351138095,1.6657280347142858
0.195358645,-0.24167100052714288,0.5076029979095239,-0.5989972319233333,1.6942370791428574
0.200280799,-0.2821295732938095,0.5545875171952381,-0.4653580893042857,1.7300422506666668
0.205202953,-0.3257258140128571,0.6055405591476191,-0.3263763269233333,1.7727837405714286
0.210125121,-0.4256288610795238,0.7570583675809525,-0.23028856745190476,1.849210562190476
0.215047275,-0.5222186704557144,0.9134755557761904,-0.12101951898523808,1.9274328618571428
0.219969659,-0.6171136671557144,1.0753154581857143,-0.0016822837947618847,2.0034735813333335
0.224891796,-0.7078010967604762,1.2427845509857143,0.12453661987190477,2.075854560857143
0.22981395,-0.7956040504033333,1.412700076690476,0.24824481120523811,2.153884307666667
0.234736104,-0.8817775734366665,1.581823414052381,0.3686848117766667,2.2408430033809523
0.239658022,-0.9639401941985714,1.7488454606285715,0.47922157157190476,2.3404978602380955
0.244580174,-1.0425797167333333,1.9076312181857145,0.5794865721100001,2.4503098283333333
0.249502351,-1.1173296214809523,2.0567693625761905,0.6673866685480953,2.5695292144285715
0.254424505,-1.1923784328761904,2.1922338889238095,0.7415183361671429,2.6939031601428574
0.259346659,-1.2663185779857142,2.3124013174761906,0.7991387650242856,2.8173515148571426
0.264268813,-1.3386815274285715,2.4220178355238096,0.8331710981361905,2.9403628223333333
0.269191198,-1.4084420940714284,2.5264001233809523,0.8416320498409523,3.0635478857142857
0.274113137,-1.4737856131047617,2.6261938413333334,0.8255311927880952,3.1833300236666666
0.279035289,-1.5361827553333331,2.718531988952381,0.7854754778880955,3.295110025095238
0.283957442,-1.6000873302857141,2.8069216524285716,0.7274751432119049,3.4028009001428576
0.288879823,-1.6679340939523808,2.8908573162380953,0.6513597620595238,3.506534108904762
0.293801979,-1.735738527047619,2.9739923648095234,0.5615745722071429,3.6072817559047614
0.298723902,-1.802724242095238,3.0547254199523812,0.458975621254762,3.7031481137619044
0.303646054,-1.8662464844761908,3.1301966168095237,0.3496357142071429,3.790991296952381
0.308568208,-1.9280679054761904,3.2028793834761906,0.23455037920714292,3.873719605857143
0.313490291,-1.985847859095238,3.2690932864761906,0.11703904996904764,3.947646153
0.318412443,-2.0414366153809524,3.329059294333333,0.0035947160023809847,4.014528163047619
0.323334587,-2.0917051405714284,3.3821706772380957,-0.10198156929285711,4.073800053761905
0.328256818,-2.1404914742380954,3.42356791952381,-0.19898718919285713,4.123846203238095
0.333178974,-2.1879389513333334,3.4483127707619046,-0.2865632833023809,4.162256017619048
0.338101084,-2.2293728136190474,3.4569726671904766,-0.3694810928023809,4.185879190333334
0.343023313,-2.2645703327619047,3.4458921410476187,-0.44224599753095234,4.191673008904762
0.347945469,-2.286586665047619,3.4211513883333335,-0.5054364279309522,4.180228769761905
0.352867603,-2.292425853904762,3.3808747700952377,-0.557941713897619,4.148303248571428
0.357789757,-2.283142612095238,3.32208634,-0.5984111914738095,4.0940396380952375
0.362711926,-2.2617752268095237,3.243801769857143,-0.6270954768976191,4.018152908619047
0.367634003,-2.230635279714286,3.1466639667142857,-0.6424365242714286,3.9219888316190477
0.372556145,-2.1892928055714287,3.031316916238095,-0.6452807621285713,3.805496548857143
0.377478376,-2.136436666809524,2.8996316280714285,-0.6372440954428571,3.6689621899047618
0.382400479,-2.0711259047857142,2.7556225289333334,-0.6177869517571428,3.514974181904762
0.387322631,-1.993665331947619,2.6000037704904764,-0.5891851889604762,3.344962141138095
0.392244861,-1.9066546616952382,2.4375808197285713,-0.549963236067619,3.1634632321714284
0.397167027,-1.814914941852381,2.2687584872,-0.50338837916,2.973992898195238
0.402089181,-1.7181688462428573,2.09701491083381,-0.4494891892647618,2.7786582974095237
0.407011349,-1.6159799837190474,1.9247664785009524,-0.39232075873619043,2.5794059484095238
0.411933503,-1.5084265130238095,1.749993287053238,-0.3314760442790476,2.377585453704762
0.416855657,-1.399253559990476,1.576477147465143,-0.26841914245047616,2.1787492434333333
0.421777815,-1.289514755942857,1.4042020477014285,-0.2055362847885714,1.9865133157
0.426699968,-1.1785788046619048,1.2339295725723811,-0.14223380758380952,1.8030054605714287
0.431622121,-1.0649006121847617,1.068837856122857,-0.07780866554571426,1.6316696482142856
0.4365442,-0.9472225620490475,0.9098905273847618,-0.009360950783809502,1.4745777217619047
0.441466337,-0.8292234148680951,0.7573451504704762,0.06653371436380955,1.336632709
0.446388568,-0.7118594176919048,0.609143724584762,0.14403338215428574,1.2181406126666667
0.451310709,-0.5997866107014286,0.4623353387371429,0.22024957606380957,1.1197554203333335
0.456232786,-0.4934111364157142,0.3180111921847619,0.29382014540190476,1.0448923897619047
0.461154937,-0.39543632799190476,0.17838771482285715,0.36382695731142856,0.9922665115714285
0.4660771,-0.3055376168490476,0.043699808584761905,0.4290228597971429,0.9601527231904761
0.470999331,-0.22262490070619048,-0.08584447789142857,0.4862722880590477,0.9450277428095236
0.475921487,-0.14337233125857143,-0.20973042732,0.5341778601733334,0.9458691995238097
0.480843646,-0.06830938081571428,-0.3279949974390476,0.5732748591971428,0.9638110804285714
0.4857658,0.004768570341428577,-0.44307047496761903,0.603988384044762,1.0015082215714286
0.490687953,0.07535833127952382,-0.5559997112866666,0.6261885271004763,1.059350017957143
0.49561003,0.14414247452238096,-0.6714360395723811,0.6416460034552381,1.1377033799714287
0.500532259,0.2103424725842857,-0.7897972302342857,0.6514337173,1.231837116709524
0.505454324,0.2708180916509524,-0.9114473225347618,0.6566733363285715,1.3387000625428571
0.510376476,0.3266396154319048,-1.037013225344762,0.6573910500476191,1.4554259236857143
0.51529863,0.37786271182714287,-1.1648330834208571,0.6544228600761905,1.5760511999142859
0.520220784,0.4254760444985715,-1.2964222213089525,0.6463686703380953,1.695922037185714
0.525142938,0.4714900440509524,-1.427371787307143,0.6340166699476191,1.8111708764904764
0.530065091,0.5171455195366667,-1.5584958865114285,0.6172740033809524,1.9229681283809525
0.534987326,0.5617782343119048,-1.6893290720142855,0.5974290988380953,2.031372930880952
0.539909482,0.6037277097619047,-1.8216633071809523,0.5777120029714286,2.137733252666667
0.544831636,0.6408663285571429,-1.9580033987904761,0.5583153374238096,2.2434325034761904
0.549753795,0.6707780914571428,-2.0977130133809525,0.5433217635,2.353520554047619
0.554675949,0.6947580433952381,-2.2371162998190477,0.5347130930190476,2.4677455679047617
0.559598021,0.7142009947904763,-2.3744875872666666,0.5305973809714286,2.584344623142857
0.564520172,0.7349098991714286,-2.5100700116190473,0.5322572340666666,2.7046538585238094
0.569442312,0.7588981375714285,-2.639795825476191,0.5400341415428571,2.8257407345714283
0.574364466,0.7869514709333333,-2.765619158666667,0.5540996200809525,2.9493768511904763
0.57928662,0.8175117117714286,-2.8899106410952378,0.5727771442285715,3.0760694414285714
0.584208774,0.8499575682809523,-3.0145665406666664,0.5938085267476191,3.205579715761905
0.589130699,0.8828849962428571,-3.138051640380952,0.6149286208666667,3.3346566362380954
0.594053087,0.9151093760857143,-3.259747652761905,0.6362152886761905,3.4620920803333326
0.598975242,0.9462339452095238,-3.3745977424285716,0.653082765947619,3.5820084505238095
0.603897396,0.9758614670666668,-3.4808493682380948,0.666153291104762,3.6928698531904764
0.608819535,1.007816658152381,-3.5795297963333335,0.6748113865904762,3.796932069666666
0.613741764,1.0407056553238097,-3.672278654,0.6787641487904763,3.895399752714286
0.61866392,1.076108032757143,-3.7620940776190475,0.6762460054619047,3.991684174428572
0.623586012,1.115928224147619,-3.847425279190476,0.6708157672271429,4.0851549618571426
0.628508164,1.1570712696904761,-3.931608904,0.6614876245333333,4.177866917904762
0.633430317,1.1970116495904761,-4.013079461619048,0.648863814902381,4.2676088360952384
0.63835249,1.2317247419095239,-4.0877768425714285,0.6326537197452381,4.349024588380952
0.643274644,1.2636469318952381,-4.152926899142857,0.6095167669442857,4.419662110333333
0.648196798,1.2932442199666667,-4.205099707571429,0.5777271951871429,4.475641503714286
0.653118971,1.3200587431761905,-4.242587418761905,0.5396536723057144,4.51473317
0.658040896,1.342273221152381,-4.266756273428571,0.4969936733009524,4.537702421333334
0.662963279,1.3595410812809525,-4.277388936,0.4562091972342857,4.545281978714286
0.667885434,1.3694579885238096,-4.275986557904762,0.41831829466285714,4.538943916428572
0.672807588,1.3732549406333332,-4.264178071714285,0.3851609602438095,4.521327293047619
0.677729718,1.3695735108380953,-4.240690594619047,0.3615783399533334,4.492538096095238
0.682651872,1.356655174809524,-4.203767685666667,0.3514372426009524,4.452270422571429
0.687574021,1.3327262714047619,-4.1526958828571425,0.35691800322,4.400746303761904
0.692496175,1.2974833676142858,-4.086208071,0.37615043243904767,4.336903924952381
0.697418329,1.2535702260047619,-4.004197779095238,0.4100416220914286,4.262506522809524
0.702340501,1.2010157505952381,-3.9096372694761903,0.4617939992295238,4.182148527142857
0.707262654,1.1409682773476189,-3.805752072952381,0.5298398055390476,4.09969494947619
0.712184807,1.0710429428485715,-3.693037169238095,0.6119193764628571,4.015255722809524
0.717106966,0.9915748504533333,-3.5739475544761903,0.7091797536819048,3.9322004914285715
0.72202912,0.9041381389628571,-3.4470816055238096,0.8217141862390478,3.8503859196190473
0.726951274,0.8100894728723811,-3.313770458761905,0.9459398023357143,3.771235588428571
0.731873428,0.7085036192009524,-3.1720452705714286,1.0785748460104763,3.693445034571428
0.736795582,0.6002895729438096,-3.0228966133333337,1.2153838459652382,3.616106315761905
0.741717702,0.4886472406247619,-2.869131712666667,1.3594818919080953,3.548664683476191
0.746639856,0.3724603833771429,-2.7140019904761905,1.5059497940185715,3.489156969142857
0.75156178,0.2542789503771429,-2.557778662142857,1.6536790851042855,3.4374276216666666
0.756483928,0.1350755190914286,-2.402199239957143,1.8008365187666668,3.394481811095238
0.761406313,0.01629913523428573,-2.246245290547619,1.946222665061905,3.3604317486666666
0.766328488,-0.10501377252761902,-2.0936536732,2.0848496641285714,3.3354090400000005
0.771250641,-0.23043439395619045,-1.943575245980952,2.217042471652381,3.3197580839047625
0.776172565,-0.35797986708476187,-1.7986742030761906,2.343088944738095,3.313825079190476
0.781094744,-0.48799010293714284,-1.6597328242523808,2.4611747066,3.3183557140952384
0.786016898,-0.6164171031942857,-1.5274457306809524,2.5696483736666664,3.330273742761905
0.790939283,-0.74456414898,-1.4034041591904762,2.669800326952381,3.351940075809524
0.79586143,-0.8715641970466667,-1.289072964847619,2.761878183904762,3.382644583666667
0.800783584,-0.9989420548180952,-1.1840783896809524,2.844743757047619,3.4207977780952383
0.805705737,-1.1280011495990476,-1.0897557678619048,2.9173748095714287,3.465652392952381
0.810627886,-1.2536559605419046,-1.0054882906714284,2.9814831983333336,3.514950130190477
0.815549809,-1.376411478804762,-0.9331606257761904,3.037202869142857,3.568746318809524
0.820471966,-1.498816484504762,-0.8717909569095239,3.0826360611904766,3.624749230095238
0.82539412,-1.6218186716333332,-0.8224384813380952,3.1159216335714284,3.680888883047619
0.8303165,-1.7465904298285715,-0.7871800036761905,3.1378649189047625,3.7380142680952377
0.835238425,-1.8688283392523808,-0.7663768586761905,3.1528513544761902,3.7984423678095243
0.840160558,-1.9906070573285715,-0.7594699065333333,3.1613226844761906,3.862584085095238
0.845082712,-2.1104631935333336,-0.7669217189142857,3.160124347285714,3.9262140536190473
0.850004865,-2.227264188619048,-0.7863312448666667,3.1524194876190474,3.990083051047619
0.85492725,-2.341124949,-0.8185931472476191,3.1375374340000004,4.053808767714286
0.859849406,-2.453405806,-0.8631093842428571,3.117701995952381,4.119048119571429
0.86477156,-2.5642066569523814,-0.9196125240333333,3.095058849904762,4.186826760095238
0.869693729,-2.6728245587619046,-0.9841780038095238,3.070195709,4.256730977619047
0.874615882,-2.7785524130000003,-1.0556087607428573,3.041110708666667,4.326567554333333
0.87953805,-2.885926082047619,-1.133956517504762,3.0070820422857145,4.398547208047619
0.884459973,-2.993776185238095,-1.2181222836142855,2.966629141904762,4.471062791
0.889382111,-3.104247513333333,-1.3074742782809525,2.9216094244761908,4.546123388238096
0.894304265,-3.2166377476666668,-1.4021831779142855,2.869707141666667,4.623106145904762
0.89922665,-3.328993172904762,-1.5041293217809524,2.812395708952381,4.702461818428572
0.904148791,-3.440166076047619,-1.6144063217095237,2.7500484671428573,4.784606350523809
0.909070714,-3.549352736714286,-1.7315970886238095,2.6843148924761904,4.869425211904762
0.913992881,-3.659977016,-1.8575985119571428,2.615487887809524,4.959720272238095
0.918915265,-3.7693162645714287,-1.9881598012809523,2.5446735961428573,5.053126514904762
0.923837421,-3.873746111285714,-2.1221161314333337,2.473891456952381,5.148417422238095
0.928759555,-3.973757834666667,-2.2588730794809524,2.4042313553333337,5.246855821809524
0.933681478,-4.070425135761904,-2.3954470327619046,2.3355115028095237,5.347723855904762
0.938603886,-4.165631998142857,-2.5337562163333334,2.2656991652380953,5.451602316095238
0.943525811,-4.256824856666666,-2.6746941577142858,2.1976546446666667,5.558508871714285
0.948447886,-4.343967233333333,-2.8193855455714285,2.1310488382857145,5.668186573761905
0.95337012,-4.427146150904762,-2.9657618715714285,2.067478174238095,5.780236756428572
0.958292276,-4.507940303666667,-3.11369258447619,2.007277079952381,5.896682884095237
0.96321443,-4.585770822666667,-3.2607692593809525,1.947008371333333,6.013927006761905
0.96813657,-4.65915558447619,-3.4090354442857143,1.885055417047619,6.130734444619048
0.973058724,-4.727416583428571,-3.5590562025714285,1.8237966525714286,6.247369662095237
0.977980878,-4.788630587666667,-3.714711779619048,1.7660507474285712,6.365669995380952
0.98290326,-4.84145144047619,-3.873615594095238,1.7113081330000002,6.483204887857143
0.987825185,-4.884543441523809,-4.038062583809524,1.6597101290476193,6.600900985095238
0.992747337,-4.92129264552381,-4.2058554944285715,1.6110450369523808,6.719178685190477
0.997669491,-4.947654315333334,-4.375621795666667,1.5679979834761906,6.835193817619047
1.00259157,-4.966198943809523,-4.544521082047619,1.530158604857143,6.949214327142858
1.007513722,-4.976535093095238,-4.710055850809523,1.4990077472380952,7.059510802619048
1.012435876,-4.977131094095237,-4.873836119952381,1.4735997460476191,7.165745252333334
1.017358107,-4.9690759975238095,-5.031085752285715,1.453760078904762,7.264958158761904
1.022280262,-4.953455902142856,-5.1846621263333335,1.4400849398571427,7.359690338476192
1.027202416,-4.932032902904762,-5.334105661904762,1.4305537938571429,7.450293531095238
1.03212457,-4.906676655571428,-5.479519764571428,1.426688177190476,7.538158398714286
1.037046729,-4.875150021904762,-5.623418626333334,1.429433271952381,7.623692069190477
1.041968883,-4.834986391380953,-5.766049725666667,1.4407429865238097,7.70625210052381
1.046891037,-4.786568914047619,-5.906879833761904,1.4598155078571429,7.786162532761905
1.051813224,-4.731079544238095,-6.043106873809523,1.4861395075238095,7.862012812285714
1.056735377,-4.668899297619047,-6.172736780952381,1.518616085952381,7.932130008476191
1.06165753,-4.602568478714285,-6.292518638428572,1.5573894693809525,7.994899165380952
1.066579654,-4.530517475809524,-6.400808402428572,1.6021425667142857,8.04785788057143
1.071501808,-4.453790619142858,-6.496077128761905,1.6505187068571427,8.08994698504762
1.076423957,-4.3733055703809525,-6.579179604809523,1.6984685602380953,8.121168619095238
1.081346036,-4.292585043571428,-6.651175181047618,1.7427696556666665,8.143844836428572
1.086268265,-4.209893953095238,-6.718253953095238,1.7833245594761906,8.162091084238096
1.09119042,-4.125002849523809,-6.7841008050000005,1.823208752095238,8.180235960190476
1.096112497,-4.035239503380953,-6.8515277590000006,1.8646929377142856,8.199501817619048
1.10103475,-3.9417172158571425,-6.919799032666667,1.9063341276190477,8.220152441857143
1.105956906,-3.844175157,-6.984626452095237,1.9481689815714287,8.238250526952381
1.110879088,-3.7416592438095244,-7.046952111380953,1.9885487499047618,8.254092769333333
1.115801242,-3.633549815047619,-7.105086508285715,2.0242522273333337,8.265825267761905
1.120723396,-3.5203562009047613,-7.163591362190475,2.054590565809524,8.277133885571429
1.125645521,-3.4050861993333332,-7.220179898428571,2.0781136069999997,8.286485243428572
1.130567598,-3.291886340904762,-7.273718516095238,2.0973588000952383,8.294055260190477
1.135489837,-3.1788608232380953,-7.323782648428572,2.1089447055714285,8.297637646142856
1.140411916,-3.0644488277142856,-7.368116787571428,2.111224940857143,8.294850733428571
1.145334058,-2.947536258380952,-7.403777122571428,2.1010059401904764,8.282553741285714
1.150256212,-2.8295054945714284,-7.428030036809524,2.0780960377619047,8.25887198895238
1.155178381,-2.711269634,-7.4421215058095225,2.0413353272380954,8.224588268333333
1.160100535,-2.5918340625238097,-7.451055594904762,1.9882437047142858,8.183875207952381
1.165022688,-2.4671981106666667,-7.451988969571429,1.9187387965476188,8.132538326095238
1.16994487,-2.337911878238095,-7.451533998809523,1.8337669372095238,8.077990753857144
1.174867332,-2.2042960722380953,-7.450847512238095,1.7359583221476191,8.02263453152381
1.179789256,-2.0631417432761903,-7.448839074095237,1.629726899142381,7.966258540857142
1.184711408,-1.9083948404238094,-7.444001311380953,1.515117758437619,7.90804928052381
1.189633562,-1.742213316557143,-7.429488590809523,1.39030966269,7.844049299857143
1.194555642,-1.5705969836809526,-7.399727980285713,1.2522490872519048,7.770588907142858
1.199477793,-1.3973800815952382,-7.354535920238094,1.1008221418233335,7.687435157238094
1.204399937,-1.2220682777619047,-7.291244779238094,0.9381613330614287,7.592176615523809
1.209322091,-1.0469128992571428,-7.213954448666668,0.7667224347280953,7.488426743761905
1.214244235,-0.8741767597333333,-7.1187113580000005,0.5903031936328572,7.372320191809523
1.219166389,-0.7069356234952381,-7.005365598714286,0.41359152649,7.2446124871904765
1.224088543,-0.5446375799238096,-6.87017150147619,0.2374896148233334,7.101290080428571
1.229010697,-0.38436162678095237,-6.715132054761905,0.0661653333471429,6.94296324847619
1.233932851,-0.22366739659047616,-6.5413717995714284,-0.09771609341476187,6.767557079714286
1.238855081,-0.06526982420952382,-6.348671947095237,-0.2487754768909523,6.57372938952381
1.243777219,0.08682665164761905,-6.137760559619047,-0.38360247765285715,6.362177434904763
1.248699373,0.22960827255238095,-5.910193556714286,-0.4981515723623809,6.134566146190477
1.253621527,0.3670902742190476,-5.670069501428571,-0.59126976311,5.89693061447619
1.258543619,0.49915193731428564,-5.41933816947619,-0.6579625262385713,5.651274971619047
1.263465771,0.6216895559333333,-5.156661368476191,-0.6944173372242857,5.398619106380953
1.268387923,0.7347538450285714,-4.885376856380953,-0.6981954798147618,5.147871384857142
1.273310077,0.8365463224571428,-4.6022121508571425,-0.6673235265242856,4.902822382857143
1.278232217,0.929586987457143,-4.308439109990476,-0.6036957172242856,4.671668722190477
1.283154142,1.0123999381619047,-4.0078108821619045,-0.5108911884571428,4.460100758190476
1.288076525,1.0824816532142858,-3.6982381627476193,-0.38914585041904753,4.267696073047619
1.292998676,1.1407506040142859,-3.3844403017823814,-0.24061028090952374,4.092861868285714
1.29792083,1.1915506039476191,-3.0662021144014284,-0.06660866099523803,3.9333730393809523
1.302843058,1.2379864113857142,-2.7439462659966667,0.12597676757619053,3.7852543565238093
1.3077652,1.2777030808857144,-2.421015932849048,0.3299511564809524,3.646884214952381
1.312687354,1.311093460952381,-2.0968390338061904,0.5389512443857143,3.516115595857143
1.317609517,1.3369656517142856,-1.7763953127585717,0.7474333338619048,3.3957724333333332
1.322531594,1.3588993662380953,-1.459747641234762,0.9503883811476193,3.2870096033809526
1.327453746,1.3774327493333334,-1.151240397425238,1.1455072852904762,3.1912469247142856
1.332375957,1.3911815597142858,-0.8505099306157143,1.329825140909524,3.109832414857143
1.337298113,1.4031118494285715,-0.5581831794252381,1.500401418147619,3.046412796333333
1.342220267,1.412998136952381,-0.2734988052347619,1.6547573244809524,3.0032585643333336
1.347142435,1.421775568047619,0.002743235241428594,1.7915831868619048,2.9836376323809524
1.352064589,1.4300438505714286,0.27010427443190477,1.908913139142857,2.9893646913333334
1.356986743,1.435450326809524,0.5265706631461905,2.006512043795238,3.015880145142857
1.361908897,1.4403180451428572,0.7748094197176191,2.0825709956857144,3.0644026746190476
1.36683105,1.4478949024285714,1.0135112798128572,2.136556662338095,3.1317929811428575
1.371753203,1.4575542835714284,1.2404574293842858,2.1664771864285717,3.2132825432380954
1.376675328,1.4718636614761904,1.4562800920033334,2.171729564761905,3.3021968837142857
1.381597482,1.4879158053809522,1.6624063817080952,2.1516060432380955,3.3890903454761903
1.386519551,1.505535948857143,1.8603710074033333,2.107100083761905,3.467558989714286
1.39144178,1.5237321853809522,2.0497559560366665,2.0400924597952383,3.535751959952381
1.396363941,1.5412687574285715,2.233208856357143,1.9563206037333336,3.59595295247619
1.401286094,1.5587138505238094,2.4072055234047616,1.8591026522428569,3.6474973194285716
1.406208199,1.5758156606190477,2.573335568047619,1.7529996974619049,3.694726167428571
1.411130351,1.5939061357619047,2.730673372661905,1.641422453409524,3.7400517776190476
1.416052505,1.6165920439047616,2.876581946904762,1.529827078204762,3.78709680052381
1.420974664,1.6466745649047618,3.009675042904762,1.4203734625285716,3.8366621887142855
1.425896818,1.6841368504761904,3.126197565095238,1.3176798934285716,3.888187455428572
1.430818972,1.729853947952381,3.228880797,1.223459751847619,3.9443170368095237
1.435741141,1.7827696686666665,3.317384078285715,1.1371352771904764,4.003176429904762
1.440663371,1.8453707581428571,3.3928568362380958,1.0584519491380955,4.065772033857143
1.44558545,1.920177278047619,3.453734556761905,0.9860071383761906,4.131025345714286
1.450507592,2.010078941047619,3.499836898904762,0.9211112317714287,4.199629034428572
1.455429746,2.116055653190476,3.5280366624285713,0.8641515657952381,4.269534299190476
1.460351905,2.233754992476191,3.5418336617619044,0.8149492797333332,4.340602574
1.465274059,2.3612419991428575,3.539153428190476,0.7691025648523809,4.409057980904762
1.470196202,2.4970379102857145,3.520884661333333,0.7244812320904762,4.475006754619048
1.475118356,2.642295945238095,3.4894017036666662,0.6789296609666667,4.541447976142857
1.48004051,2.798634194142857,3.4454843770000005,0.6291242326523809,4.6109991227142855
1.484962679,2.9654056628095242,3.392650513333334,0.5753558976766667,4.685707818380952
1.489884833,3.139717561809524,3.3327427477142857,0.5196194712514286,4.76528700652381
1.494806986,3.321483123857143,3.265755460285715,0.4632328046133334,4.850144167190477
1.49972914,3.509731701428571,3.1928276106666664,0.40794032882285725,4.9390945395238095
1.504651294,3.7021498055714286,3.1161279904761905,0.3537751840657143,5.032281062428572
1.509573396,3.8928999389999994,3.038164944809524,0.3037055666895239,5.124153676952381
1.51449555,4.080122607142857,2.9617780503333333,0.260352566832381,5.214883591095238
1.519417708,4.26114298052381,2.8884265195714285,0.22223728043238103,5.303854282809524
1.524339631,4.4346282709523805,2.819783608095238,0.18788442441333336,5.391713591476191
1.529262029,4.594671851142857,2.758423941428571,0.15524504298476197,5.4760410382857145
1.534183954,4.740241652428571,2.701776992666667,0.12194394852761911,5.554255488095238
1.539106337,4.877000740619048,2.6483964692857143,0.08846504418952386,5.629762134190476
1.544028496,5.004538661,2.594540857095238,0.05450628272285721,5.700833185952381
1.54895065,5.126173178380952,2.5389621370952384,0.01821309257523816,5.7699725424285715
1.553872804,5.239844946666667,2.4807443731904764,-0.024751479419999937,5.83534393395238
1.558795048,5.3421223277619045,2.4235288982857144,-0.07801995461047613,5.896233498666667
1.563717204,5.433785801857143,2.367301844380952,-0.14183876414380947,5.952464549047619
1.568639358,5.515612170809524,2.3125007436190477,-0.2146474754533333,6.004954448952382
1.573561512,5.590430554904762,2.2604728369523808,-0.2945555214533333,6.0568459365714284
1.578483588,5.656410285428571,2.208120408523809,-0.3765982339961904,6.104893471
1.583405507,5.7099042393333335,2.154398498095238,-0.45954832934857137,6.1454377523809525
1.588327658,5.752161957,2.0964336906190475,-0.5399837575633333,6.177533325190477
1.593250038,5.784866537380952,2.0338228316666664,-0.6184661374238095,6.202121999285714
1.598172194,5.808274405333333,1.9696047902285714,-0.6939687090095238,6.2192408854285715
1.603094117,5.8221802938571425,1.9040805016285713,-0.768603184395238,6.2282490500000005
1.608016486,5.823856467285714,1.8405058838190473,-0.8376561843380951,6.225494351809524
1.612938641,5.816742533714286,1.7747303133904762,-0.9027562794190477,6.212525327571429
1.617860795,5.80099096747619,1.7038613075285716,-0.9613179465095237,6.1877342696666675
1.622783009,5.775727771571429,1.6299065975714284,-1.0121179968095237,6.150292776333334
1.627705088,5.738735153571429,1.5525996968619047,-1.0521115696142855,6.097865429857142
1.632627317,5.69712786452381,1.4697271784095238,-1.0805185699761903,6.037213724
1.637549362,5.653479303714286,1.3794232266380952,-1.0956317612142856,5.971465857476191
1.642471285,5.602975391285714,1.2824501835095239,-1.0974403321809523,5.897200635904762
1.647393466,5.544249852571428,1.1791219441809524,-1.087282237025238,5.815010952095237
1.65231585,5.477083864761904,1.071230519045238,-1.062874188920476,5.7263320233809525
1.657238006,5.40103410547619,0.9614780868357145,-1.0260341885966664,5.6314207864285715
1.662160165,5.3253252620476195,0.8526634223023809,-0.976096618220476,5.53886330052381
1.667082319,5.250996249142857,0.7471379967928572,-0.9182881892157142,5.448779996619048
1.672004242,5.178206625523809,0.6468065697119048,-0.8544295240347618,5.360699041238095
1.67692664,5.0981952804285715,0.5482520478928571,-0.7863575732633333,5.2657804738095235
1.681848565,5.009851569285714,0.4522813831880952,-0.7179683845871428,5.163466310380953
1.686770947,4.913292078809524,0.35885419340714286,-0.646900812730619,5.053841755285714
1.691693108,4.809616032190477,0.2667002894357143,-0.5737470036844284,4.938277316142857
1.696615262,4.698432263952381,0.1746586238309524,-0.4978510999749047,4.816904327952381
1.701537416,4.580490498380952,0.07962972103095238,-0.4191190043320475,4.690888488809524
1.706459551,4.457209269285714,-0.019669329464285706,-0.33768595717014277,4.561778404523809
1.711381705,4.332403659904762,-0.12406042465476191,-0.2583173850072856,4.434179623047619
1.716303901,4.2073627427142855,-0.2358558046547619,-0.1817835762558571,4.311343221
1.721225825,4.083022117714286,-0.35611808974523806,-0.11303495649395232,4.197638378190476
1.726147976,3.961343504190476,-0.4901323300738095,-0.05541209661919041,4.097447447952381
1.731070361,3.848501648285714,-0.6349793768404762,-0.007901952595523745,4.016123473952381
1.735992286,3.7411120279047614,-0.7875081368166666,0.031880333450190534,3.950666872476191
1.740914433,3.63750145552381,-0.9419493714261904,0.06597495305971435,3.898246756142857
1.745836818,3.5397697062857145,-1.0964067035357143,0.09243647626447625,3.859698524333333
1.750758973,3.4464838504761905,-1.2484163269214286,0.11239709488495245,3.8335659609047616
1.755681123,3.353611230857143,-1.3984707572619048,0.12607880890876197,3.8163128222380953
1.760603277,3.2592872665238097,-1.5483203267666665,0.1408772372373334,3.8072961228571427
1.765525431,3.1582516829523803,-1.701073708995238,0.1603310934468572,3.801501049333333
1.770447344,3.0517188821904764,-1.8555243810095239,0.19104785751352388,3.798394642666667
1.775369727,2.9389432725714286,-2.0116163364523807,0.23499494961828576,3.7971622206666664
1.780291633,2.8251484178571427,-2.165457240157143,0.29293966675161914,3.8032239990476184
1.785213785,2.710423742047619,-2.316239859357143,0.36394380769447626,3.8167102447142853
1.790135953,2.59796883947619,-2.4651677154333336,0.44683590183795246,3.8403491810476194
1.795058106,2.4887545562857145,-2.611309951271428,0.5418816149346191,3.8735202131904765
1.799980491,2.3830844674761904,-2.7529350973333333,0.6484110966536667,3.9164556811428572
1.804902431,2.2784301383333334,-2.886483674952381,0.7620588616298571,3.9637308325714287
1.809824583,2.170574665047619,-3.0098694336190475,0.8802166677536667,4.0116891157619055
1.814746953,2.0591845710714285,-3.1234002454285714,1.0017982867336666,4.06023543952381
1.819669108,1.9440534795809523,-3.223730195190476,1.1246340504108094,4.108190170857143
1.824591262,1.8289782886952382,-3.308646860619047,1.2487668161250953,4.155162337904763
1.829513421,1.7100206726857141,-3.375928856142857,1.3771331942027143,4.198897822380952
1.834435344,1.585302002687143,-3.428023429190476,1.5058653846790477,4.236904400714286
1.839357501,1.4572798570190477,-3.4670309566666666,1.631252913857143,4.269293933095238
1.844279655,1.3272750437571428,-3.4982348624285713,1.750883579142857,4.298392319476191
1.84920178,1.1953476599619048,-3.5265712398095235,1.8667383434238094,4.327474767428571
1.854123934,1.0650889479285715,-3.5562811920476185,1.979826345214286,4.360312117238095
1.859046088,0.9384906124619047,-3.5895366215238096,2.089854583757143,4.399040927952381
1.863968241,0.8158336653809525,-3.622217859619047,2.1929503451333336,4.440346815095237
1.868890395,0.692725905652381,-3.6501809642857137,2.2879382087142854,4.479540353571428
1.873812549,0.5680865251047619,-3.6736970629523813,2.3709874492857144,4.514526356190476
1.878734929,0.4412873816238096,-3.6920999686666662,2.4423416454761906,4.545002344904762
1.883657085,0.31284104957142855,-3.707776830380953,2.504255828333333,4.5743611620476194
1.888579238,0.18233447733333333,-3.7208189283809525,2.558429973380952,4.603748178571429
1.893501382,0.04763824352380953,-3.730386450238095,2.6051012163333334,4.631173293904761
1.898423305,-0.09577856423809525,-3.7375649725238094,2.642962784904762,4.656774930666667
1.903345448,-0.24995127990476193,-3.7435456004285714,2.673499107285714,4.683565897761905
1.908267602,-0.4106603260952381,-3.75236916552381,2.697238717714286,4.714347504190476
1.913189751,-0.571652465952381,-3.765688033428572,2.7142173902857145,4.751230198809524
1.918111905,-0.7311287546904762,-3.7875438305238096,2.7244368166666666,4.797077360047619
1.923034059,-0.8876397123428571,-3.8185565472380953,2.727730103857143,4.852455058714286
1.927956213,-1.0414486694095237,-3.8584314982857144,2.7234301453333334,4.914770036
1.932878367,-1.1900816215428573,-3.9080082235238094,2.7099077247142858,4.9842616911904765
1.93780054,-1.3332271447823811,-3.9669751780952383,2.6890156722857146,5.060217059380952
1.942722924,-1.4746750550190475,-4.032162643666666,2.661299716809524,5.140783496190476
1.94764508,-1.6145669079476188,-4.100853511285714,2.625532292142857,5.223003969142857
1.9525672,-1.755780283866667,-4.166217894809524,2.581452193666667,5.30287951252381
1.957489354,-1.9023334781190475,-4.226212546952381,2.528176670952381,5.379081572571429
1.962411277,-2.058138713938095,-4.274588596285715,2.4656895285238094,5.449134661238095
1.967333654,-2.221871855714286,-4.316402128809524,2.395631148666667,5.517910338666667
1.97225581,-2.389822579557143,-4.355011974142856,2.318205856095238,5.5875796874761905
1.977177964,-2.5612566357714286,-4.393461261523809,2.235843613,5.66194890047619
1.982100138,-2.7351105979571426,-4.435618207619048,2.1493143240380954,5.744377154666667
1.987022061,-2.9091898940952383,-4.4812647275238096,2.0581865197,5.8328948072380955
1.991944213,-3.0805124612380954,-4.530886831809523,1.9645584708238097,5.927361673428571
1.996866367,-3.2480448825714285,-4.586126497857142,1.867567942247619,6.027015715571428
2.001788751,-3.405287027428571,-4.646459261619047,1.7662319001666666,6.1275079519523805
2.006710907,-3.5509699867619053,-4.712012154761904,1.6588504768285715,6.227354864904762
2.011633046,-3.688986891857143,-4.780540216571429,1.5476005772333337,6.32685279704762
2.0165552,-3.8210710003809525,-4.851387500761905,1.435094621895238,6.427222860904762
2.021477354,-3.9489663215238098,-4.9215054739047615,1.320730433557143,6.5270388301904765
2.026399508,-4.071117991523809,-4.990691707238095,1.2065064303761905,6.625796373333333
2.031321661,-4.189970141380952,-5.059428850809523,1.0940534805666666,6.725253747809525
2.036243574,-4.304211525714286,-5.126709892666666,0.9856589042638096,6.824074152285714
2.041165726,-4.416986817428572,-5.192789895190477,0.8806360995480953,6.923662008666666
2.04608788,-4.526090372190477,-5.263628005999999,0.7785239066460954,7.027203835142857
2.051010275,-4.630806048714286,-5.340287571904762,0.683291713780381,7.13546517557143
2.0559322,-4.730312778809524,-5.42680563247619,0.5954618574832382,7.251202343428572
2.060854362,-4.8218569641428575,-5.520955358238095,0.5159712835856192,7.370692179809523
2.065776516,-4.899837017,-5.6255219777142855,0.4452614256575238,7.492765428238094
2.0706989,-4.965378874761905,-5.740312008571429,0.3839589487784762,7.617336669238095
2.07562106,-5.018242677,-5.867983114095238,0.33175461732276196,7.746107839904762
2.080542983,-5.0594436780952385,-6.008097625857142,0.2887724754275239,7.879146208142856
2.085465135,-5.088059039285715,-6.161008562285715,0.2547552375513334,8.016161726333333
2.090387274,-5.104990414142857,-6.320785567809524,0.22825904715133336,8.152768819238096
2.095309353,-5.111936705380953,-6.484788258809523,0.20848361962752385,8.287675983333333
2.100231563,-5.10979713704762,-6.650128432619048,0.19493671569895243,8.419564461095238
2.105153718,-5.103575751809524,-6.81778669352381,0.18742880962752387,8.552698587238094
2.110075872,-5.094285601571428,-6.982326393952381,0.1882696182941905,8.682696424238097
2.11499804,-5.079529853,-7.146787370857143,0.19684457097514288,8.810717150761905
2.119920194,-5.060554368047619,-7.310671851666667,0.21230814172752385,8.936614725333333
2.124842348,-5.035860674619047,-7.472007547,0.23585037986085716,9.057735173380953
2.129764526,-5.005767231809524,-7.629965396047619,0.2679709518227619,9.173822496571429
2.134686908,-4.972180116666667,-7.784156617523809,0.3080162359132381,9.285567278047619
2.139609064,-4.934260981333334,-7.93283180947619,0.3539562366446667,9.391162324952381
2.144531228,-4.893213408238095,-8.075819401380953,0.40566914093180956,9.490735956809525
2.149453382,-4.8508000372857145,-8.20872938052381,0.4646049042147619,9.582138834095238
2.154375286,-4.81071113395238,-8.329901377238096,0.5283418551757143,9.66603785247619
2.159297438,-4.769900162904762,-8.43631846552381,0.5947043777109524,9.737890646619046
2.164219616,-4.729072729666667,-8.529185045238094,0.6629079947038096,9.799398882047619
2.16914177,-4.688810303,-8.608230795095237,0.7308327546319048,9.850394412285715
2.174063894,-4.646377790428572,-8.675015926285713,0.7936670878919048,9.89035237847619
2.178986048,-4.602335543761905,-8.72927356890476,0.8497081363000001,9.919248965809524
2.183908202,-4.5579142569523805,-8.774620828095237,0.8988581838619047,9.94057844252381
2.188830385,-4.5117103257619044,-8.807973952428572,0.9398984213190477,9.950917959619048
2.193752539,-4.466418129952381,-8.836775007619048,0.9749295654380952,9.957974002761905
2.198674924,-4.420549267714286,-8.862062999095238,1.005202089,9.961968664476192
2.203597074,-4.37534379947619,-8.881591615142858,1.032104421195238,9.961472055142858
2.208519228,-4.329525232190476,-8.893463861285714,1.0555797077000002,9.954091417761905
2.213441377,-4.27989337547619,-8.901326951428572,1.072418564804762,9.941381908095238
2.2183633,-4.230956168285714,-8.902728580190475,1.0799335638333334,9.922752374142858
2.223285452,-4.180832783285714,-8.900017602,1.0770468030333333,9.899385411666668
2.22820762,-4.128779626952381,-8.897715477619048,1.0637272794714285,9.875203197619047
2.233129699,-4.075646491190476,-8.896821975619048,1.0406534217333334,9.851559103476191
2.238051933,-4.016010454619048,-8.898822511857142,1.0078466136904762,9.827898688761904
2.242974088,-3.949689115714286,-8.90462802695238,0.9674082795523808,9.805375018571429
2.247896242,-3.872049115904762,-8.913560095190476,0.9203439468333333,9.781826107904763
2.252818396,-3.7830123560476188,-8.926870663857143,0.8668870407999999,9.758586783285713
2.25774055,-3.679415441666667,-8.945807002714286,0.8080731850557143,9.736155333333333
2.262662933,-3.565726586761905,-8.973200979571427,0.7461865674152381,9.719028054666667
2.267585094,-3.4415331624761905,-9.006328673476192,0.6802160933423811,9.70509546257143
2.272507247,-3.30798534552381,-9.046076683666668,0.6114156668538095,9.696386846380951
2.27742917,-3.164971141619047,-9.088210332857145,0.5419374289538096,9.69018188595238
2.282351312,-3.0125971976190478,-9.129642622714286,0.47288871345380956,9.68439698404762
2.287273697,-2.851647283395238,-9.166730971476191,0.404572141682381,9.675412700761905
2.29219556,-2.6865446057142854,-9.198557671952381,0.33761480842523817,9.663438740523809
2.297117789,-2.5134927971476193,-9.21770627147619,0.27114899776333334,9.640213022142857
2.302039943,-2.335027180304762,-9.226050195142857,0.20459414061095244,9.607867157666666
2.306962117,-2.1520795124530476,-9.222294534857141,0.1409936174776191,9.56472133147619
2.31188427,-1.9637538448101908,-9.208261444333335,0.0799347598680953,9.513165737714287
2.316806349,-1.7691506542625715,-9.18329697552381,0.022081665696666714,9.453114930190477
2.321728501,-1.5664568513149526,-9.146884327761905,-0.026940190012857097,9.383256290857142
2.326650963,-1.359449329629238,-9.096256437666668,-0.061569475705238054,9.300948579238096
2.331572888,-1.1484923332197143,-9.029354867380952,-0.08167038077523804,9.205040268857143
2.336495001,-0.9340734735054287,-8.947448821190475,-0.08682985675142853,9.097132799809524
2.341417155,-0.722047325886381,-8.847598166619047,-0.07406871517999995,8.976119151571428
2.346339285,-0.5156662263149524,-8.728385493809522,-0.04547390626095234,8.841221719619048
2.351261438,-0.3172916994578096,-8.587408247380953,-0.0012392387323809015,8.691386116904763
2.356183578,-0.13033674702923817,-8.423441591666668,0.05613028649142863,8.524849225523809
2.361105732,0.0458620590183809,-8.233701160904761,0.12627371366428577,8.340549066285714
2.366027886,0.21399300744695232,-8.015996932904763,0.20767218992380956,8.136200598809523
2.370950064,0.37515443582790475,-7.773019699714284,0.29901300071095244,7.915864525809523
2.375872218,0.5272008153993333,-7.502149649904761,0.4026238567233334,7.678676889095239
2.380794372,0.667740433208857,-7.205209255095238,0.519331708194762,7.428292541619046
2.385716569,0.7935566705898095,-6.8849410782380955,0.6477844221709524,7.167173677666667
2.390638953,0.9041392919374284,-6.540899662619047,0.7829790913233333,6.892711776047618
2.395561109,1.003964955161238,-6.1787968532380955,0.9223348543900001,6.609709170904763
2.400483229,1.0934934788802857,-5.804444954428571,1.0621629928138094,6.323676570047618
2.405405383,1.169166144418381,-5.415093955452382,1.2069234723280953,6.036767253285714
2.410327306,1.2629675254714285,-5.019381401014285,1.3418888041042858,5.764281895761905
2.415249458,1.3675416253523809,-4.621677080728571,1.4714317580280951,5.509432698571429
2.420171611,1.4516883435190475,-4.217199140398572,1.604305520242381,5.2613671647619045
2.425093765,1.518042482047619,-3.8124389329414288,1.704042518742381,5.000345711428571
2.430015844,1.5641937681238094,-3.4155811689128575,1.7794888040585715,4.7342749363809515
2.434938073,1.5963781503809524,-3.0241897298319045,1.835008230942857,4.472766405904762
2.439860229,1.6326825788571426,-2.632948625017619,1.8622088489047621,4.228787173714285
2.444782325,1.6812802382380956,-2.2420939030176195,1.863816088152381,4.0153062702857145
2.449704554,1.736223430809524,-1.8550065295414284,1.8445283273857145,3.8295632579047623
2.454626938,1.7941914739523805,-1.477542870874762,1.8043798981428572,3.670689333809524
2.459549099,1.8592859562857145,-1.1131298762557142,1.7449928965466666,3.538174496571428
2.464471253,1.9276391040476188,-0.7641376421128572,1.671861802697619,3.431421826333333
2.469393176,2.0022291455714285,-0.43302879954142853,1.5911603738433333,3.3526819603809526
2.474315241,2.083413339809524,-0.11940428130333333,1.5079420391385714,3.301596986142857
2.479237472,2.1744080555238092,0.17532672260142856,1.421930469014762,3.2810107327619047
2.484159633,2.274900107190476,0.45192785550619047,1.3344738084242858,3.2887572636666667
2.489081786,2.38663867547619,0.7123169564109524,1.248201665267143,3.323153449904762
2.494003863,2.5112685817142855,0.9543239054585716,1.1653082340957144,3.3846857316666665
2.498926097,2.6465693996666664,1.1834338115061904,1.088663044305238,3.471165956238096
2.503848253,2.7884954101428567,1.400124385887143,1.0225976647338098,3.5798491623333333
2.508770407,2.9413273675714287,1.6014661000538095,0.9581799449242858,3.705914274285714
2.513692469,3.071149423095238,1.7932068200919051,0.9070345673052381,3.836706611904762
2.518614928,3.1838078897142856,1.9786797711395234,0.8654540435433333,3.966401742285714
2.523536853,3.309763017285714,2.148286771190476,0.8231730403052382,4.105960221142857
2.52845901,3.446622252571428,2.3071957684476194,0.8126724673052381,4.275587741904762
2.533381164,3.599290592428571,2.4608187221333333,0.818395989114762,4.467763312619048
2.538303243,3.7621778250952382,2.606946011385714,0.8347548982576191,4.673432759714286
2.543225472,3.9148662999523807,2.743603013809524,0.8693800396576191,4.877224702476191
2.548147638,4.049912532238094,2.868351062142857,0.9155939929338095,5.064776972904762
2.553069715,4.174216474857142,2.9812521537619046,0.9697600899671428,5.23889563647619
2.557991943,4.291708662428571,3.0813452005714286,1.0317654686385715,5.401166375047619
2.56291406,4.4035763740952385,3.17074767752381,1.1026393751871428,5.553248237619048
2.567836289,4.5146521840952385,3.249640544333334,1.1761190880838095,5.698538565714285
2.572758445,4.622600328380953,3.3159325918095237,1.2473164711761906,5.834123576571428
2.57768057,4.724456560047619,3.3677105904285716,1.3111665660714287,5.956265733238095
2.582602724,4.821036452333333,3.4016678674285714,1.365723187052381,6.06396957252381
2.587525106,4.910802636809524,3.4170116810952376,1.4100319487857145,6.155847138904761
2.592447233,4.997245833952381,3.4133993898571426,1.4390536660380953,6.234093515238095
2.597369387,5.081942739904762,3.3934544836190472,1.4553556186857144,6.302094795333334
2.602291541,5.165824390571428,3.3558153425238095,1.4600035690000002,6.360493477047619
2.607213464,5.249304476190476,3.3028949556190477,1.4530257156666668,6.4106430358571425
2.612135847,5.331021558619048,3.237458336952381,1.4423059565238094,6.4536910209047615
2.617057993,5.411943889714285,3.1587449028571433,1.4268790029047618,6.48940867257143
2.62197984,5.490689277571429,3.0712449494285714,1.4051629077142858,6.518134588523809
2.626901991,5.563739095333334,2.9785862820952382,1.3772525304380954,6.538775897095237
2.631824241,5.633428391857143,2.8796749512857143,1.3408908673285713,6.552986285619046
2.63674632,5.701997620619047,2.7752370437142857,1.2975381555666667,6.563824673761904
2.641668472,5.7703445297142855,2.6638300873333334,1.249393008957143,6.572610702571428
2.646590722,5.840644427619048,2.5425249906190475,1.194380916247619,6.5794756415238105
2.651512878,5.913623242095238,2.410899701619048,1.1324291058333333,6.585947099476191
2.656435032,5.98968235647619,2.2690959402761908,1.063401389255238,6.5932615958095235
2.66135718,6.0684067862380955,2.1229383207714285,0.987187057822381,6.603771461238095
2.666279334,6.147782689047618,1.9743625096142858,0.9009673419128571,6.616737176857142
2.671201455,6.225887639190476,1.8246018375714286,0.8053460569271429,6.631722688809524
2.676123609,6.298962593095237,1.6781819377857143,0.7032912935319049,6.646707903142856
2.68104571,6.363298643238094,1.540239461842857,0.6004038645700001,6.65962688547619
2.685967862,6.4142380896190465,1.4134127526238096,0.50093943387,6.666659167238095
2.690890006,6.451522940666667,1.296105038552381,0.4049441950414286,6.666350554952381
2.695812159,6.4734787940952385,1.1877294225476192,0.3175503350176191,6.6574172119999995
2.700734313,6.481586637952381,1.0839219036619048,0.23909819209380956,6.63986138952381
2.705656529,6.475790636857143,0.9822365647771429,0.16789133577000004,6.61281234752381
2.710578685,6.458956968238095,0.8759932332723811,0.10155481044619051,6.578225409571429
2.715500839,6.433445022238095,0.7631660883628572,0.036230572079523855,6.537392375047618
2.720422978,6.399308636095237,0.6443419470152382,-0.028890475477619006,6.490594994333334
2.725345132,6.3594180061904755,0.520435473672381,-0.09182181014428567,6.440384356809524
2.730267208,6.317206155666666,0.39554599772952387,-0.1519859537871428,6.389556852523809
2.735189437,6.2708896228095234,0.27241285492000006,-0.20712333545380948,6.336807453142858
2.740111511,6.222110339571428,0.1539167604914286,-0.25993385964428567,6.283454002380952
2.74503374,6.167661530666668,0.04009671287238098,-0.31539209595380946,6.226995530238095
2.749955896,6.104941595190476,-0.06534724159904759,-0.37108266833,6.1645142123333345
2.754878017,6.030908834380953,-0.1621300990847619,-0.42495976371095234,6.093581608285715
2.759800246,5.944584823809524,-0.24791295625142853,-0.47783519418047615,6.0132012906190475
2.764722401,5.841598964857143,-0.3257082886371428,-0.5300474316047619,5.918900613428572
2.769644477,5.722139585571429,-0.3983036720752381,-0.5787246695523809,5.810993239904763
2.774566706,5.585490056428571,-0.4679178128371428,-0.6219743844714285,5.688459153571428
2.779488862,5.437986203571429,-0.5381461000038096,-0.6634214818380952,5.558283691095238
2.784411245,5.283227159809524,-0.6122442925371429,-0.7058230993047618,5.424535904095238
2.78933317,5.123557681095238,-0.6922158132228572,-0.7519885286999999,5.290607444238096
2.79425525,4.9641641208095235,-0.7787013864371427,-0.800021482347619,5.161944655571428
2.799177404,4.805467741809524,-0.8707396730038096,-0.8506223885619048,5.039159281095238
2.804099639,4.650407507285714,-0.9661145282609522,-0.9044675287809524,4.925231883904762
2.809021795,4.496592328666667,-1.0643077230904763,-0.9593660547904761,4.8185610070000005
2.813943949,4.339575858333332,-1.1632087288238095,-1.0090101035142856,4.715645764904762
2.818866055,4.182557855333333,-1.2625312550571428,-1.0495728183857143,4.618087042000001
2.823788284,4.027261620476191,-1.3621026817571429,-1.0768757718428572,4.527226562952381
2.828710363,3.8693993432380953,-1.4632196313666666,-1.0864975821857144,4.43975386047619
2.83363252,3.708347910952381,-1.5671695869,-1.076611201368095,4.355268950333333
2.83855475,3.5451927242380954,-1.6740995873285716,-1.0455169156680952,4.275945705523809
2.843476906,3.3738633394761903,-1.7865678242809526,-0.9893166781680953,4.199926733285714
2.848399021,3.189730723714286,-1.9021276747095237,-0.9038982977252381,4.127073577523809
2.853321175,2.9949894291904764,-2.022790483142857,-0.7945215351157143,4.061828894142857
2.858243329,2.7909066705285714,-2.1443138151809524,-0.6626024406061904,4.006969011523809
2.863165401,2.5731640514619047,-2.2644033830047623,-0.5092613856538095,3.962536167
2.868087553,2.3434911554619045,-2.3798664354952384,-0.3409321524157143,3.930699072904762
2.87300974,2.102835392638095,-2.491740961947619,-0.1655175334633333,3.913128854047619
2.877931971,1.8528544888285714,-2.6003859157619047,0.009543136108095233,3.909265790238095
2.88285405,1.590111583447619,-2.7026220106666665,0.17944927548904763,3.9148091036666663
2.887776202,1.319189433542857,-2.796739203619048,0.3379369871080953,3.927017522047619
2.892698433,1.0450629038285715,-2.8827113026666664,0.48323308387,3.9456631750000004
2.897620618,0.7665985637809524,-2.959563964904762,0.6135238022033334,3.970877389428572
2.902542771,0.4819086151142857,-3.0298205784761905,0.7268446126604762,4.004703867142857
2.907464925,0.18561223425714282,-3.09162948247619,0.8248490872080952,4.044900221761905
2.912387083,-0.1212637666476191,-3.1442424342857143,0.9101810891890475,4.095158321714286
2.917309237,-0.4340094399809525,-3.1853815714761904,0.9814790906114285,4.157627259571429
2.922231391,-0.7518703385047619,-3.2171611445238093,1.036008852885238,4.228527378523809
2.927153574,-1.0706557788380953,-3.243925242190476,1.0733422349114285,4.306784241952381
2.932075728,-1.3868573521714285,-3.2688376789999998,1.0938744730738097,4.394173076571429
2.936997881,-1.7002761038380956,-3.297874007904762,1.0991547112509523,4.4919405535238095
2.941919953,-2.0146089580285715,-3.330826055428571,1.0901854731366667,4.599491499523809
2.946842105,-2.323362198695238,-3.362924768809524,1.0674933306366667,4.710401613428571
2.951764336,-2.624799491457143,-3.3906113533809523,1.028732044127143,4.824729931238095
2.956686526,-2.9175509172190477,-3.412702356047619,0.9773663294128571,4.940001552857143
2.96160868,-3.200607111080952,-3.431869926857143,0.9140262814033333,5.0576605563333334
2.966530834,-3.467165264347619,-3.4521391731904765,0.8399475625604761,5.178471378476191
2.971452944,-3.715227592538095,-3.474326792142857,0.76006585187,5.303514403619048
2.976375327,-3.9465792632857144,-3.4928559348095236,0.6806564711319048,5.4303603179047615
2.981297213,-4.164163203428571,-3.5046482652857143,0.6081884684842856,5.558662348142858
2.986219288,-4.367418834095239,-3.5097112654761906,0.5447539982319048,5.688461057047619
2.991141442,-4.562439839,-3.509786742,0.49445599998428574,5.823993895380952
2.996063596,-4.753655410904762,-3.5042582692857147,0.4582418555509524,5.965016300428571
3.000985755,-4.939960684047619,-3.4934696582857145,0.4349278052795239,6.107789432333332
3.005907909,-5.117451031952381,-3.4750835667619047,0.42689371223666667,6.246005380571428
3.010830062,-5.28466217852381,-3.452284336,0.43233871290809534,6.378058624571429
3.015752216,-5.438010374666667,-3.4255783330000003,0.4456092840271429,6.498901608952381
3.02067437,-5.576116811619047,-3.396097330714286,0.46207785472857144,6.6062905484285706
3.025596524,-5.702426864952382,-3.3630884714761904,0.4816744254785714,6.701830310952381
3.030518736,-5.82258204047619,-3.3239113261904767,0.5027105210428571,6.788420512428571
3.035440892,-5.938258375428572,-3.2781454153333334,0.5217601876852381,6.867104923666667
3.040363045,-6.048645678,-3.2239412692857146,0.5338886160190477,6.935477677428571
3.045285175,-6.146558103095238,-3.16107988347619,0.537673139852381,6.987625600142857
3.050207252,-6.235935324714285,-3.0944711706666665,0.5296576165,7.029734463380953
3.055129408,-6.312431835,-3.030075163952381,0.5112132837227857,7.061980381095238
3.060051562,-6.380139305476191,-2.9702158313809526,0.47829114140373813,7.089501218
3.064973798,-6.436532974238095,-2.914718026142857,0.43110261955135715,7.110148692
3.069895877,-6.482614812428571,-2.8628629275238096,0.3705320956989762,7.124383886666666
3.074818029,-6.5174579620952375,-2.8155080136666664,0.29885881030850003,7.132193667428572
3.079740182,-6.536924157904762,-2.779545204952381,0.21925262069421433,7.132887964761904
3.084662336,-6.539707978619047,-2.757409107095238,0.1334911928132619,7.126030711857143
3.089584567,-6.527210053999999,-2.7507005872857144,0.04754562063707146,7.113384303000001
3.094506681,-6.498071534380952,-2.758828435619048,-0.035361664372452355,7.093122588714286
3.099428835,-6.452513535904762,-2.7791280519523807,-0.1156359965105476,7.064106102380952
3.104350955,-6.391310828142857,-2.8114268552857142,-0.19199751929626188,7.027104877857144
3.109273032,-6.318746771190477,-2.8546045735238095,-0.26478294788673806,6.985216102857142
3.114195265,-6.233050005809524,-2.9061613764761907,-0.334690709639119,6.936256748095238
3.119117344,-6.139145942000001,-2.9658332325714287,-0.39971566173435713,6.884796381571429
3.124039486,-6.041027750333333,-3.0288864204285715,-0.4570897091153095,6.831846549142858
3.128961717,-5.93869127547619,-3.0932078475238094,-0.5073711358534047,6.776402702714286
3.133883796,-5.8309876578571425,-3.1590749423333335,-0.5533858506629286,6.717892824523809
3.138805958,-5.717096374190476,-3.2272026539523813,-0.5954558023534047,6.656307403714286
3.143728112,-5.597447213714285,-3.2980747450476193,-0.632976944686738,6.593254704809524
3.148650265,-5.474758829428571,-3.3740228471904765,-0.6676148968200714,6.53291953247619
3.153572419,-5.347987890285714,-3.459325847238095,-0.6969280878819761,6.477927083
3.15849465,-5.216563327,-3.5500991685714287,-0.7199790399666666,6.4260028469523816
3.163416806,-5.075814769428572,-3.6464750767142857,-0.7306166120904761,6.3735905587142865
3.168339222,-4.928814377142857,-3.7497253531904757,-0.7270626610190476,6.3240782332857135
3.17326107,-4.773513192238095,-3.8578273115238098,-0.7060680907380952,6.274943624
3.178183246,-4.612169719904762,-3.9695828301904763,-0.6655880427433333,6.226676912476191
3.183105399,-4.450114375095238,-4.079452196809523,-0.6089242826242858,6.181109742952381
3.188027558,-4.288471994,-4.180554730619048,-0.5364269488242857,6.134224273238095
3.192949712,-4.126100097428572,-4.270254623380952,-0.4509463780290475,6.083681735380952
3.197871866,-3.9637964680476196,-4.349682092714285,-0.35600618681952384,6.031402947857143
3.20279401,-3.8044044630952385,-4.4175683657619045,-0.25151371262904765,5.976887058857143
3.207716164,-3.6520136538095236,-4.472287178047618,-0.1416890920957143,5.921044139190476
3.212638318,-3.504798843761905,-4.516454889666667,-0.027677997395714277,5.864400307571429
3.217560558,-3.3653868380476193,-4.55132812547619,0.09219481104238096,5.809949409571429
3.222482714,-3.2302771296190476,-4.574447404809524,0.21595800046619046,5.753323134571429
3.227404868,-3.095078979238095,-4.590672311380952,0.33655495143761904,5.694277458428571
3.232327008,-2.9601914996666667,-4.600181602380952,0.4492152345804762,5.631688735523809
3.237249162,-2.824756979952381,-4.603034133047619,0.5537094230995239,5.564274731095238
3.242171316,-2.6911007847142856,-4.601211990666666,0.6480866115661905,5.49438451752381
3.247093488,-2.5610857974761907,-4.5988500572857145,0.7342508476328572,5.4270310927142855
3.252015565,-2.4322461854761905,-4.602015870000001,0.8153485597423811,5.368171081333333
3.256937794,-2.307370991904762,-4.607893637285715,0.8944016537280952,5.317695398476191
3.261859964,-2.189827419428571,-4.617424590285715,0.9733905591947618,5.277692351714285
3.266782118,-2.0832298426190476,-4.624379101333334,1.0543764657804762,5.244234901666666
3.271704272,-1.9895022256190475,-4.624366953333333,1.1348870877614285,5.212668345809524
3.276626426,-1.9045522270000002,-4.618139846047619,1.2158787043185715,5.184031873857143
3.28154858,-1.824298603190476,-4.609183913238096,1.295507371452381,5.159883812571429
3.286470733,-1.7464797496666666,-4.601999248809524,1.3754760878761905,5.143221394238095
3.291392867,-1.6704176522190477,-4.6031062376190475,1.455240283747619,5.139907120571428
3.29631502,-1.5938268928142858,-4.61501324747619,1.5343960013333333,5.151434518666666
3.301237113,-1.514523225142857,-4.635535932761904,1.6143678995238095,5.175382600238096
3.306159342,-1.427890608695238,-4.669583990523809,1.6934117136190474,5.21397382495238
3.311081426,-1.330534945642857,-4.717057171380953,1.7714239473333333,5.265271771571428
3.316003578,-1.2217573254,-4.779054971,1.842039233238095,5.327775683952381
3.320925706,-1.0963737553047619,-4.853093930666667,1.8960522754761906,5.395992904000001
3.32584786,-0.9582767131761905,-4.938001167190476,1.9320077045714288,5.469559853809524
3.330770014,-0.8123397131761907,-5.029357603619048,1.9518199876190476,5.547357553476191
3.335692168,-0.6598726610333333,-5.1241931574285715,1.9569193693333333,5.628312505809523
3.340614322,-0.5035387093190477,-5.215989828095238,1.9474481345238093,5.7076365254761905
3.345536553,-0.3445150440809524,-5.295494170428571,1.9247865166857145,5.776917098047619
3.350458709,-0.18374142622380957,-5.353560720190477,1.8872257102999999,5.82797775247619
3.355380862,-0.02750290436666671,-5.38080247247619,1.8331629503604763,5.853738941142858
3.360303016,0.12316442810952377,-5.37262012852381,1.7630344754461906,5.848663921666666
3.365225079,0.2683739505857143,-5.332844904571428,1.6799119041319048,5.81516321152381
3.370147231,0.4077810914904762,-5.26246134447619,1.583472284265238,5.752207526952382
3.375069365,0.542734800395238,-5.167265835333333,1.4774670442080953,5.663548275380952
3.379991519,0.6674036085857142,-5.050428311095239,1.3590332848890476,5.552716305619048
3.384913678,0.7791188004428571,-4.9116193,1.2304063791461903,5.41846577347619
3.389835831,0.8792644185380951,-4.7497697842380955,1.0943649961890476,5.2585646083809525
3.394757985,0.9694128447714285,-4.564766600095238,0.9523108953366668,5.071984251857143
3.399680149,1.0457418915428571,-4.356195597509524,0.8039378932319048,4.858252863095238
3.404602303,1.105751558395238,-4.1247173037571425,0.6521332331795238,4.616449626333333
3.409524457,1.1484766062904763,-3.871217209019047,0.4971730393747619,4.3505088706
3.414446712,1.1758578923142857,-3.59534778772381,0.34248975596047615,4.069121658014286
3.419368868,1.1874046538190477,-3.2937227502619044,0.19438908890333334,3.7855203041952374
3.424291021,1.1798554644333332,-2.967781128,0.060926617816190486,3.5124604196809526
3.429213098,1.154257464942857,-2.6213860384761904,-0.054925000544285715,3.2532359236809523
3.43413525,1.1129982754904764,-2.2572933194761906,-0.14979404368714286,3.011274361252381
3.439057404,1.0566227499761904,-1.8790800444285713,-0.2225427104109524,2.7902304238714284
3.443979635,0.9878296539619048,-1.4944427567142857,-0.2739240926347619,2.5928347075857143
3.448901709,0.910574704042857,-1.1091046092380954,-0.3026185690347619,2.4244126373
3.453823938,0.8260931830295238,-0.728773002142857,-0.3069739996395238,2.2856740453
3.458746093,0.7356227088195239,-0.3556134799999998,-0.2881628088714286,2.1790193838238094
3.46366816,0.6422520895257142,0.0037917537619048865,-0.2484914758095238,2.104075684490476
3.468590312,0.5482890412209523,0.3510910911904763,-0.19548047565238094,2.057975260347619
3.473512543,0.4550544226971428,0.6805669027619048,-0.1324240464238095,2.0447654253
3.478434699,0.3649356156971428,0.9932736684285717,-0.06102447407142857,2.061712126157143
3.483356853,0.27829428278761903,1.2915525678571431,0.017709049614285717,2.107146767347619
3.488279007,0.19780052042571422,1.5756118993809527,0.10117605062380954,2.1797071433952384
3.493201098,0.1190022348923809,1.8474228000000001,0.18407976503333334,2.277720541680952
3.49812325,0.041373568449523765,2.1048975232857146,0.2641928609285714,2.3982899693
3.503045413,-0.03023976318380956,2.3472160399857147,0.3408906702809524,2.539901202966667
3.507967567,-0.09673276348380956,2.5715649369952382,0.40934076355238097,2.7010379253
3.512889735,-0.1574011922219048,2.7812934539714287,0.4727733364047618,2.8776140135095236
3.517811889,-0.2149305267314286,2.9751000277238098,0.5304341459857143,3.061444953714285
3.522734043,-0.2692763360076191,3.1520189756904764,0.5830410025238095,3.2400563253428567
3.527656227,-0.3224312898980953,3.311436636142857,0.6298281929966667,3.4045381603809526
3.532578381,-0.37433248136952385,3.4545648665714284,0.668656384652381,3.553956385666667
3.537500611,-0.4246904333742858,3.580789151666667,0.6985213373333333,3.6861829613809527
3.542422767,-0.472643148507619,3.6884699662380958,0.722262242004762,3.7996925248571434
3.547344921,-0.516770243112381,3.779037214428571,0.7419154814238096,3.8955981870476197
3.552267075,-0.5573986234790477,3.854311205095238,0.7573530532,3.975557010571429
3.557189234,-0.5972645280990476,3.9172364984285712,0.7675772451142857,4.042893519285714
3.562111387,-0.6340921478652382,3.966193448904762,0.7725181494333333,4.09573521552381
3.567033541,-0.6647504809380953,4.0053324018095235,0.7694203881904762,4.137242673095239
3.571955618,-0.6894893844904763,4.030511833333334,0.7622120053904761,4.16396101695238
3.57687777,-0.7053692880095239,4.040778125999999,0.7516407668523809,4.174667225
3.581799991,-0.709691002252381,4.0365347408095245,0.737101146147619,4.169155971142858
3.586722147,-0.7020080018619048,4.015468313571429,0.7182301467333334,4.145082456190476
3.591644301,-0.6838135258095238,3.981420698619048,0.6911735747476191,4.10634945547619
3.596566377,-0.6532879057566667,3.933793226857143,0.656163479947619,4.052672962523809
3.601488606,-0.6110239047566667,3.877103737428572,0.6118452412314286,3.989089527095238
3.606410757,-0.5605421425519048,3.8106540838571425,0.5596771933790476,3.9163417679047616
3.611332911,-0.4984608084185715,3.7380405720952377,0.5025497176361904,3.839019399666667
3.616255065,-0.4288815221852381,3.6576441015238097,0.44081309702666666,3.7557891676190476
3.621177123,-0.35068642712333337,3.5706788130952383,0.3761240014980953,3.66900676252381
3.626099352,-0.26697166379952386,3.479046481,0.3080656682695238,3.58071471852381
3.631021382,-0.17893552114238098,3.3879266807142856,0.23947447803142857,3.495112673714285
3.635943534,-0.08597632716619052,3.298262970809524,0.1717900007504762,3.412976936285714
3.640865693,0.010098532148095196,3.2105323473809526,0.10687914329809522,3.334506928761905
3.645787847,0.10860986470047615,3.124404055761905,0.04568433458857143,3.2586483985714287
3.650710001,0.21033100670047616,3.0405527637619048,-0.012683715325714287,3.188110077285714
3.65563216,0.31547895884333327,2.955444676571428,-0.0696925721447619,3.1199492974761904
3.660554314,0.42881591361952376,2.865078335761905,-0.12422261937809521,3.0512926013809527
3.665476553,0.5493923917861904,2.7709175746190473,-0.17519142958285713,2.984562815238095
3.670398709,0.6750231082480952,2.673527904952381,-0.22009485836380951,2.9215337475238092
3.675320863,0.8054080075814286,2.5776538565238094,-0.2589427631923809,2.8663869673809526
3.680242988,0.9388761473385714,2.4838186161904763,-0.2935756688019048,2.8205832133809525
3.685165065,1.0704455712004761,2.395049526571429,-0.32333162019714284,2.785116248142857
3.690087217,1.1983280887195238,2.3094706194761905,-0.3490280489590476,2.759550716095238
3.695009439,1.3235837990290475,2.2230377083809527,-0.3678480012542857,2.742439759333333
3.699931518,1.4445196581761905,2.135684280190476,-0.3778858108638095,2.7318903204761904
3.704853669,1.5619325609380952,2.045620379,-0.379609620297619,2.7276100281428572
3.709775823,1.676131364857143,1.9550242310761905,-0.3735712395990476,2.7312330205238093
3.714697981,1.7868666478809525,1.8612934181047618,-0.36141219177123807,2.7421139879047622
3.719620135,1.8978448822809524,1.7644240856761904,-0.34415100080933336,2.762930181571429
3.724542274,2.0070896432714287,1.6636267524857145,-0.3230969055317143,2.7923310308571425
3.729464505,2.117184218904762,1.5582259939895242,-0.29793690509219045,2.8297279233333335
3.73438666,2.2275540715238096,1.4439218481038096,-0.270256571918381,2.869624938714286
3.739308814,2.336001254238095,1.321890754041905,-0.24084728610742856,2.9085421154761906
3.744230968,2.4423451536666665,1.1950429021847622,-0.20978409557885713,2.946362635142857
3.749153045,2.5456092016666667,1.0664018077085715,-0.1773680002407619,2.9838196875714287
3.75407526,2.6400910615714284,0.9358398570228572,-0.13881342831695237,3.01650730247619
3.758997416,2.724642583285714,0.8064156213704763,-0.09252747547409523,3.0447914354761907
3.763919497,2.7980158158571427,0.6789157656752381,-0.038944477926476186,3.071174920333333
3.768841649,2.8635279621428573,0.5491130504657143,0.01983619082114286,3.0987717511428574
3.773763802,2.9179399127142855,0.4123638623609525,0.08074709693066666,3.1238367705714287
3.778685971,2.9616777783333332,0.2663166221704763,0.1418735731735238,3.1480219600476187
3.783608125,2.9980740206190477,0.11235009883714296,0.2018233841878095,3.174968227
3.788530279,3.030859311380952,-0.04729452192476182,0.2575410965449524,3.2047697432380953
3.793452515,3.0613575094761902,-0.20651042635333325,0.3101505735592381,3.239691165952381
3.798374671,3.0868245646666668,-0.36338423154380944,0.35575766781638096,3.2763008375714286
3.803296824,3.1087555658095236,-0.5172409006866666,0.39070147799257143,3.315569230095238
3.808218968,3.122774283095238,-0.6695291899723809,0.41438900138066664,3.3539954853809526
3.813141045,3.1290940443333333,-0.8242984800485713,0.4270125248773333,3.393780636190476
3.818063192,3.12725909547619,-0.9843311497438094,0.4293119057652381,3.4383298129999997
3.822985346,3.119208438,-1.149673151410476,0.4217922864938095,3.489835182238095
3.827907538,3.107441822666667,-1.3202624870295236,0.4069932871304761,3.550223002428572
3.832829692,3.0921968164761906,-1.4979603921523807,0.38757047784809523,3.619217229095238
3.837751846,3.0740554899999997,-1.6812029168380953,0.3651638103790476,3.6959389860476195
3.842674,3.0578593526190474,-1.870925436395238,0.3421431434014286,3.7833026828571428
3.847596154,3.0453049228095237,-2.0669351574904757,0.31804876189666664,3.8804858075238093
3.852518308,3.035922357,-2.2652722583,0.29100257105380956,3.9835039123809524
3.857440534,3.028430166666667,-2.4654007823761903,0.2596422385966667,4.092048843809524
3.86236269,3.0225694973809523,-2.664164546009524,0.22342180868714281,4.2023053426666666
3.867284844,3.015327601190476,-2.8572798910761903,0.18338328617761904,4.310070253571428
3.872206977,3.002193689333333,-3.0363750231047617,0.14189376096809522,4.406576643714286
3.877129131,2.9837303502380954,-3.196659502571429,0.10525261699619047,4.491120618285714
3.8820513,2.958989586142857,-3.335422226380952,0.07417276058190476,4.561444710904762
3.886973377,2.9243199144285716,-3.452453374904762,0.055762473848571435,4.614872391095238
3.891895529,2.877483577952381,-3.550450608904762,0.05385980843904762,4.651624137809524
3.896817789,2.819745194333333,-3.631598563476191,0.06732152028190476,4.674125437
3.901739945,2.751542903095238,-3.6981103761428575,0.09930399608666665,4.686847545666667
3.906662098,2.6718001876190476,-3.747897988333333,0.15258918329619048,4.690424911809524
3.911584242,2.5848778996666666,-3.7793645972857144,0.22535623239619046,4.686721731761905
3.916506319,2.4920365724952385,-3.7899126439523805,0.3163142770438095,4.6745655239047625
3.921428529,2.392246666366667,-3.773993072142857,0.423105470137619,4.648421557666667
3.926350685,2.2824399953428576,-3.731067782476191,0.5440055660566666,4.6053076200000005
3.931272839,2.1601333745380953,-3.6617301136190483,0.6731426605995237,4.541961637285714
3.936194998,2.0242119470142854,-3.565776876190476,0.8082423739042858,4.458781933238096
3.941117075,1.8764079933057143,-3.4456318731904765,0.943899569432857,4.356710096761905
3.946039303,1.715496470153333,-3.3010935898095233,1.0774981893947617,4.234859171476191
3.950961455,1.541975378610476,-3.138789915,1.207492901094762,4.097017958857142
3.955883532,1.3612542801295238,-2.967164672647619,1.3317060970757142,3.948059881047619
3.960805669,1.1783982284580952,-2.7895307201190476,1.4483774818995239,3.7923917000952385
3.965727823,0.9943950427914287,-2.6130490048380954,1.556863244485238,3.6356715398571424
3.970649977,0.8138940358819047,-2.4385931833238095,1.6576431518042856,3.481653042
3.975572126,0.6390738483390476,-2.270416955214286,1.7508481020852382,3.3345714370476194
3.980494279,0.4691776629247619,-2.1087473801714283,1.8319366737761904,3.196724557
3.98541651,0.30324756778190476,-1.9519536581095238,1.900706956828571,3.0694001991428568
3.990338661,0.14057943044857138,-1.7993978915428572,1.9545990967142859,2.954944533047619
3.995260815,-0.021903807599047673,-1.6528324655619047,1.9938378561428574,2.858540483714285
4.000182969,-0.18668575836095244,-1.5113338899619047,2.018783955380952,2.778749186238095
4.005105013,-0.35225737417047626,-1.3762516039380952,2.0333753824761907,2.715769280190476
4.010027165,-0.5174488542657143,-1.2499533225428572,2.038406338047619,2.671942690190476
4.014949323,-0.6839472825514286,-1.1320748046190476,2.037475097761905,2.6469142277619047
4.019871477,-0.8515030944276192,-1.0214517060428572,2.0303654840952383,2.6367126082857144
4.024793645,-1.018853383775238,-0.9186414182666665,2.016701862952381,2.6401398465714285
4.029715799,-1.1859933368466666,-0.8250010865476188,1.994808145952381,2.6547735244761905
4.034637953,-1.349966008375238,-0.7411006575761904,1.9660271462857142,2.6790063451904764
4.039560117,-1.5085067734704762,-0.6685417521619046,1.928662481761905,2.709291036142857
4.044482347,-1.6615219215238095,-0.6082457545095237,1.8864212376666667,2.747597683380952
4.049404503,-1.811205399847619,-0.5605713760619047,1.8408838056666665,2.796450980095238
4.054326666,-1.9579371128285712,-0.5225827104999998,1.792766996809524,2.8534707553333334
4.05924882,-2.1041605926333333,-0.49113071035714284,1.744426420761905,2.918621656047619
4.064170974,-2.2499337394857144,-0.4638748530857142,1.695623607857143,2.990237245952381
4.069093056,-2.3965812126761907,-0.4379195194904761,1.6470517515857146,3.068815383904762
4.074015208,-2.5455507834809525,-0.414144949547619,1.5983998434761906,3.153898075
4.078937428,-2.699441015747619,-0.3928754748333332,1.5510848930904764,3.247316085857143
4.083859507,-2.8551648685238096,-0.3753712851380951,1.504158894204762,3.348666629
4.088781751,-3.0111260584761905,-0.363932427195238,1.4583954668857142,3.457747532190476
4.093703907,-3.165394345952381,-0.36052985631428563,1.4128684684952382,3.571602760904762
4.098626061,-3.314787206190476,-0.3654286655666666,1.3660963745142858,3.686028263238095
4.1035482,-3.4581735304285712,-0.3802607605904761,1.3180683255190477,3.799443910190476
4.108470277,-3.594075191571428,-0.4034571896047618,1.2651207106238094,3.9069943250476187
4.113392505,-3.7212432452380955,-0.4357292347142857,1.2080151381761906,4.0076507737142855
4.118314661,-3.839217004333334,-0.481874425495238,1.145550710795238,4.101782357952381
4.123236815,-3.948902096047619,-0.5428089975,1.080047709595238,4.191486112285714
4.128158969,-4.0493759881904765,-0.6203523767999999,1.0143551854619046,4.278187713190476
4.133081046,-4.140512364285715,-0.7126678050904761,0.9519756634904762,4.3633796031428576
4.138003275,-4.221951655047619,-0.8175613248714284,0.8966141882428571,4.447966914095238
4.142925348,-4.295840467809524,-0.9307763768095237,0.8504757114619048,4.533645667809524
4.147847576,-4.3613574732857145,-1.0516896624142857,0.8144880476333334,4.620065118047619
4.152769756,-4.420187609619047,-1.1809209003380952,0.7872705260619047,4.708139628952381
4.15769191,-4.473673888714286,-1.3169129987571426,0.7686695286095238,4.7985634127142855
4.162613987,-4.5237290859999995,-1.461294709204762,0.7580474331285715,4.89367102052381
4.167536163,-4.56850793252381,-1.6138743814809524,0.753732431495238,4.9919299980476195
4.172458394,-4.606734934333334,-1.777530763833333,0.7562133840047619,5.093791119
4.17738055,-4.63587983452381,-1.954453664195238,0.7614127652904761,5.198302213809524
4.182302684,-4.655805360714286,-2.146135665161905,0.7690109553714286,5.306377084
4.187224838,-4.665230365047619,-2.3518879924714287,0.7811790960190477,5.417579050142858
4.192146992,-4.6634434064761905,-2.571011517761905,0.798134287195238,5.531482247904762
4.197069127,-4.650871027142857,-2.8013069856857142,0.8203010502047619,5.648201910238096
4.201991204,-4.6270289649047625,-3.0417054267476193,0.8452284335666667,5.766816839333333
4.20691338,-4.592610540952381,-3.289122913609524,0.8737283831333335,5.886400135190477
4.211835534,-4.549999884285715,-3.54336914,0.9064786178380954,6.010338821285715
4.216757774,-4.4973640669999995,-3.8020904802857145,0.9433261893809524,6.136788287380953
4.221679929,-4.43595092647619,-4.06065468,0.987508998,6.265857633666666
4.226602083,-4.3671171212380955,-4.316811436761905,1.0370163321047619,6.396460525380952
4.231524156,-4.293702897714286,-4.564099777380952,1.0913249991904763,6.525434041904762
4.236446385,-4.217406431952381,-4.803804692857143,1.148773474304762,6.654048774047618
4.241368541,-4.14266513652381,-5.033001752190477,1.2095206152190476,6.782098612666666
4.24629068,-4.069703227095238,-5.252891563285714,1.271116426952381,6.908625720047618
4.251212834,-3.9967020694285713,-5.462538287761905,1.3331533300666667,7.0324049764285705
4.256134987,-3.9227551166190473,-5.660669190571429,1.396819665257143,7.150130579952381
4.261057078,-3.8474181267142855,-5.847406796095238,1.463184089804762,7.26137319804762
4.265979307,-3.770588545714286,-6.0186665512857145,1.5315069044761904,7.362286459333334
4.270901377,-3.695239839238095,-6.172880740476191,1.6017456706809523,7.453289031714286
4.275823606,-3.6164815086666673,-6.309082599,1.6685478147285713,7.5303790816190475
4.280745685,-3.539898554619047,-6.431182316428572,1.7334264799809522,7.600169297857143
4.285667943,-3.4620725088095234,-6.540495645476191,1.7944786207142855,7.661448276904762
4.290590021,-3.384145225904762,-6.641770658095238,1.852870384761905,7.719042908571429
4.29551225,-3.3048701400476186,-6.734769662285714,1.9085034358095239,7.772114557619047
4.300434314,-3.2245457059523814,-6.822947774714286,1.9624791996190478,7.823956152000001
4.305356774,-3.142624139857143,-6.904134705047618,2.014557912190476,7.871802744571428
4.310278699,-3.057948101190476,-6.980680352238094,2.060769296761905,7.916023197047619
4.315200851,-2.9741625786190475,-7.050887970761905,2.1000098216666663,7.9556825443333326
4.320123015,-2.8935389575714288,-7.114534582428571,2.1310916287142856,7.991016549095238
4.325045093,-2.8166357165238094,-7.1692330950952385,2.1510342472857142,8.018750954904762
4.32996724,-2.744811478095238,-7.215341250095238,2.1616414388095238,8.039384961190477
4.334889394,-2.6770261412380956,-7.256857054571428,2.163926152952381,8.055942697190476
4.339811548,-2.6107585657142858,-7.289692810619047,2.157653678047619,8.063666124714286
4.344733702,-2.5433691853333333,-7.316824368095237,2.1424965858571428,8.064043429238096
4.349655856,-2.473803991333333,-7.336758590904762,2.119853297857143,8.055571199666668
4.35457802,-2.4057883761904764,-7.3494680496190465,2.088308919047619,8.039166229142857
4.359500174,-2.3338060946666666,-7.355944156714285,2.0443005845714284,8.013366212761905
4.364422328,-2.255068568952381,-7.359670729904761,1.9869123527142858,7.980767362
4.369344562,-2.170317950666667,-7.364468778904762,1.9163571085190478,7.945223426666665
4.374266718,-2.0790383304761906,-7.372211955857143,1.832483152552381,7.90881139904762
4.379188872,-1.9841298063476192,-7.381221612285714,1.7400918163095238,7.873417767095238
4.38411106,-1.8830280019904762,-7.384147848380952,1.6383550564666667,7.832252461809524
4.389033214,-1.7758943381571428,-7.376583099333333,1.5283642019409522,7.782567133142857
4.393955391,-1.6625368112523813,-7.35274015152381,1.4067850104219048,7.719393271714286
4.398877545,-1.5495887632999998,-7.311140855095237,1.2715662453790475,7.642397766809525
4.403799704,-1.43642691097,-7.247082937238095,1.119825149417143,7.546974027095238
4.408721858,-1.3245199620566666,-7.162074270571428,0.9543666745599999,7.4355525298571425
4.413643935,-1.2171590537361905,-7.053992793571428,0.78153495756,7.3072127897619055
4.418566164,-1.1144475255738098,-6.9239409536666665,0.605269337512381,7.161964107047619
4.423488243,-1.016496813029524,-6.771457899142857,0.4274530089409524,6.999096001428572
4.428410471,-0.9241128154101906,-6.599878174904761,0.25075738960761906,6.821331182571428
4.433332617,-0.835383860838762,-6.4098467826666665,0.07728447989333334,6.628127254904761
4.438254771,-0.7516074308197144,-6.201701834047619,-0.08938666563047619,6.418311474333334
4.443176925,-0.6729628110054287,-5.978217783380952,-0.2457925686780952,6.19392328947619
4.448099084,-0.599879572081619,-5.739244222571428,-0.3908660449638096,5.954050355809524
4.453021161,-0.5307600022625715,-5.486952043666666,-0.5227504268209524,5.700165901190476
4.457943371,-0.46174100252923816,-5.2212499549523805,-0.6398239513828571,5.4314796564285714
4.462865449,-0.3968432417673333,-4.944807041190476,-0.738743047844762,5.151906647380953
4.467787601,-0.3408997654625715,-4.654604764142857,-0.8194713828733333,4.859474577666667
4.472709755,-0.2912322410340001,-4.349685200576191,-0.8816221436495238,4.553161302195238
4.477631909,-0.25030514453876196,-4.029097400190476,-0.9238877149495237,4.235681521990476
4.482554063,-0.2194554294673334,-3.6937207884142857,-0.9462000476151428,3.920493737409524
4.487476217,-0.1985513823197143,-3.346263839333333,-0.9475571907389524,3.624884602671429
4.492398448,-0.1863381905006667,-2.990020402104762,-0.9297903338418094,3.351247046557143
4.497320603,-0.182942143486381,-2.6282886742,-0.8932560485799047,3.10007788917619
4.502242986,-0.18097195311019054,-2.2647047291047615,-0.8404911914799048,2.870320487842857
4.507164911,-0.18000581042447625,-1.9027940169619044,-0.7723368110465716,2.6625342331285715
4.512087034,-0.17974309612304765,-1.5434520776761904,-0.6921558595037143,2.477268972557143
4.517009188,-0.18228047702685718,-1.1889236618666665,-0.6051540972799048,2.3164420914619046
4.521931243,-0.18573571504447622,-0.8403028043428571,-0.5158726191941904,2.1782118598904763
4.526853472,-0.18754852467923813,-0.49877552396190467,-0.42511043043704755,2.0653172842238097
4.531775627,-0.18390742933428575,-0.16447625477142847,-0.3348342863370476,1.977203208842857
4.5366978,-0.1744177626628572,0.16135803084761915,-0.2461212839894286,1.9147086140333334
4.541619954,-0.15902304804380957,0.4791176014666667,-0.16233442460180952,1.8810284971761906
4.546542031,-0.1405073334676191,0.7875186525142859,-0.08388647385895238,1.8761119786523808
4.551464255,-0.11663638068666671,1.0848457962761906,-0.012334523638952382,1.9008509489380954
4.556386411,-0.09132452393428576,1.3687252693714287,0.054178238437238097,1.9547373793190477
4.561308565,-0.06894819026285719,1.6381588926095236,0.1156841422372381,2.0384840882238096
4.566230704,-0.04749728539619052,1.8920465119428573,0.17301214360866668,2.1474866156047616
4.571152858,-0.025193951800952425,2.1318024603238093,0.22700218978961906,2.2829217132714286
4.576075012,-0.0028766189200000406,2.3552058886142855,0.27931209315152383,2.441807236790476
4.580997161,0.023753429322857105,2.562100461609524,0.33196604445628575,2.621607052947619
4.585919315,0.054105620170476154,2.752688359690476,0.38383294712666666,2.8084118797190474
4.590841478,0.09067395387523805,2.926497643942857,0.43415285218857147,2.984295565647619
4.595763632,0.1301527625133333,3.086720688047619,0.4823038982457143,3.1496536524761902
4.60068579,0.17540752519428565,3.2306312152857144,0.528259851407619,3.3012119664285713
4.605607867,0.22395647835619042,3.3585885877142854,0.5723484236838096,3.439625030761905
4.610530096,0.2757289067690476,3.468911534285714,0.6119354729266666,3.562456948904762
4.61545218,0.3319269529828571,3.5599790641428575,0.6460167560028571,3.6679618072857143
4.620374332,0.3950269555185714,3.631408305380952,0.6752527079695237,3.7557555333333332
4.625296563,0.46739495685,3.6857840219999995,0.6984966617552381,3.8286201793809522
4.630218714,0.548009575797619,3.720241773666667,0.7122241372457142,3.8846634873809527
4.635140867,0.6348273391666666,3.737277303380953,0.7166636139457143,3.9273824609047616
4.640063021,0.726512675447619,3.73757696147619,0.7103218995328572,3.9583099752857143
4.644985083,0.824598249190476,3.7195564905238094,0.6941788514404761,3.977596037333333
4.649907312,0.9300510585142857,3.6848231042380957,0.6661347567976191,3.987691423857143
4.654829454,1.0397405787619047,3.6352152029047615,0.6252252337442857,3.991028584571428
4.659751531,1.155540342857143,3.5736983049047617,0.5676293776204763,3.9916105814285716
4.664673692,1.2805773481190477,3.5019806793333337,0.4931509940490476,3.99270350847619
4.669595846,1.4154538760619049,3.4251765863809527,0.4043845170919048,3.9992387320952383
4.674518076,1.558954447495238,3.3444105897142853,0.3045473757014286,4.00870838152381
4.679440228,1.7099762587095235,3.2636527787619047,0.19656190188238096,4.022041704095238
4.684362382,1.8657056859238093,3.1836759703333337,0.08102704851095238,4.037522116809524
4.689284536,2.023657442542857,3.1064930756666667,-0.0374208569652381,4.053035052952381
4.69420669,2.1787342514285712,3.0340052672380957,-0.15498528534619047,4.068037158238095
4.699128844,2.331860916947619,2.9638766560952385,-0.27016599915571426,4.081952351809524
4.704050996,2.4785883937285713,2.898886464857143,-0.37898214318428575,4.097056992190476
4.708973149,2.6172984384285716,2.839858236714286,-0.4783676686938096,4.113862222142857
4.713895302,2.749652822809524,2.7880508104761907,-0.5667206242033334,4.137249136571429
4.718817476,2.872614202047619,2.744654326190476,-0.6402989549414286,4.166786841904762
4.72373963,2.988351242857143,2.7104038965238098,-0.6991674781033334,4.2039356256666665
4.728661827,3.093913958190476,2.6822792802857145,-0.7439353368319048,4.244617419904762
4.733583981,3.1880500543809527,2.658845810714286,-0.7730377651595238,4.287257819952381
4.738506135,3.2725782394761906,2.6369545233333334,-0.78850057489,4.329148737
4.743428289,3.3512375241428565,2.6148125785714287,-0.7921827176342857,4.37049656152381
4.748350443,3.4246933800952384,2.589034148714286,-0.7877039075485713,4.409080401571428
4.753272827,3.4939663296666663,2.5564701501428573,-0.77525538382,4.443231214571428
4.758194757,3.5609972363333333,2.5154588166666665,-0.7549190042152382,4.473225132571429
4.763117139,3.624884991380952,2.4679924818095236,-0.7262105292485714,4.498404952523809
4.768039065,3.6837238924285716,2.413796913142857,-0.6899969552961904,4.516775288619048
4.772961125,3.73573927647619,2.3536331994761905,-0.6471250514676191,4.527161786714286
4.777883278,3.781453711619048,2.286903770252381,-0.6004545748580952,4.530007422761905
4.782805418,3.819357236190476,2.2140475795809524,-0.5507538634009524,4.524467545333333
4.787727649,3.8477348145714285,2.1334634338333336,-0.4968426273247619,4.508436530095238
4.792649795,3.8681941940476188,2.0436730981285716,-0.4415870532152381,4.483544495904762
4.797571949,3.882917426857143,1.9425150993952383,-0.38645757734476194,4.4516421885238096
4.802494103,3.890571242285714,1.828750525247619,-0.32814419482095236,4.412019860428571
4.807416246,3.8938042890476185,1.7025017103904763,-0.2666298129733334,4.368986898619048
4.8123384,3.8965206713809524,1.5624079020238095,-0.20346500263523812,4.3270063980952385
4.817260554,3.8976115726190477,1.4084769981,-0.1364376211447619,4.287396307666667
4.822182718,3.899863095523809,1.2359396684333335,-0.06458400474,4.2550625904285715
4.827104872,3.902767147380952,1.0444789568142858,0.012146520469523798,4.230708777333333
4.832027026,3.910134860476191,0.8361618132428573,0.09639509094571427,4.219875772047619
4.836949098,3.9199522449999997,0.6184051445285715,0.18850166388285713,4.222701168285714
4.84187125,3.9332845779047614,0.394633141004762,0.28911342405142854,4.240140545761905
4.846793523,3.9474503426666665,0.16919056114761913,0.39567214290857133,4.26817792447619
4.851715679,3.961140666714286,-0.05346086370952374,0.5058381398133334,4.305530068
4.856637848,3.972601436428571,-0.27044804785238086,0.6177296110323809,4.350759064714286
4.861560002,3.976455291095238,-0.48173038056666667,0.7282101821180952,4.397911838523809
4.866482156,3.9733868212857146,-0.6907887561380952,0.837204183532381,4.446128795238095
4.871404295,3.964186770571428,-0.8990569955190475,0.9434726121514286,4.495271763428572
4.876326677,3.949081193809523,-1.107622855090476,1.0457700402752381,4.544253684999999
4.881248833,3.9313472339047615,-1.3153137553904761,1.143515799427619,4.593554556190476
4.886171002,3.911759853380952,-1.5256238029571427,1.2349681794466667,4.646022498333333
4.891093156,3.8915311836190476,-1.7348752805428571,1.3178127958466666,4.701933756142857
4.89601531,3.870162759476191,-1.942011522695238,1.3910716080704761,4.760593342
4.900937464,3.849189815047619,-2.1443918577238095,1.4541058938190476,4.822710345
4.905859397,3.823998292238095,-2.339254048909524,1.505941276104762,4.884923855142857
4.910781472,3.792365573666667,-2.524181386480952,1.5476583214761903,4.94412806852381
4.915703933,3.751379330904762,-2.6976747214,1.5829447480285712,4.997416963380952
4.920625781,3.698128620714286,-2.858006956952381,1.6138852721904764,5.04211420047619
4.92554801,3.631942578666666,-2.9978975227142857,1.639611465666667,5.074150751571429
4.930470135,3.5533492905238093,-3.1177484307142853,1.6617804141904762,5.0932788458095235
4.935392289,3.460379288238095,-3.216944194904762,1.680515891095238,5.096570355571428
4.940314673,3.356983235857143,-3.2989859126190475,1.6969924598095238,5.087887495666666
4.945236829,3.2419940516190477,-3.364406142857143,1.710340698619048,5.06461582452381
4.950158752,3.1154902831904767,-3.4164847986190474,1.7229777915714284,5.029293046238095
4.955081135,2.9767409108095237,-3.4572612784285712,1.7363823199047617,4.983751379857143
4.960003286,2.827509857295238,-3.485596372857143,1.752475801047619,4.929342370571429
4.964925132,2.6734231454380954,-3.502189613428571,1.7732808533809525,4.870743229666666
4.969847361,2.513495096080953,-3.5053488071904764,1.7988852376666664,4.806464093285714
4.97476944,2.3464125735,-3.4931454770952386,1.8306221394761901,4.7349325250000005
4.979691597,2.171787714652381,-3.4693424813809526,1.867204717238095,4.658148112809523
4.984613827,1.9877813349790476,-3.4369942005238094,1.9081425326190475,4.576552109952381
4.989535983,1.796765999202857,-3.3935732953809525,1.9513594422857143,4.489053002428572
4.994458122,1.6019256630790475,-3.343609105857143,1.995123306904762,4.399164422809524
4.999380276,1.4043954757885713,-3.291741961428572,2.040097543190476,4.312114341619048
5.00430243,1.2023693782219047,-3.238485483809524,2.088295681142857,4.22907945595238
5.009224812,1.0005288498171427,-3.184932243142857,2.136688436761905,4.153342915333333
5.014146968,0.8049446150838093,-3.131698948904762,2.1793706757619047,4.081845233904763
5.019069122,0.6156653369885714,-3.0784674711904763,2.2155348686666665,4.014986661619047
5.023991238,0.4332133338457142,-3.0229593344285712,2.242182300190476,3.9508063731904763
5.028913161,0.2565540960361904,-2.9670705794285714,2.257884491047619,3.8904149025238093
5.033835318,0.08301300427428565,-2.9094412893809523,2.2619805903809524,3.8326913250000003
5.038757472,-0.08814227815428578,-2.8507354712857143,2.2545517342380954,3.77872151447619
5.043679611,-0.25911470491619054,-2.7884045100952384,2.236703498,3.727063232476191
5.048601764,-0.43119179872571434,-2.725016945857143,2.210131259142857,3.6801964044761903
5.053523918,-0.6041778917257145,-2.6606225229047618,2.1774646838095237,3.6395271608095237
5.058446101,-0.777770175344762,-2.5933301902380954,2.1427328245238093,3.607100809476191
5.063368255,-0.9496237914495238,-2.525015053238095,2.104290252571429,3.581798402285714
5.06829064,-1.1221929783542859,-2.4559572877619047,2.0639483417142857,3.5648462821904765
5.07321281,-1.2931541653304763,-2.389291763238095,2.0215112878571424,3.5571868791904766
5.078134963,-1.4609982593209525,-2.3278235707619044,1.9767123403809523,3.559751521142857
5.083057117,-1.626966636282857,-2.2704909926190475,1.929676669,3.572355625142858
5.087979271,-1.789240161609524,-2.2168181339523807,1.8812512386666667,3.592836656428571
5.092901194,-1.9490929714523813,-2.1690775609523807,1.8315236625714288,3.622499179190476
5.097823346,-2.10759211442381,-2.1269430319047617,1.7833348001904763,3.6610988729047618
5.1027455,-2.263880786466667,-2.0882788896190476,1.7349747021904762,3.704898120904762
5.107667654,-2.417462266661905,-2.0506276062380953,1.685318611904762,3.751680836904762
5.112589808,-2.5687521810190477,-2.0158596549523806,1.635204899857143,3.8028126182380952
5.117511961,-2.7237634205238095,-1.9818672281904763,1.5889104263809524,3.8615555263333334
5.122434115,-2.8811113664761905,-1.9506647018571428,1.543098568904762,3.9264440814285715
5.127356264,-3.0399919465238097,-1.9245071297142853,1.4991273255238096,3.999491092285714
5.132278418,-3.2001837151904757,-1.9045248371904764,1.4567772319999999,4.081965499857143
5.137200803,-3.3587396201904767,-1.8903831300000002,1.417093469952381,4.172566728523809
5.142122969,-3.5128357750952377,-1.8817626635238096,1.3797603731904762,4.268779890190476
5.147045122,-3.6624964531904762,-1.884379523142857,1.343549228857143,4.372345672428572
5.151967276,-3.807178077190476,-1.8972255616190477,1.3093874681904762,4.481606763761905
5.156889208,-3.9446292263809526,-1.9208937997142859,1.2782011827142856,4.593761297666667
5.16181136,-4.074532554238095,-1.9593890394761904,1.2480523246190476,4.709067456809524
5.16673375,-4.198390654142857,-2.0111214717619044,1.2208733729523809,4.827925505904762
5.171655906,-4.313714174999999,-2.0722165221904763,1.1977841854761904,4.946171063666666
5.176577829,-4.421430996523809,-2.1419808524761903,1.176580713,5.063552101
5.181499981,-4.523261717428571,-2.2191378503333334,1.1583475215714285,5.181082820238095
5.186422365,-4.618073247761904,-2.3025116637142853,1.1434549490952381,5.297248841285715
5.191344545,-4.707693576809524,-2.392513190047619,1.1305338541904764,5.413264648190475
5.196266699,-4.792238950714286,-2.4886306638571427,1.120114139142857,5.529260099666667
5.201188853,-4.871704862190477,-2.589646997952381,1.1129282826666667,5.64463013052381
5.206111021,-4.945400521857143,-2.6943352847142856,1.1083176192857143,5.758473060904762
5.211033175,-5.0142305691904765,-2.804993606761905,1.1059417157142857,5.872311831952381
5.215955328,-5.0757960364761905,-2.921406808380952,1.1062276704285714,5.9846749858571435
5.220877224,-5.129636174142857,-3.044263482142857,1.1076408568095237,6.094760609571428
5.225799375,-5.176315557380953,-3.1736720971428567,1.111369382761905,6.204033135095239
5.230721543,-5.216287839952382,-3.310307798,1.1144815286190475,6.312806925285715
5.235643697,-5.246931893476191,-3.4549612772380955,1.119167623095238,6.420305009904762
5.240565851,-5.2676804179523815,-3.611729179142857,1.1245240484285712,6.528813535142857
5.245487995,-5.278993742857144,-3.7819671744761907,1.1325966233333333,6.640630085523808
5.250410149,-5.279514358238096,-3.962822278333333,1.144049337952381,6.7541629921904764
5.255332298,-5.2697125844285715,-4.153953245666666,1.1586271467619045,6.869928210761905
5.260254682,-5.2510856220476185,-4.355926332,1.1765199104761905,6.99095009247619
5.265176838,-5.221043246190476,-4.562454132809523,1.196389624047619,7.112078612952381
5.270098963,-5.179511569857143,-4.774216118333333,1.2189836729047616,7.234328106666665
5.275021117,-5.128126439666667,-4.994509345,1.2441298166666666,7.361476258428571
5.279943271,-5.0668130035238095,-5.219675768,1.2734778608095239,7.491634231333334
5.28486518,-4.997432992619048,-5.448100407904763,1.3076376233333333,7.6242696141428565
5.289787332,-4.918770086238096,-5.677036421666666,1.346086814238095,7.756323075238095
5.29470948,-4.832796369333333,-5.904066199380952,1.3884324289047618,7.886576289142857
5.299631865,-4.741138140428571,-6.124144190857144,1.4336203847142859,8.011043742857144
5.304554021,-4.643936089190476,-6.337463651428571,1.478907148,8.12972402095238
5.309475959,-4.545086667714285,-6.542040166428571,1.525883475904762,8.243058424952382
5.314398111,-4.443806421238095,-6.738507179999999,1.5737640914285713,8.350530300095238
5.319320265,-4.343754280190476,-6.922604515428571,1.622791716,8.450873655571428
5.324242639,-4.243681907666667,-7.093733038190475,1.6723280463809524,8.542159279714285
5.329164795,-4.141650722142857,-7.251072520238095,1.7218741405714286,8.623255781047618
5.334086963,-4.0354850065238095,-7.394594101619047,1.7711878106666668,8.69286147647619
5.339009117,-3.927332037952381,-7.523008391952381,1.818673622,8.750897706142856
5.34393104,-3.8190082254285715,-7.634877590904763,1.8643462430476192,8.797410836142856
5.348853178,-3.7131208464761905,-7.726806981190476,1.9047723327142856,8.829576687571429
5.353775332,-3.608965646619048,-7.798705555142858,1.9346013806666666,8.845658288857143
5.358697467,-3.5064025606190476,-7.852534839095237,1.952615238333333,8.846757337619048
5.36361962,-3.4079095635714287,-7.886844566904763,1.956928048761905,8.832278193619047
5.368541774,-3.3153782798571436,-7.906034038190476,1.9505014816190476,8.807254350000001
5.373463928,-3.2317177680952383,-7.9080097561428575,1.9341062874285715,8.770643136619048
5.378386082,-3.155392090380952,-7.890139852238096,1.9074969063809524,8.719027726761905
5.383308245,-3.086917990619048,-7.854375430476192,1.8715722900809526,8.653973625904761
5.388230629,-3.023050330857143,-7.7995041210952385,1.825546954295238,8.57234152204762
5.393152785,-2.964990331952381,-7.7270668119999995,1.7687597160761903,8.475631631428572
5.39807493,-2.9138280549999998,-7.63977884104762,1.7012430996666668,8.366566212952382
5.402997084,-2.869063241095238,-7.543930802952381,1.6236067655333335,8.250880641
5.407919007,-2.831685338666667,-7.440956592476191,1.5365745254666667,8.130474670666667
5.412841144,-2.7952816713333335,-7.336324214857143,1.4408781010333334,8.008054454619046
5.417763298,-2.7550434385238094,-7.232799961380953,1.3375729127000477,7.884560554095238
5.422685462,-2.7073065326666668,-7.133165336714287,1.229657288276714,7.761169710904762
5.427607616,-2.651830048809524,-7.040204388714286,1.1198806746438572,7.64072902352381
5.432529778,-2.5880316666666667,-6.952478204428571,1.0121046261805238,7.522398320761906
5.437452163,-2.5164726178571426,-6.869129930190476,0.9084489554662382,7.406735521142857
5.442374088,-2.437829670523809,-6.791585309095238,0.8078130948424286,7.295732598428572
5.44729626,-2.3500253871428574,-6.719593025285714,0.7101045708424285,7.1892572089047615
5.452218645,-2.253264194533333,-6.654976118095238,0.6149077166948095,7.0896859427142855
5.4571408,-2.1521952919285714,-6.5981935318571425,0.5271288599824285,6.999733017952381
5.462062958,-2.045311959066667,-6.5465159415238094,0.4467407179162381,6.917012066238096
5.466985112,-1.9325873412380952,-6.499031134904762,0.373934002193,6.840387531857144
5.471907035,-1.8126205802714288,-6.452299004380953,0.3083306668510952,6.766412683523809
5.476829187,-1.6821804799719051,-6.4054813383809535,0.24840800219395234,6.693348354952382
5.481751572,-1.5455525788100002,-6.359195073285714,0.1935640481772857,6.622280350047619
5.486673728,-1.4039406777385715,-6.312562647190477,0.14330190425347616,6.552335280047618
5.491595651,-1.2561485824909524,-6.26537341152381,0.09539623847728568,6.483556340285714
5.496517803,-1.1038269145909525,-6.218203839666666,0.05147947731538093,6.416442682761905
5.501440192,-0.9471426266385714,-6.171620277999999,0.013281714405857126,6.350385547571428
5.506362348,-0.7840943904814287,-6.121614478761904,-0.0174910468179524,6.2809062945714285
5.511284488,-0.6135914780528572,-6.067696752904761,-0.03994657093700001,6.2073645061428575
5.516206642,-0.4404659044814286,-6.001944564571429,-0.05159576160842859,6.123310351190476
5.521128796,-0.27023300105285725,-5.920757566142857,-0.053027475908476215,6.027025777571429
5.526050953,-0.10683628495761914,-5.821256183428572,-0.04778590464800001,5.915937143095238
5.530973107,0.04785542823285705,-5.701431932857143,-0.03656847618657145,5.788584137
5.535895016,0.1933363788995237,-5.559289069380952,-0.02315233367085716,5.644868010619048
5.540817168,0.3271546647090475,-5.395810626809523,-0.0060782379660952535,5.485997341190476
5.545739332,0.4510657105185713,-5.208351816476191,0.01600290441009522,5.310009873666667
5.550661486,0.5629427545661904,-4.9971256597142855,0.04284976241485713,5.118174566952381
5.555583635,0.6598503759090475,-4.761561700333333,0.07890438178152379,4.9098348831428575
5.560505789,0.7420291360661904,-4.498487466909523,0.12121685803199998,4.682819842047619
5.565427943,0.8100437067090476,-4.2107914771952375,0.16947828390771427,4.445262279809524
5.570350107,0.8650117075899999,-3.8996703742466665,0.2214601415357143,4.2027582858571435
5.575272261,0.9063181365566665,-3.567711944099048,0.27539685540142855,3.9640661184761905
5.580194645,0.9324142322,-3.222426474537143,0.32930637643952376,3.7348811050000004
5.585116806,0.9483418506571427,-2.8652995120133333,0.3808726142895238,3.5187373018571426
5.59003896,0.9552467067333332,-2.5004489909180956,0.42927813881333327,3.3167386308095232
5.594961113,0.9516332801619048,-2.129950611822857,0.4761149968038095,3.133804497333333
5.599883028,0.9394904714952381,-1.7579680941561904,0.5205728546085714,2.9689894678095237
5.604805179,0.9252679489190475,-1.3854397000609522,0.5612899497419047,2.821590284
5.609727568,0.9110717574047618,-1.015802789775238,0.5962269965657143,2.692609698857143
5.614649493,0.8956995180142856,-0.6471185092990475,0.6241579012752381,2.581995276
5.619571669,0.8795411387666666,-0.28290808529904754,0.6421453299514285,2.4947889745238094
5.624493823,0.8616149510095238,0.07434899708190487,0.6488616633704761,2.4292180398571426
5.629416207,0.8432363782190474,0.4225641910819049,0.6437720444838095,2.388486199
5.634338138,0.8252310440238094,0.7587027574152382,0.62714090176,2.37331627947619
5.639260289,0.8079636636047618,1.079740799224762,0.6008308069933334,2.384886858761905
5.644182674,0.7940749980095237,1.3851756052723811,0.5627281872885714,2.42142725
5.649104897,0.7847332358666667,1.6740718480342858,0.5151712349409524,2.4828867384761906
5.654026974,0.7817916217714285,1.9468752795104765,0.4587963288647619,2.5665192142857145
5.658949126,0.7911053811047618,2.200520994796191,0.39401018561714285,2.6712534775714287
5.663871032,0.8121565268190475,2.432309749277143,0.32476542335523806,2.7968462574285717
5.668793184,0.840678291647619,2.644356744324762,0.2511342360552381,2.9362292552380955
5.673715323,0.879027099842857,2.8409635595190474,0.17579490169809522,3.088054977190476
5.678637477,0.9252432414333334,3.0204126182285713,0.10177080627428572,3.2423312590952387
5.68355965,0.9790910510619047,3.187960040047619,0.03026395122190475,3.397245100857143
5.688482035,1.0374985763,3.3430650859523805,-0.03752171488285715,3.5488675802380953
5.693404191,1.1032232897714285,3.4863423677619054,-0.09923757320666668,3.696435275428571
5.698326114,1.1788104772857142,3.61443016647619,-0.15468462228761903,3.836478217619048
5.703248496,1.2619503765285713,3.730624403333333,-0.20454462289714287,3.970079749571429
5.708170652,1.3496325669142857,3.8355771246666666,-0.25006857576380953,4.097101978047619
5.713092806,1.4394281421761905,3.9297189826190477,-0.29170624193047623,4.21740048704762
5.71801496,1.5339306224238094,4.012340500285714,-0.3308282898066667,4.331225373190476
5.722937099,1.6348270518619046,4.080109255666667,-0.3692614314590476,4.436500701952381
5.727859253,1.7459818124761906,4.135966266904761,-0.404866241892381,4.537718246714285
5.732781393,1.8654505269809523,4.176810707333333,-0.4390388124047619,4.631357125761904
5.737703316,1.9914123785095235,4.20342113852381,-0.4691930995142857,4.7169312187142864
5.742625679,2.118342609642857,4.2172151406190475,-0.4972011943714285,4.793543241571429
5.747547835,2.246494894952381,4.217974231285715,-0.5212743835857142,4.861952129047618
5.752469758,2.375985752952381,4.206370841857144,-0.5426059535666666,4.923564930190476
5.757392155,2.5039591789047617,4.184321312619048,-0.5596731432904762,4.978355533190476
5.762314311,2.628483227333333,4.1515762691904765,-0.5756186190142858,5.0263276573809526
5.767236465,2.752966977333333,4.109012229047619,-0.5921135715095238,5.0694634084761905
5.772158618,2.8785381090476188,4.057271753,-0.6064116670999999,5.107823483571429
5.777080847,3.0031341939047618,3.991976317904762,-0.616147143504762,5.1367482845714285
5.782003003,3.126969519142857,3.915696212238095,-0.6245465250285713,5.158950932142857
5.786925138,3.2505931854761902,3.8272312709047625,-0.6315409995333333,5.1739246081428565
5.791846984,3.3747841858095238,3.727543751380953,-0.6359316195809525,5.183006666285714
5.796769371,3.496439956523809,3.6188433738095243,-0.6399447619952381,5.187194321476191
5.801691601,3.6135999475238094,3.5023104350000005,-0.6459225231761905,5.188098584428571
5.806613685,3.727828286952381,3.3787718614285716,-0.6533817606380952,5.186448648333333
5.811535608,3.8388759068095237,3.246890420047619,-0.6616146181380953,5.182470053047619
5.816457991,3.9437732469523814,3.1060159434285715,-0.6675475239809524,5.173822158904762
5.821380147,4.044883773476191,2.957305380333333,-0.6711730474571429,5.164189947619048
5.826302301,4.1408077762857145,2.8030521075714288,-0.6713366678809524,5.154846364666667
5.83122445,4.231513920380952,2.6414438628761907,-0.6710648565095237,5.145945173857143
5.836146604,4.319260495142857,2.475915994047619,-0.669493573052381,5.140816670238095
5.841068757,4.406432844428571,2.306716182504762,-0.6708809052190476,5.142207858714285
5.845990986,4.494920333333333,2.1335723755857146,-0.6742175732333334,5.1505027367142855
5.850913065,4.583013330285715,1.9585339517204763,-0.6791959064333334,5.165591223238096
5.855834974,4.667765242809524,1.7834326700680954,-0.6867343811904763,5.184551982809524
5.860757126,4.7485283443809525,1.6079441938442858,-0.6975011911095239,5.205522815952381
5.865679511,4.822815917857143,1.4361813782823811,-0.7068159069761905,5.2262114969999995
5.870601445,4.887342316809524,1.2700884247538096,-0.7111423839142856,5.24179144152381
5.875523827,4.941770031380953,1.1100040962585715,-0.7088624807047619,5.250613470095238
5.880445983,4.98415186295238,0.9561449534966668,-0.6985618614428573,5.251154057619048
5.885368118,5.016179924952381,0.8053016681061906,-0.6799529081714286,5.245327153380952
5.890290272,5.0397608393809525,0.6540286162204763,-0.6528331949114285,5.2358534324761905
5.895212426,5.055871123380952,0.49966594902523825,-0.6154037174257143,5.224827473952381
5.90013465,5.066281068904762,0.3402335207871429,-0.5680180972066667,5.214989510666666
5.905056729,5.072276546857142,0.17726513502523822,-0.5092161921733334,5.208756919761905
5.909978957,5.075132165619047,0.012741232596666792,-0.44207166769238093,5.206189886809524
5.914901099,5.076449030904762,-0.14817967121285702,-0.36705409342571427,5.208534782190476
5.919823176,5.076904841809524,-0.2982973353557141,-0.28906804602571434,5.214722207714286
5.924745323,5.071070080666667,-0.438257715165238,-0.20793347695904763,5.218276564809524
5.929667554,5.055482455619047,-0.566528290165238,-0.12634876226380953,5.2145875134285715
5.934589648,5.026135603523809,-0.6833884840414284,-0.045552236654285726,5.198843018142857
5.9395118,4.9795024961904755,-0.7912731493557141,0.036827904879047614,5.167982816047619
5.944433953,4.913434914095238,-0.8936379576699998,0.12291847814571427,5.121392417571428
5.949355906,4.830889531428571,-0.9917906689414285,0.21086076334095236,5.061605644047619
5.954278289,4.735613062142857,-1.0871613352666667,0.30050747741238093,4.992704875714286
5.959200214,4.631865717,-1.1829233368999998,0.38976023602190474,4.918511628047619
5.964122612,4.523572047428571,-1.2808790023428571,0.47766723529333327,4.843610231047618
5.969044768,4.413183904714286,-1.3844232403999999,0.5616998077457143,4.772759969190476
5.973966922,4.305005470809524,-1.4975058068238094,0.639803523212381,4.712197130857143
5.978889075,4.200862282714286,-1.6214387573761904,0.706059047255238,4.664033720428572
5.983811229,4.099865220761905,-1.755583570185714,0.7578762855885715,4.629103855761905
5.988733392,4.001023928285714,-1.8961061921285716,0.7945947137219046,4.605464778428571
5.993655546,3.9026908760476196,-2.0371084327666664,0.8179162371857144,4.589248534190476
5.9985777,3.8012923966666663,-2.1755395731428573,0.8276123319476192,4.576924033714286
6.003499854,3.6955419721428573,-2.306639472761905,0.8272029019619047,4.563977581142858
6.008422008,3.58234998152381,-2.4291735207619047,0.8214590436,4.546499999761904
6.013344166,3.459449120904762,-2.5458837578571427,0.8144668056952381,4.524153137238096
6.018266319,3.324120686142857,-2.6575732345714287,0.8088519459999999,4.494639979333333
6.023188472,3.1801432484285717,-2.769149138904762,0.8064711377619047,4.462922121190476
6.028110703,3.0292239529523806,-2.8824502855238094,0.8079730953333333,4.4321666917142855
6.033032859,2.875093096761905,-2.9980803785714283,0.8155183791904763,4.4067670978095235
6.037955013,2.720662661952381,-3.1159729958095235,0.8305872337619048,4.390184258095238
6.042877156,2.5707596228333336,-3.232885985238095,0.8508017119523809,4.3839974592380955
6.047799233,2.426893052604762,-3.3417094095238093,0.8748137552857143,4.384676470666666
6.052721385,2.288087572390476,-3.4410201766190474,0.9041988054380952,4.389856202095238
6.057643539,2.1504189031809524,-3.528813078380953,0.9362875165904763,4.393883173761905
6.062565708,2.0092365742142855,-3.6042942660952377,0.9746509477904762,4.394556752190476
6.067487862,1.8636508087904762,-3.6652983598095235,1.0203203757095236,4.389385540428571
6.072410016,1.7124017121,-3.7079799289523807,1.0733000919238096,4.3763356117142855
6.077332184,1.5533428524380954,-3.7321069354761898,1.1324046622333332,4.354991770238095
6.082254338,1.3859206202571428,-3.7368745123333333,1.199044429061905,4.324409211809523
6.087176492,1.2136846232999998,-3.7242100353333334,1.2700387125142858,4.287327817095238
6.092098722,1.035853910147619,-3.6976316089523804,1.3482176178190477,4.247745856142857
6.097020801,0.8526726186238094,-3.659967751809524,1.431829426890476,4.207273914142857
6.101942953,0.6664419080523809,-3.6136962346190478,1.518066812057143,4.168893147142857
6.106865174,0.48106242562380946,-3.5611729962857144,1.604327045642857,4.132774317857143
6.111787253,0.2997567106238094,-3.5062204202380953,1.6858213316142856,4.100436437190477
6.116709477,0.12289680952857135,-3.4475194272857137,1.7613730884000003,4.071484915095238
6.121631556,-0.049820812804762,-3.3891989958095237,1.829655136285714,4.049037027523809
6.126553722,-0.22006814618571435,-3.3293325674285708,1.8910215694761905,4.0306031006190475
6.131475876,-0.39122699923333343,-3.267000232428571,1.9440939425714288,4.0152400474761905
6.136398107,-0.5625783299,-3.202185562714286,1.9886221374285715,4.002379479428571
6.141320277,-0.7350082775190477,-3.1354358423809523,2.025494944428571,3.9919286531904756
6.146242354,-0.9095231360190477,-3.069798901,2.055963419666667,3.9867320598095235
6.151164505,-1.0850889946952382,-3.0074122406666666,2.079361472761905,3.988165911333333
6.156086751,-1.2620142792428573,-2.950330382333333,2.0960437115714283,3.997202823380952
6.161008907,-1.4405408482238096,-2.899546770857143,2.107358711047619,4.015889138285714
6.165931061,-1.6184139856857143,-2.8550332955238096,2.1111718529047616,4.043362107476191
6.170853181,-1.7971535093095237,-2.8179082529999997,2.1075544243333333,4.080866355142858
6.175775258,-1.9740423667142857,-2.791997830095238,2.0944207565714286,4.129779500190476
6.1806974,-2.148793461814286,-2.7768352599523807,2.073164661714286,4.189950080904762
6.185619553,-2.3206707949190477,-2.7744698297619044,2.045222231285714,4.262086888428572
6.190541716,-2.489514419057143,-2.781938019238095,2.011609662142857,4.343324666571429
6.19546387,-2.6544837441428575,-2.798446394142857,1.9708686612857143,4.431037289809524
6.200386024,-2.8153151785238095,-2.82389568147619,1.9228298550476188,4.523865109380952
6.205308197,-2.96957845352381,-2.858067444380952,1.8682683762857142,4.61962022604762
6.210230351,-3.1219143924761905,-2.900287208095238,1.8074207135714286,4.719779408809524
6.215152505,-3.275031538285714,-2.9484032108571427,1.7415801428476192,4.82457177247619
6.220074735,-3.427768099904762,-3.0034604867142853,1.6696830051190474,4.934396347619048
6.224996891,-3.577719433,-3.0618463924761903,1.592755862657143,5.04558060252381
6.229919045,-3.7247650623809525,-3.1266754468095237,1.511401429095238,5.160448366952382
6.234841165,-3.8654881205238096,-3.1959463073809524,1.4278416719,5.27666241895238
6.239763242,-4.000691368476191,-3.2717580681428573,1.3424916693333333,5.396198019952381
6.24468539,-4.129700183904761,-3.352677549619048,1.2574901950190476,5.517914809047619
6.249607544,-4.252071460142857,-3.438296125047619,1.1729271014857143,5.640769679476191
6.254529682,-4.3691876957142854,-3.5307067462380948,1.0907237657714286,5.76684054057143
6.259451836,-4.4804186594285715,-3.629116796333333,1.0107920496333334,5.894851280619047
6.26437399,-4.584076041285714,-3.7342464129047617,0.9323192423523808,6.023993528714286
6.269296168,-4.681553908761905,-3.846581947238095,0.8581304798666667,6.155667281904762
6.274218322,-4.769463947809524,-3.9652402400952376,0.7844326240761904,6.286196696047618
6.279140476,-4.848526330190476,-4.0898945104285716,0.7147201949190476,6.416323353
6.284062712,-4.918437140333333,-4.219061420095238,0.6467653385290476,6.544186521095239
6.288984867,-4.978098278952381,-4.352953978952381,0.5802585271590476,6.669401225666666
6.293907021,-5.027783711761905,-4.490742013571428,0.5168037178595237,6.791618151333334
6.29882917,-5.067998091380953,-4.6298659756190474,0.45728557610095233,6.909690532523809
6.303751324,-5.098905608761904,-4.768656310571428,0.4022272403095238,7.022719805333334
6.308673478,-5.123070285428572,-4.9055397397142855,0.3515614766204762,7.131756515904762
6.31359556,-5.140437353238095,-5.041664691238095,0.3061150963504762,7.237274481380953
6.318517712,-5.151184876761905,-5.177261965666666,0.2671587628647619,7.3393904398571435
6.32343987,-5.155609562285714,-5.314037913428571,0.23526028561714288,7.4397101600000015
6.328362024,-5.153208709904762,-5.45225034447619,0.2099758093933333,7.537965256619048
6.333284178,-5.144297985809524,-5.591560954190476,0.1935029049409524,7.634270509333334
6.338206341,-5.1274795532380955,-5.736092136095238,0.18507433416952382,7.7310543594285726
6.343128572,-5.1029473032380945,-5.883475894095238,0.18560633400761906,7.82689397352381
6.348050728,-5.070434865476191,-6.032620407333333,0.19338157258857144,7.92089173047619
6.352972892,-5.030354295428571,-6.181756678095238,0.20950052479333334,8.012217813238095
6.357895045,-4.980604239809524,-6.331186203761904,0.23152276217428572,8.100242799380952
6.362817199,-4.923181238571429,-6.481555530047619,0.2593909989885714,8.187170645333333
6.367739252,-4.857566333904762,-6.630338918666666,0.29676209514571433,8.271380653619048
6.372661404,-4.78323438047619,-6.777416887809524,0.3421387613933333,8.352564866
6.377583558,-4.70444029847619,-6.920282636428571,0.39729909580285716,8.430980376380953
6.382505712,-4.623834053619047,-7.0559723491428565,0.4593249553885714,8.505151587476192
6.387427881,-4.539955479666666,-7.1800720351428575,0.5288221926357143,8.570130446047619
6.392350034,-4.455667200428572,-7.292502789333334,0.6054852381009524,8.627631671809525
6.397272188,-4.373936528142857,-7.394331886761904,0.6879910939719047,8.67950606
6.402194342,-4.293048733619047,-7.4846088319523805,0.7770710959685714,8.724254616857143
6.407116496,-4.214014927428572,-7.565584773190476,0.8718806151885713,8.764217648285713
6.412038727,-4.13487316304762,-7.63510038747619,0.9701145638776192,8.796064770666666
6.416960869,-4.054222776714285,-7.693080062047619,1.0692481362904762,8.818545858666667
6.421883023,-3.969169730190476,-7.736724558428571,1.1663049402619048,8.827569800857143
6.426805176,-3.881711437571428,-7.761995383761905,1.2614962784761905,8.820102831904762
6.431727325,-3.7924681958571433,-7.770973773333333,1.3522786554476192,8.79787367857143
6.436649479,-3.699254001857143,-7.766545114190476,1.433347988652381,8.761616072714286
6.441571652,-3.6048567181428575,-7.750172365380951,1.5040560846666666,8.713946724142856
6.446493729,-3.5079577196190477,-7.726513749142857,1.5652648919666665,8.658667520285714
6.451415972,-3.4094016325238092,-7.696111860809524,1.619097604604762,8.597013426571428
6.456338128,-3.3096903051904767,-7.659294151238096,1.665539128409524,8.529544842666667
6.461260281,-3.2112616925238098,-7.613992282428572,1.7074171786952381,8.45590602795238
6.466182358,-3.112333445333333,-7.554042657285715,1.7433394647333333,8.369285720904761
6.47110451,-3.016025208333333,-7.480577082904762,1.7696550346190478,8.271062857714286
6.476026741,-2.9232880161428576,-7.392107009904762,1.7860247974761903,8.159747076285715
6.480948888,-2.8325670106666667,-7.2916097187142865,1.7937130360000002,8.037285202380954
6.485871042,-2.741970874047619,-7.1833578746190465,1.7935282218571431,7.906750518666666
6.490793196,-2.6548595429047617,-7.070614315285714,1.784685889857143,7.771747285476191
6.495715344,-2.5700411116190476,-6.952007657047618,1.7663907948095239,7.630298753809523
6.500637421,-2.484852438952381,-6.8314543224761906,1.7388653698571428,7.4850236367619045
6.50555965,-2.4004042433333335,-6.7101504689523805,1.701422890047619,7.337202770904761
6.510481734,-2.3165652411904762,-6.587728273333333,1.6559687512380952,7.1867541434761915
6.515403886,-2.2325303384761908,-6.465080851619048,1.6075724192857146,7.035349833476191
6.520326044,-2.146592287809524,-6.345611981,1.5561568963809524,6.88583386552381
6.525248198,-2.057624186809524,-6.234100636999999,1.5021989004761904,6.7428430587142865
6.530170351,-1.961428420904762,-6.135779448904761,1.4452531337714285,6.610202526333334
6.535092505,-1.8567786585809527,-6.052344640047619,1.3848408034952382,6.490377458285715
6.540014736,-1.7461459012428573,-5.981753008666667,1.3235275660380954,6.384042842857142
6.544936892,-1.629985419052381,-5.921415896619048,1.262505040309524,6.289797701380952
6.549859037,-1.507384802097619,-5.863829294809524,1.1996425191714286,6.201014504
6.554781191,-1.3774283253357145,-5.8100213322857135,1.133149330109524,6.119036082666666
6.559703345,-1.2399901359119048,-5.757910773809524,1.0627314732238093,6.0419486254761905
6.564625474,-1.0920857597452382,-5.707555975142857,0.9862927564728572,5.970211751190477
6.569547551,-0.9353951906023811,-5.660814989095238,0.90472313843,5.90690540152381
6.574469785,-0.7736389532214286,-5.616780735095238,0.8201885203014285,5.850480395952381
6.579391864,-0.6076857598404762,-5.5732876912857146,0.7317894719538095,5.798270472666667
6.584314016,-0.4411370933642858,-5.527812412714285,0.6393190900061905,5.747167333238095
6.589236266,-0.276595661554762,-5.475928647047619,0.5442817120109524,5.691740355095239
6.594158422,-0.11504404412619057,-5.417827265476189,0.45081523425380954,5.630286515333333
6.599080498,0.04446866873095229,-5.35278161352381,0.3643204279680952,5.562444789952382
6.604002702,0.20117361677857137,-5.276191052809524,0.28678137853476193,5.483725295904762
6.608924858,0.3556691909690476,-5.189599241380952,0.22041942753952382,5.3956842909523814
6.613847012,0.5080899047309524,-5.08930716047619,0.16508066626190476,5.295114744619048
6.618769161,0.6586810000166665,-4.976743346047619,0.1158280018809524,5.185404877380953
6.623691315,0.8033550967785713,-4.846259446238095,0.0743476188952381,5.0626046378571425
6.628613454,0.9372250456357142,-4.694714636904761,0.04039662020476191,4.924913824333333
6.633535607,1.0567633301595236,-4.517955677761904,0.01272433366190477,4.769030061142858
6.63845766,1.1584347108357143,-4.3128689044333335,-0.006474189019047608,4.593796649333333
6.643379889,1.2448536148309524,-4.079204198780952,-0.018632713438095232,4.402526919428571
6.648302045,1.3169117092119047,-3.8168485861042853,-0.026077140566666657,4.198195448
6.653224137,1.3751516128761903,-3.5300321935042858,-0.028270760376190463,3.992870490238095
6.658146366,1.4158880908761904,-3.218210102694761,-0.025012712304761896,3.789191422857143
6.663068445,1.4406612344523808,-2.886334000742381,-0.017828521895238085,3.5928565523809524
6.667990663,1.4481469505714284,-2.537547141456667,-0.006087997482380943,3.4054593085714284
6.672912819,1.438592428190476,-2.176044851694762,0.008776478827142867,3.2290442995238093
6.677834973,1.4174675713809524,-1.8042205758376189,0.02625557390333334,3.0662891066190476
6.682757137,1.3871105227571427,-1.4265608122661904,0.04368005025966667,2.9203596540952383
6.687679214,1.3506733803142856,-1.047749191742381,0.060445383616809525,2.793546839095238
6.692601428,1.311671282542857,-0.6708143909328569,0.07253285930252382,2.688417256761905
6.697523584,1.273581521847619,-0.2995042590280951,0.07625209831204763,2.607184274
6.702445737,1.2342932848571428,0.06553345468619065,0.06699962105014286,2.551229319761905
6.707367886,1.1959118105190474,0.4200260282100002,0.04586957295490477,2.5199015995238097
6.712289963,1.1576894266238096,0.7650766015433335,0.0126956215882381,2.511156649952381
6.717212207,1.1195683337380953,1.0961135098290478,-0.03383166370557142,2.526027476190476
6.722134363,1.0797728555666666,1.4147315576385717,-0.0876039020865238,2.5623984164761904
6.727056769,1.0430237111857141,1.7144425580195237,-0.1484289995293809,2.6190019824761905
6.731978925,1.0123318575809523,1.9934462235909527,-0.21563837955319046,2.695589281428571
6.736901079,0.9871780929047618,2.251328705162381,-0.2872950934484286,2.794094194190476
6.741823223,0.9680759509142857,2.4883749384052383,-0.3616846646817619,2.913848154952381
6.746745377,0.9542852867238094,2.7032844578957143,-0.43890309504366665,3.048131477857143
6.7516673,0.9478067159619047,2.8987582297904764,-0.5161984778531904,3.193484399571428
6.756589452,0.9450642381523809,3.0726080395238093,-0.5916204313341429,3.337652056190476
6.761511851,0.9512581428190475,3.2284646091428573,-0.6648125282484285,3.4803620278571428
6.766434007,0.9623599506761904,3.3686028435714284,-0.7379166699627143,3.6170811051904757
6.771356165,0.9759360438666665,3.493705789285714,-0.8107914302912856,3.7441012438095234
6.776278319,0.9926348981523807,3.6033269905238092,-0.8831710988436667,3.8605996729047622
6.781200242,1.0142495178190476,3.694976942904762,-0.9527430057912857,3.963091529142857
6.786122389,1.043644235252381,3.7671247550952387,-1.0176446238952381,4.051140692333333
6.791044468,1.0866341420761905,3.819136460714286,-1.0761260985904761,4.12595073152381
6.795966927,1.1414099562761904,3.851073605761905,-1.1265470044714285,4.187251168380952
6.800889108,1.2106446198285714,3.8648455597619047,-1.1690914801047618,4.238664674142857
6.805811031,1.2924479076285713,3.860733520476191,-1.2021284330333333,4.279147723619048
6.810733183,1.3858920960619048,3.8435386590476193,-1.2261265743142857,4.313082412380952
6.815655328,1.4897474817190475,3.8132929008095235,-1.2438376687619048,4.340967127904762
6.820577482,1.6007609055571426,3.77334404,-1.2531360955238096,4.363115101857143
6.82549957,1.7184499587761901,3.721473046809524,-1.2590631927619047,4.379549604619047
6.830421799,1.8372175296333333,3.6634422825238095,-1.258713285095238,4.3923205085238095
6.835343955,1.953533430904762,3.6000021867142857,-1.2525984758,4.400664493190477
6.840266142,2.0699085735333336,3.5295067515238094,-1.2420003811,4.404263695761905
6.845188296,2.187016765285714,3.4517845653809522,-1.2299876184190477,4.403768412904762
6.85011045,2.3073308638095233,3.36915590652381,-1.2163030448142857,4.404041325571429
6.855032604,2.430930342,3.278578610666667,-1.2031845677285715,4.404685518523809
6.859954987,2.5615192935714286,3.1833748477142856,-1.1927574220000001,4.411826166619048
6.864877143,2.695398676952381,3.081044515,-1.1834279440476192,4.420839632142856
6.869799296,2.834678156047619,2.973633612904762,-1.1734128480952382,4.432361820380952
6.87472145,2.9787155332857145,2.8660193851904765,-1.1636995162380952,4.448091260523809
6.879643353,3.1258500076666667,2.7598796628571427,-1.153494326857143,4.467937538238095
6.884565505,3.272820433,2.6574475708571432,-1.145356465,4.493289714952381
6.88948765,3.416707283,2.559344427904762,-1.134171273047619,4.523324561047619
6.894409804,3.546160277857143,2.466864432571429,-1.1173970387619048,4.55141
