Time (s),Linear Acceleration x (m/s^2),Linear Acceleration y (m/s^2),Linear Acceleration z (m/s^2),Absolute acceleration (m/s^2)
0.125193781,-6.70340519824381,-2.7125577022985716,2.808332634467324,7.801769574185714
0.130116163,-6.279183230586191,-2.5623894679080954,2.6227592552673236,7.3383780924238105
0.135038629,-5.856982262895239,-2.414950423765238,2.4348435909244666,6.878186992561904
0.139960862,-5.438101961766667,-2.2665438557414284,2.2457676398578004,6.417744736038095
0.144883321,-5.021591041681906,-2.119460859941429,2.055776642543514,5.9590947917238095
0.149805807,-4.606868550096191,-1.973276482217619,1.8623945496578003,5.503492659319048
0.154728268,-4.193158630020001,-1.8289240575080954,1.6643994560530382,5.052473747071429
0.15965073,-3.78039780534381,-1.6859395366890477,1.4611896017435144,4.606285569090477
0.164573145,-3.3721278855342858,-1.544355969117619,1.2504086036720858,4.167701229666666
0.169495605,-2.9668873469580954,-1.4036520213461905,1.032789320814943,3.7358454638571423
0.174418066,-2.561858045824762,-1.266359738427143,0.8100799886244667,3.3099573293333333
0.179340314,-2.155137553724762,-1.1327382189080952,0.5831227980054191,2.889102688047619
0.184262774,-1.7480947282200001,-1.002795364665238,0.35696118181494285,2.4696052880000003
0.189184939,-1.3399184749819049,-0.8762841768842858,0.13696504170065715,2.047354947809524
0.194107398,-0.9309032217961906,-0.751005513817619,-0.07367462240410476,1.619444548761905
0.199030085,-0.52071392102,-0.6255459449795238,-0.2699597155183905,1.1833313015238094
0.203952318,-0.10681661990571428,-0.5011079969128571,-0.4555662370279143,0.7438551598761904
0.208874759,-0.10598942948380954,-0.5499764263590476,-0.4721991891802953,0.781961186304762
0.213797145,-0.09825938221952381,-0.6012963290904763,-0.48555871242791426,0.8283307324238096
0.218719376,-0.08506747717047619,-0.6530303763523809,-0.49537852195267623,0.8811816191666666
0.223641914,-0.06863657181666667,-0.7030460437190476,-0.5025255222619047,0.9342370185666666
0.228564375,-0.05173390545333333,-0.7488562322761905,-0.5043440936761905,0.9823871282571429
0.233486762,-0.03642295310142857,-0.7928412783809523,-0.5021920459761905,1.0265257851142857
0.238409298,-0.02274642876380952,-0.8359193276666665,-0.5030006170428571,1.0691016375
0.243331685,-0.010535048059047617,-0.880116563452381,-0.5104098064714285,1.1131462617857142
0.248254135,-0.002201571886666664,-0.9209340370619048,-0.5265376170619047,1.1564951236238097
0.253176367,0.0008817137695238116,-0.960118228452381,-0.5499830927285715,1.2014959943619048
0.258098755,-0.0029802861685714267,-0.9949884669714286,-0.5777414710761904,1.2460423145619048
0.263021293,-0.01331423791142857,-1.0253911841238097,-0.6050340916238096,1.2880026552571429
0.26794368,-0.024930760978095233,-1.0518926126476191,-0.6247719001238096,1.3221375868238094
0.272865929,-0.038031711468571434,-1.0771867547523808,-0.6397985206,1.3522166922047618
0.277788388,-0.054092425678095246,-1.0994381847666668,-0.6549883783142858,1.3813623045857142
0.282710742,-0.07418694950190477,-1.1210288008095237,-0.6764600887428571,1.4157778104904761
0.287633202,-0.09649475841142856,-1.1436891357190477,-0.7126958980761904,1.4627894087285713
0.292555644,-0.12072233074952382,-1.165132610595238,-0.7721224725809525,1.5276072245857144
0.297478106,-0.14696480617333332,-1.1892639455666665,-0.8577809944761905,1.614378995347619
0.302400567,-0.17516994972571429,-1.2179658526904764,-0.9737065634095239,1.7251573448238096
0.307322805,-0.20717390271142858,-1.2503035665190476,-1.1166065683761903,1.855534863995238
0.312245265,-0.24618018896761903,-1.2850120409047618,-1.277935089195238,2.000181129904762
0.317167651,-0.2914589042057143,-1.3209740435238095,-1.4567510848285716,2.1551573816190475
0.322089872,-0.3415151914247619,-1.358574804904762,-1.6506104605,2.3203117652380953
0.327012332,-0.39746652560571427,-1.4000301816190475,-1.8588889461904763,2.498124492
0.331934769,-0.4559278099628571,-1.4478739444285713,-2.079816316623809,2.6898246847142855
0.336857156,-0.5154862852628571,-1.498435327047619,-2.312486041219048,2.893561240190476
0.341779615,-0.5758638106914286,-1.5519116096190477,-2.5516581919047616,3.108895897333334
0.346702067,-0.6362439048104762,-1.610533844952381,-2.7952795341238095,3.3369166805238097
0.351624528,-0.6963889997819048,-1.6762717055238094,-3.040620111314286,3.5771167053333333
0.356546761,-0.7563580480238096,-1.746686470047619,-3.2861851227142855,3.825267908333333
0.361469438,-0.8156333310190476,-1.823469797904762,-3.5340639410000003,4.082340907571428
0.36639167,-0.872758854,-1.9081948429047617,-3.7860019831904763,4.348076542380953
0.37131413,-0.9297713779333334,-2.000868417047619,-4.044412357476191,4.623249697190476
0.376236525,-0.9874093816380952,-2.0979657003809526,-4.305319729285714,4.902696141190477
0.381158756,-1.0450140975619047,-2.203329131809524,-4.5644251619047616,5.184505765571428
0.386081216,-1.102097190552381,-2.3129116581428573,-4.814477171190477,5.460873805190476
0.391003677,-1.1552837150523811,-2.4275219951904763,-5.049498558000001,5.726328035428572
0.395926064,-1.2037795214285714,-2.5511869930476188,-5.26515313552381,5.979233291142857
0.400848529,-1.2476750924285713,-2.6848001310000003,-5.459295091095238,6.218271011095238
0.40577099,-1.2860032319857144,-2.8262459380476193,-5.633103767904761,6.443494053380952
0.410693452,-1.3219915145904761,-2.9725428365714284,-5.7869772909999995,6.654482899047619
0.415615607,-1.3580461825857144,-3.120809702666667,-5.922466016809524,6.851457905333334
0.420538144,-1.3951427056904762,-3.2682638395238093,-6.040331931238096,7.033915323380952
0.425460531,-1.434349894557143,-3.4167498406666668,-6.137819880428571,7.201017892857142
0.430382985,-1.4713969912333333,-3.5663704077142855,-6.214340822952382,7.352002097761905
0.435305447,-1.5057432794047618,-3.7167669704761903,-6.270554360809523,7.487568449666666
0.440227908,-1.5392269946857144,-3.8685432502380954,-6.303605488285714,7.606222818666667
0.445150112,-1.5678961845238095,-4.020117067142857,-6.313705716714286,7.706936801333332
0.450072572,-1.591186568904762,-4.1684025015238095,-6.298220316476191,7.78601307452381
0.454994949,-1.6060103292380952,-4.312347888952381,-6.254172461285714,7.840639752333333
0.45991718,-1.6112290451428575,-4.452445404904762,-6.178483440666666,7.869284940190477
0.464839894,-1.6068125226190477,-4.589238552857143,-6.069400480714286,7.8719626122857145
0.469762127,-1.5915643318095238,-4.72463084404762,-5.927222581047619,7.852547467904761
0.474684587,-1.5620054745238097,-4.859142224047619,-5.7554306415714285,7.815337704428572
0.479607043,-1.5186293296238094,-4.997274080952382,-5.556241364666667,7.767407596904762
0.48452943,-1.4646424226333334,-5.133619830761905,-5.336071071095239,7.711335204619047
0.489451889,-1.4046059024666666,-5.267336970333334,-5.109406346285714,7.652718759761903
0.494374136,-1.3402145690142857,-5.395231054,-4.885559910761905,7.594810096380953
0.499296596,-1.2705309037142858,-5.518488429904762,-4.675619568047619,7.543847152857142
0.504219057,-1.193802666547143,-5.636987708952381,-4.484585001285715,7.503688696285714
0.50914143,-1.1123451924995238,-5.751000222761904,-4.309452942380953,7.473030568047619
0.514063889,-1.0282830518757142,-5.863260700619048,-4.148489600095239,7.451745834904761
0.518986332,-0.9451901927471428,-5.976425443380952,-4.001995166142858,7.440586803809523
0.523908565,-0.8596567639852379,-6.089117776809523,-3.8694502512380957,7.4377907573333335
0.528831043,-0.7593654323661905,-6.197076070904762,-3.751551503190476,7.441558143857143
0.53375343,-0.6356468584138095,-6.29824960804762,-3.644958359809524,7.450541364095237
0.538675661,-0.48585590722333327,-6.3875439508095235,-3.540826547666667,7.458634640999999
0.543598129,-0.30558876055666667,-6.465587525190476,-3.4304402214761907,7.465038986619047
0.548520591,-0.0863934741280952,-6.537582420238095,-3.3003386088571434,7.475823665666667
0.553443052,0.18537081563380953,-6.61283284147619,-3.1340412412380956,7.50837589552381
0.558365519,0.5149644286814286,-6.69980226247619,-2.920733423461905,7.587161703857142
0.563287906,0.8966486184433334,-6.800513789809524,-2.6519741501285714,7.726892946095238
0.568210365,1.3158420963004762,-6.908071926666667,-2.328637151509524,7.925188417761904
0.573132608,1.756519035205238,-7.014905975,-1.9708121447476192,8.171734733666668
0.578055067,2.206212419824286,-7.113623346619048,-1.6019215640333333,8.448609000190476
0.58297744,2.65669334073381,-7.198763688428572,-1.2446276176047617,8.736299172714286
0.5878999,3.101357881457619,-7.26726836252381,-0.9114520038428571,9.017268654666667
0.592822136,3.5339734028623813,-7.322028182809524,-0.6034877243190474,9.277264824809524
0.597744596,3.950474040790953,-7.363429818857143,-0.3202357235095237,9.511576050238094
0.602667057,4.344595097300477,-7.394230252238096,-0.05070891265238085,9.71659924952381
0.607589416,4.71570218632381,-7.415429319666667,0.2093828576333334,9.892542257285713
0.612511876,5.066810651133333,-7.428086008380952,0.4630668106809525,10.044632835761904
0.617434414,5.407746510080952,-7.433750447809523,0.7196862300619048,10.180409998095238
0.622356815,5.752894784666667,-7.437965801809523,0.9941921859190476,10.31242417752381
0.627279274,6.110611597619047,-7.451581796047619,1.2926963682047619,10.457879953238095
0.632201444,6.477433749523809,-7.482168197666668,1.6088827054428572,10.627257093666666
0.637123827,6.842671746190477,-7.525129704238095,1.9374054216809524,10.817097719047618
0.642046288,7.199696983523809,-7.584370022714286,2.2711877085380956,11.032622572380953
0.64696853,7.543982766809524,-7.659316289952381,2.594630088157143,11.273283397190475
0.65189099,7.865915048571429,-7.747782412,2.8887728566333335,11.53458793152381
0.656813465,8.153300262761904,-7.840523833285715,3.13199009782381,11.801127388000001
0.661735927,8.40025690652381,-7.923788343142857,3.309582812476191,12.048642688095239
0.666658313,8.61439125904762,-7.994391668380952,3.402144239095238,12.26365755095238
0.671580759,8.810759158809523,-8.053203900666666,3.4025429544285712,12.44403514095238
0.676502992,8.991351741190476,-8.099762053714286,3.3281923816666668,12.587519638095237
0.681425682,9.157427674714286,-8.133593831714284,3.207728851428572,12.70026019952381
0.686348146,9.306305590380953,-8.151233582238095,3.071983621238095,12.786443406190477
0.691270376,9.441479342761905,-8.153969583,2.9417175338095243,12.856298364761905
0.696192769,9.570333912714286,-8.140519051285715,2.8325789201428573,12.919551794761906
0.70111523,9.694814705095238,-8.10793095538095,2.7522818247142857,12.978429738095237
0.706037482,9.817608038904762,-8.047942956238094,2.7052700632857145,13.030444224761906
0.710959942,9.933959189428572,-7.953257174666667,2.6922441096190477,13.067822952857144
0.715882328,10.059752601142858,-7.834638504714285,2.714776584047619,13.110407272380954
0.720804788,10.194028605238096,-7.689219066047619,2.767056783,13.156969192380952
0.72572725,10.318307536809524,-7.506327436095239,2.831368310047619,13.185069290476193
0.730649725,10.417673702190475,-7.276991776047619,2.9031535102380954,13.179120433809524
0.735571958,10.483596848047618,-6.995576177333334,2.9889934743333333,13.13445214047619
0.740494417,10.518937293428571,-6.671881760904762,3.0890909035238097,13.060951544761906
0.745416869,10.528701919333335,-6.3123183477952365,3.195536193333333,12.963307107619048
0.750339256,10.515141805904761,-5.920457607276191,3.3091752869523807,12.845018790476193
0.755261715,10.482541948047619,-5.49838910857619,3.4339003335714287,12.710869082857144
0.760184173,10.434027172952382,-5.052067408285715,3.565698532809524,12.562863192380952
0.765106405,10.371449925190475,-4.5867409458,3.6893372421904758,12.39894905714286
0.770028792,10.295856340142857,-4.104770479480952,3.799932105190476,12.217226820952382
0.774951331,10.201443581714287,-3.6104102539095235,3.886620339857143,12.010651575714286
0.779873722,10.091981025285715,-3.108999667433334,3.946952763,11.785747916666665
0.784796182,9.962554114571427,-2.6104900390047616,3.978591237666667,11.543032953333332
0.789718643,9.81905914547619,-2.1207683320523807,3.9711562848571424,11.290876524619048
0.794640876,9.662707329238096,-1.643359378004762,3.9241733266666667,11.034777281142857
0.799563336,9.494030430619048,-1.1785129486238095,3.8419481813428575,10.779448611190478
0.804485722,9.312412512238094,-0.7286030799571429,3.7289085593523814,10.529500231380954
0.809408192,9.119909355190478,-0.29476856124285716,3.5839221285333336,10.290526861142856
0.814330653,8.926948297952382,0.11734257351904762,3.409750555914286,10.073638843857143
0.819252886,8.735132126857144,0.5102124434238096,3.2099917424380955,9.868018750095237
0.824175312,8.533040069619048,0.8810940576619049,2.9869481190095235,9.659644024619048
0.829097698,8.320725282095239,1.2258702907095238,2.7486723526761905,9.449927830095238
0.834020221,8.099334966619049,1.5430364715190477,2.496427965342857,9.236646721666666
0.838942682,7.881271044428571,1.8293716673285716,2.2253936224380952,9.025758479428573
0.843865135,7.675058228666667,2.103427097185714,1.9217880489142858,8.832288873333333
0.848787368,7.455491520142857,2.3639109127428575,1.6118888550095238,8.629545120285714
0.85370975,7.228980563952381,2.599469916414286,1.3012981450333332,8.413468077285714
0.858632207,6.995920272095238,2.812059572714286,0.9940885724190475,8.181882927285713
0.863554668,6.754468599952381,3.0049739593285714,0.7017195631366666,7.936557594428572
0.868476901,6.50670335404762,3.177257205747619,0.44214052052714287,7.688372467190478
0.873399606,6.255316075809524,3.32780858447619,0.22690656729857142,7.445073000047619
0.878321838,6.007390408285714,3.45561515147619,0.07065033439380954,7.220344436714286
0.883244298,5.769784632190476,3.5627835307619042,-0.026304096463333322,7.020303032857144
0.888166685,5.554072357333333,3.6552935327619047,-0.06692275451095239,6.8547694697142845
0.893088915,5.365098113095238,3.7323851017142857,-0.05198399698714287,6.724780971666666
0.898011366,5.208720979190476,3.794314861238096,0.013397246155714275,6.630247513714287
0.902933752,5.083745933666667,3.8396271410000002,0.12268448967,6.565543708333332
0.907856216,4.986932981523809,3.8697441872857143,0.2670035393271428,6.5244639844285715
0.912778678,4.913604123190477,3.8876474698095236,0.43910068300333327,6.500685257190477
0.91770091,4.853092375190476,3.895972989809524,0.631162254812857,6.4830593381904755
0.922623384,4.78172819947619,3.905101935,0.8262684432414286,6.455150667190476
0.927545845,4.707575162190476,3.918899456571429,1.0116019222890476,6.424806140761904
0.932468232,4.636841751190476,3.934959649952381,1.1784137744795238,6.395703323047619
0.937390755,4.569291046571429,3.9566876660476193,1.3225422503366666,6.37088970804762
0.942313141,4.494155531761905,3.983273699095238,1.4454342951938095,6.342047597
0.947235601,4.403614044095238,4.002715644333334,1.5619174840033334,6.294898561285715
0.952158072,4.3223485605238094,4.0186196849047615,1.6508484825271428,6.254252186952381
0.957080228,4.2453657444761905,4.04553807347619,1.7117200552461902,6.227408486095238
0.962002664,4.170661324476191,4.087162029190476,1.7439035782271428,6.216518264142857
0.966925125,4.094911983952381,4.143114986857142,1.745728863947619,6.219162507857143
0.971847343,4.009850025095238,4.212560982904762,1.7155499587047618,6.228780564380953
0.976769803,3.9106833934285716,4.296365510809524,1.6552822434761905,6.240815628285715
0.981692189,3.7951705852857147,4.391618796714286,1.5697308595047619,6.2504160254761905
0.986614664,3.6647028695714283,4.494075809142857,1.4617455758714286,6.254393697857143
0.991536897,3.5223524059523807,4.600144420285714,1.3354943324666666,6.251272573904761
0.996459356,3.368317734619048,4.70607255747619,1.1970775256,6.237629868142857
1.001382048,3.2066263925714287,4.809153363761904,1.0499290441428573,6.210742776047619
1.006304281,3.051098341095238,4.906529698999999,0.8960767999285715,6.17208670352381
1.011226741,2.908481353857143,4.992259309333333,0.7403707987523809,6.1223950893809524
1.016149202,2.783822973619048,5.061763036761905,0.5867542256238095,6.064728542619048
1.021071589,2.680010347190476,5.116956075,0.4378476534047619,6.006169949857143
1.025994048,2.6014263460000002,5.158152466714286,0.2999261329466667,5.9543660013809525
1.030916309,2.54534563,5.183512460619048,0.17904008241904762,5.909830393333333
1.035838692,2.5114855255714286,5.193372499380952,0.07764313575714284,5.874377834571429
1.040761153,2.500081613,5.184777191714285,-0.004146340071428584,5.845797635761905
1.045683615,2.5080042282857145,5.1574084872380945,-0.06821557640000002,5.820454181000001
1.050605848,2.527739848428572,5.112445399857143,-0.11686390894761908,5.792592086428572
1.055528307,2.553358412952381,5.058359259619047,-0.15191009897333338,5.762837011952381
1.060450694,2.5820156109047616,4.995640868190476,-0.17741205178952382,5.727994208666667
1.06537323,2.6103428489047618,4.925373395238095,-0.2016614330419048,5.685875703714286
1.070295718,2.6399988504285714,4.8482522396666665,-0.22688514809428575,5.637794606047619
1.075218103,2.6779328017619046,4.76905204,-0.25181314951809525,5.590748471904762
1.080140562,2.727427999238095,4.688777140190476,-0.2708145766657143,5.546520439285715
1.085062767,2.7822111448095237,4.598557097571428,-0.28657257733714286,5.494227591666666
1.089985226,2.8405751444285716,4.499670516904762,-0.2957706724561905,5.433622864047619
1.094907688,2.898876190190476,4.392483472857143,-0.3012566726085715,5.36341642647619
1.09983015,2.955907901142857,4.282973391714286,-0.3059528629657143,5.2885773190476195
1.104752536,3.0076757101904765,4.174334151428572,-0.30625752785142857,5.211616157380952
1.109675009,3.047787427904762,4.070781537476191,-0.3052753852228572,5.136664194619048
1.114597242,3.0758048125714286,3.977415834190476,-0.3058739095180953,5.068447356190476
1.119519624,3.0930609135238094,3.8925935881428573,-0.3088958621704762,5.005790287619048
1.124442173,3.101420482,3.811923117857143,-0.3121726715085715,4.944604277904762
1.129364559,3.106440521428572,3.7318074930000003,-0.3122030047738096,4.8850502998095235
1.134287019,3.111076706952381,3.648644980904762,-0.3084138615795239,4.8267268979999995
1.139209233,3.119836614285714,3.563492275380953,-0.29798757585571434,4.774340697285715
1.144131692,3.1315051828571434,3.479106289952381,-0.2801693385128572,4.729191201142858
1.14905414,3.1459669499999996,3.3997089635238096,-0.2550083851080953,4.693702656238095
1.153976601,3.1652748585714283,3.322564386142857,-0.21982205108428574,4.666875781333333
1.158898988,3.1902514299523808,3.2403800032857144,-0.17148047739190478,4.6447201469523804
1.163821219,3.220822243523809,3.1506535268571425,-0.10343514169952384,4.627239850809524
1.168743715,3.2529437656190474,3.0511141958095234,-0.008594713051904781,4.6100528500476186
1.173666102,3.283950147238095,2.9434813373809523,0.11024776665761904,4.591507666619047
1.178588561,3.3083850089047617,2.8232193446666662,0.2511587242195238,4.565518736
1.183511038,3.322635480380952,2.687959671,0.4070675330623809,4.531060395809524
1.188433271,3.3348111879523805,2.550444052285714,0.5776401488480951,4.503094586571429
1.193355961,3.3473223845714286,2.410521243242857,0.7579350088385713,4.484478363428572
1.198278198,3.363841283952381,2.2657520543190475,0.9457692489671429,4.476901359571428
1.203200657,3.3877261026190477,2.1133549553285715,1.1381771493338095,4.479924465190476
1.208123044,3.416803723333333,1.950213199161905,1.3288541535338094,4.4923830937142855
1.213045261,3.451358238904762,1.7724237679238095,1.5178942495480952,4.514881178142857
1.21796772,3.494015852666667,1.5760962405476189,1.706310533305238,4.5500444410476195
1.222890107,3.5431115173809524,1.3647577659285715,1.893076913657619,4.598943902761905
1.227812653,3.597021999904762,1.1412604376428572,2.0784541559766665,4.6640042549047624
1.23273504,3.6494315352857143,0.9081224326904762,2.2572404933666665,4.740480161380953
1.237657256,3.696851582857143,0.6682054836428571,2.4272623061761904,4.826312720380953
1.242579715,3.7369576863809524,0.4223268212619047,2.5896282621619044,4.919461975333332
1.247502177,3.769730738333333,0.1678951080714286,2.7484913553142856,5.020642290857142
1.25242457,3.797353438047619,-0.0928734644047619,2.907509111190476,5.130239866
1.257347106,3.8175979229047616,-0.36024945583333334,3.062780499428572,5.24392849747619
1.262269493,3.8308905534285715,-0.6328889347857143,3.211990827571429,5.362601867285714
1.267191971,3.8365456831904767,-0.9119388478809524,3.345854776190476,5.483741843238095
1.272114433,3.8381191209047616,-1.1988739899761904,3.462693679857143,5.609763755619047
1.277036666,3.838051069428572,-1.4928720895,3.5596576758571428,5.737658508523809
1.281959034,3.8370887893333334,-1.791727002547619,3.6241560095238095,5.8600693378571425
1.286881496,3.833715836285714,-2.088428819833333,3.6529135816666667,5.971779436619047
1.291803976,3.827107929142857,-2.383823825119048,3.646382581571429,6.072158273666666
1.296726209,3.814045213571428,-2.6766976760285717,3.6075871557619044,6.1616299301428565
1.301648669,3.794262931523809,-2.962294821580952,3.541431534809524,6.241703227476191
1.306571064,3.7596229258571428,-3.2408682551142856,3.452668394333333,6.313172401476191
1.311493524,3.7028823523809526,-3.511758394138096,3.351147532428571,6.379782306619048
1.316415985,3.624856926190476,-3.775120967852381,3.2463623909523807,6.4465348193333325
1.321338452,3.5208627837619044,-4.030098250857143,3.1445100137142856,6.512127447714286
1.326260913,3.389576117266666,-4.281818157047619,3.046048062190476,6.578856931904761
1.331183146,3.2352373061190476,-4.533130861380952,2.9478991542380952,6.647909084428572
1.336105587,3.0624991088,-4.787490242904762,2.8486231962380955,6.7222015091904765
1.341027973,2.875873442242857,-5.041301204952381,2.7496664296666666,6.800693488809524
1.345950218,2.678374337333333,-5.2903016407142855,2.6476270924761907,6.87798292647619
1.350872678,2.472765195252381,-5.529792933095238,2.5386907145714286,6.949404365666667
1.355795153,2.263737301061905,-5.759529885666668,2.4253576255714284,7.01309515104762
1.360717615,2.066128100695238,-5.982340358428571,2.3188211406666666,7.078296899666666
1.365639771,1.8880741908571428,-6.199877489047618,2.2135321923333335,7.1475924430476185
1.370562466,1.7308034811809525,-6.405987762142858,2.1072894788571426,7.218347547285713
1.375484699,1.588296524142857,-6.595256442,2.0018088136190477,7.285214277952382
1.380407158,1.4538788114380954,-6.767127718142857,1.8998589118095235,7.3470181803333325
1.385329596,1.326027044247619,-6.9205581119047626,1.8125659057142856,7.407732199809524
1.390252057,1.2053980458380953,-7.059600671047618,1.7427349999047617,7.470533820000001
1.395174519,1.0906164788095236,-7.18302486047619,1.689418242095238,7.5323240944285725
1.400096878,0.9795277629809523,-7.289447398285714,1.6520209993809527,7.589997585380952
1.405019108,0.865882954447619,-7.381106671714285,1.6290528547142857,7.642393085904763
1.409941558,0.7528941933033333,-7.453156561999999,1.6180012850476189,7.685792339333333
1.414864019,0.6428995732271429,-7.501346474523809,1.612803283190476,7.716231717761905
1.419786406,0.527938908422381,-7.518858523523808,1.6110380944761902,7.724462689571429
1.424708885,0.40880271685095243,-7.503094900190477,1.6054135674285714,7.706878302904762
1.429631346,0.2878891942509524,-7.450618176238095,1.5957101412857142,7.660355216857143
1.434553502,0.1623120027319048,-7.361320563714285,1.5815818082380952,7.585168221571429
1.439476034,0.028484813146190495,-7.23680598395238,1.5672059512857142,7.484407391238095
1.44439842,-0.11470270548714286,-7.079379921857142,1.5530673832857143,7.361648917952381
1.449320957,-0.2675961351966667,-6.893987394523809,1.541314953857143,7.223172310619049
1.454243454,-0.4280595684014286,-6.687975202333333,1.5312098094285713,7.075719359571428
1.459165839,-0.5962781903061904,-6.465534255666667,1.5191457157619046,6.921386780095237
1.46408807,-0.7781784276061905,-6.228386356809523,1.4987828106666665,6.757411459714286
1.469010523,-0.9764305747680954,-5.974769842142857,1.4771253835238096,6.581680383428572
1.473932985,-1.1877233354728571,-5.7106280895238095,1.4654904774285713,6.400723427666667
1.478855362,-1.405605145577619,-5.443102598285715,1.4644516706190476,6.222438588666666
1.483777593,-1.6262750537776192,-5.175951696666667,1.4784538631904762,6.05407748147619
1.488700057,-1.8487952490633335,-4.912393059142857,1.5053419555238094,5.899303727095238
1.493622443,-2.074288822082381,-4.653055395476191,1.544931474095238,5.759728019761904
1.498544903,-2.302630157434762,-4.402248825428571,1.5999211923333334,5.6402468520476186
1.503467374,-2.5307384074157144,-4.1606729145238095,1.6713151873809524,5.5435499690476195
1.508389607,-2.751420876549047,-3.932691063285714,1.7588922408571428,5.470328153571429
1.513312297,-2.962264502404762,-3.7213081179047625,1.8641574268095238,5.4241968791428565
1.518234506,-3.159052076852381,-3.529258205857143,1.9831911438095238,5.405128234285715
1.523156966,-3.339667172714286,-3.361019963380952,2.1083338543809527,5.413207036047619
1.528079427,-3.5068630661904763,-3.2192329225714285,2.2411059935238096,5.449946280238096
1.533001804,-3.6613180183809524,-3.1032221658571424,2.3782704727619044,5.510557675142857
1.537924035,-3.800044877238095,-3.013329313,2.517169327952381,5.588428302047619
1.542846499,-3.9228838399047614,-2.9475848902380952,2.6507020961904764,5.675332704904762
1.547768886,-4.031361568619047,-2.906143710761905,2.7795244285238097,5.771380513857143
1.55269135,-4.128814856285714,-2.887759231380952,2.903935472190476,5.876437337952381
1.557613812,-4.219029097380952,-2.8851246606666665,3.024681573857143,5.986932812666667
1.562536045,-4.306355941904762,-2.895252034761905,3.140202766428571,6.102290517142857
1.567458504,-4.3936610903333335,-2.9157038415714287,3.2482360488571427,6.221104014190476
1.572380891,-4.483811696380952,-2.9452972184761905,3.3476492337619046,6.344098770857143
1.577303427,-4.580128556238096,-2.9845569814761905,3.4325283823333335,6.471272227476192
1.582225896,-4.681823276380952,-3.0313941296666664,3.500295661857143,6.599637887809525
1.587148281,-4.786735614142858,-3.0858938012380954,3.550568898666666,6.7272079572857155
1.59207074,-4.8943028563809525,-3.1466672306666665,3.588441326666667,6.8547455791904754
1.596992982,-5.002825771095238,-3.215300662142857,3.6147836619047617,6.981959956142857
1.601915442,-5.11026800247619,-3.2891670862857145,3.628853230476191,7.105500682047618
1.606837852,-5.214287984904762,-3.365790128714286,3.625373329666667,7.219916046904761
1.611760312,-5.315920171285715,-3.4396774655714286,3.605263131238095,7.323508668333334
1.616682544,-5.41346050447619,-3.5120685554761906,3.5675137499523815,7.4149554620952385
1.621605254,-5.5049850827619045,-3.581027746238095,3.5148560775714284,7.493141607380951
1.626527487,-5.586525690047619,-3.6459994997619054,3.4495353132857143,7.555911517666666
1.631449865,-5.654227642857142,-3.708343358285714,3.372627179,7.601502514857144
1.636372327,-5.709136735904762,-3.7701836427142856,3.2899627005714285,7.634594526571429
1.641294788,-5.753080436238095,-3.8314470336666666,3.2020461333333334,7.657973813666667
1.646217269,-5.786735103333334,-3.8905507496666667,3.112594036904762,7.674337808761906
1.65113973,-5.809866087857143,-3.9468203613333332,3.022456418952381,7.683078413904762
1.656061963,-5.822119236095238,-4.002626214809524,2.9337146169047617,7.685893546238095
1.660984288,-5.821539606476191,-4.062141112,2.849226940285714,7.684600858761906
1.665906749,-5.809577510571428,-4.124944073904762,2.770717938761905,7.680357793761904
1.670829217,-5.787107694809524,-4.190270026619048,2.699565944238095,7.674055172285715
1.67575145,-5.757349945333333,-4.254030466142858,2.6358246576190476,7.664811600571428
1.680673909,-5.722019082095239,-4.311049518190477,2.5794819877142854,7.6507826807142845
1.6855963,-5.682133402190476,-4.363206942952381,2.530742225142857,7.633844997571428
1.690518759,-5.636543682714286,-4.4107071218571425,2.4872976029999996,7.612336744571428
1.695441221,-5.583967345142857,-4.456726891714286,2.445416223380952,7.5857095800000005
1.700363454,-5.522552989809524,-4.501853556952382,2.4064903712857144,7.553753937761906
1.705285913,-5.450795378047619,-4.54615288695238,2.370219889095238,7.515453301428572
1.710208375,-5.366817247380952,-4.597786426619048,2.3421702725238096,7.476875479047619
1.715130822,-5.267251968428572,-4.657740706571429,2.319376514047619,7.436046681714285
1.720053284,-5.1452079614285715,-4.7263531004761905,2.3020662806666667,7.3907558946666665
1.724975671,-4.998914480238096,-4.807480426142857,2.2916249547142855,7.345624578428572
1.729897906,-4.833412352095238,-4.902081239904762,2.286182289952381,7.3070527595714285
1.734820597,-4.6467852251904755,-5.005220481428571,2.2816317194285713,7.2731540534761905
1.739742829,-4.437110702190476,-5.1134680113333335,2.2758356161904763,7.243183161190475
1.744665217,-4.201112855047619,-5.220237391428572,2.2696999935238096,7.215248167190476
1.749587679,-3.938263275243333,-5.3277398291904765,2.263620138142857,7.1950913705238095
1.754509911,-3.6513887567338097,-5.432159492,2.2536407538571432,7.180513441142857
1.75943238,-3.3447770314480954,-5.527749175142857,2.237310704714286,7.166634773476191
1.764354767,-3.027488462400476,-5.610253947142858,2.212649470238095,7.1488801489047615
1.769277303,-2.706985375114762,-5.678183192285714,2.1810881353333333,7.122157334666667
1.774199704,-2.392218996495714,-5.727921917333334,2.140068037142857,7.080370214571429
1.779122163,-2.0844514690671425,-5.760256631047619,2.089815752857143,7.019423816190475
1.784044625,-1.7833954757338095,-5.774388199761905,2.0292241800476187,6.935318412238096
1.788966858,-1.4894906716861904,-5.770843732904762,1.9560085648809522,6.827928884666666
1.793889298,-1.2024159525433333,-5.750072933380952,1.8693348510095238,6.699795116428572
1.798811685,-0.9156229930671428,-5.707315637952381,1.7695386644,6.550164431190477
1.803733911,-0.6269116722576191,-5.645900680904761,1.6584256624776188,6.386500193047619
1.80865637,-0.34115914873380954,-5.567301875095238,1.5369656674585714,6.212076071
1.813578757,-0.06187585792428575,-5.465215342380953,1.4018169974633332,6.025297782761904
1.818501221,0.20462152131380953,-5.340363877142857,1.2590228084633333,5.829283388428571
1.823423683,0.4484714232185714,-5.195274534666667,1.113896048472857,5.629011166333333
1.828346144,0.6662798117423809,-5.031019540047619,0.971924854877619,5.423218820095238
1.833268582,0.857115389837619,-4.8500920249999995,0.8381767606585714,5.210150592285714
1.838191043,1.0172927285042856,-4.657268206238095,0.7134784226014285,4.994989272333333
1.843113262,1.1432232024090478,-4.459170965857142,0.5944676179395237,4.781780636285714
1.848035722,1.23541977479,-4.259574049952381,0.48627442727523795,4.574649314571428
1.852958108,1.2922353488428573,-4.055537462190476,0.390932278632381,4.367400867523809
1.857880529,1.3188053482380953,-3.8534725166190475,0.30978385078476184,4.164170246904762
1.862802762,1.323673395809524,-3.661303645047619,0.23959208848952376,3.9710428728571427
1.867725221,1.318455588190476,-3.485944350523809,0.17609199353238092,3.7948775373809527
1.872647608,1.314097251142857,-3.3354249568095238,0.11854165830857137,3.644737585428571
1.877570068,1.324295060904762,-3.213740326095238,0.07082423179904758,3.5293798153809526
1.882492305,1.3546826781904762,-3.1241281259523808,0.032660520156190434,3.4537864826190474
1.887414765,1.408882016190476,-3.0683732600476192,0.0030099966038094747,3.421423144285714
1.892337226,1.4882811591428573,-3.0380294777142858,-0.018099812872381,3.425829699
1.897259688,1.5918115377142859,-3.025130374095238,-0.03199847929142862,3.460714312047619
1.902182149,1.711497198904762,-3.027338799952381,-0.04058376486452386,3.522851412666667
1.907104601,1.8401954343809521,-3.0324614274761905,-0.051699527313571476,3.5995926099047617
1.912026988,1.9779762369523808,-3.033058995238095,-0.06749805062785719,3.6859552231904766
1.916949199,2.1179724306666663,-3.029995134857143,-0.08456252550404766,3.7784663696666665
1.921871659,2.2581176246190475,-3.0189843631428572,-0.10338981059928576,3.872965366285714
1.926794031,2.3956585327142856,-2.9989317030476195,-0.12177105141833337,3.9650187370952388
1.93171649,2.527501912285714,-2.964403515714286,-0.14241500377547625,4.049858700904762
1.936638952,2.654073862761905,-2.910088226857143,-0.16884500321833337,4.124933362666666
1.941561184,2.773846382142857,-2.8315903260285715,-0.19925676606595244,4.187357930380952
1.946483644,2.8886834723333332,-2.7239470431914286,-0.22827338428500007,4.236000885190476
1.951406106,2.995743274666667,-2.588699281896191,-0.25858805081595243,4.274981407285715
1.956328492,3.098526562904762,-2.4269470011771426,-0.2880941941730953,4.310721610047619
1.961251029,3.196853228904762,-2.23649033832,-0.3180953839064286,4.347375866095239
1.966173415,3.286068745952381,-2.0151354847961906,-0.3446399562492858,4.382043568333334
1.971095613,3.363886884190476,-1.7621750639866665,-0.36171057466500006,4.413309681142857
1.976018303,3.4279835052857144,-1.4761254027961903,-0.36759666957452386,4.437668212190476
1.980940536,3.4714552220000003,-1.1577937865104762,-0.36348424143166674,4.451799005571429
1.98586269,3.4905687967142853,-0.8109710251771428,-0.3470462411745239,4.454945224428571
1.99078515,3.484648466,-0.4386722622723809,-0.31469167062214287,4.449254122809524
1.995707611,3.4524246963809526,-0.05009455127238095,-0.26531319464595243,4.437384668285714
2.000630097,3.3909014064761904,0.3467977692990476,-0.20059752678404769,4.421735034428571
2.005552483,3.296847263857143,0.7450443300609523,-0.10251057150619051,4.409460632714286
2.010474943,3.191525555666667,1.1376614194895238,0.016660860579523793,4.406358888380953
2.015397408,3.080757612142857,1.5165012642514288,0.17084785867476188,4.420452296000001
2.02031987,2.980719322142857,1.883441274441905,0.3616057605461905,4.462822275714286
2.025242332,2.894376692238095,2.2358157827276193,0.5725051873557143,4.532046925571429
2.03016456,2.8231507879523807,2.571452500632381,0.780333760165238,4.617725699047618
2.03508702,2.763963455142857,2.886163537775238,0.9615151853080952,4.710135688952381
2.040009485,2.7049268369523807,3.1769463016323805,1.112791751065238,4.80251361
2.044931641,2.6338883183333333,3.44072572328,1.232956608065238,4.889074447380953
2.049854332,2.5483206566666667,3.6783280174904767,1.3198792280890477,4.970720920333333
2.054776584,2.442980329142857,3.8937833480523816,1.3754691324795236,5.0489716567142855
2.059699044,2.322655609642857,4.089070303190476,1.4084858474985715,5.126363414476191
2.064621431,2.190726562609524,4.2606778202380955,1.4286394661357142,5.197160486857142
2.069543919,2.0575083295333334,4.413635435619048,1.4381755140904762,5.265446113809524
2.074466152,1.9300900456333332,4.547259523809524,1.4386350379619048,5.327042072285714
2.079388832,1.8143021875761902,4.662007138904762,1.4290711808919048,5.380481095238095
2.084311065,1.7163673766761907,4.754254942904762,1.4084893713557143,5.421744307190476
2.089233525,1.6402839947238097,4.823937893,1.3723661805714285,5.450348627333334
2.094155986,1.585753323057143,4.871804033095238,1.3194822296620476,5.465314862809524
2.099078373,1.5523051832476191,4.900337401,1.247387992138238,5.4682300716666665
2.104000832,1.5425680435809523,4.911006655095238,1.1593082770668095,5.462362397285714
2.108923051,1.5608010476761907,4.903482369095238,1.0426209409429998,5.443025243619048
2.113845434,1.5849550465809525,4.8791718483809525,0.919672223438238,5.40946012047619
2.118767981,1.6093416228190476,4.841787281571429,0.7789536058287142,5.357295035904762
2.123690368,1.620898668247619,4.792092743428571,0.6156775139239523,5.27984177547619
2.128612599,1.618872530390476,4.731068656619048,0.44060227670490476,5.182818250761905
2.133535096,1.6045462418190477,4.664925700238095,0.2698554677477619,5.079039290142857
2.138457558,1.5821215212476192,4.599621988571429,0.12351309089061899,4.982815109095238
2.143379944,1.5624890909619047,4.537909133190476,0.007971429795380913,4.900397642952381
2.148302404,1.5574223328666668,4.479564757666667,-0.07309494977223814,4.834848850904762
2.153224865,1.570461144057143,4.423098791285714,-0.12026685611842862,4.783424076238096
2.158147327,1.6034568108190477,4.36360812195238,-0.13751518932795243,4.737441272285714
2.163069788,1.6502868121285712,4.300633498714286,-0.13494304667557147,4.690683010047619
2.167992021,1.707841336685714,4.235439028190476,-0.1204801424698572,4.64287536052381
2.172914403,1.769599385142857,4.164380845714286,-0.09852704665319052,4.5897618010476195
2.177836864,1.8298881933285713,4.087933619952381,-0.07500642699938102,4.531968542809524
2.182759097,1.8841826716714285,4.007593813523809,-0.053433569438904815,4.470453471809524
2.187681557,1.9280258132857142,3.9273402465238094,-0.03520928396938101,4.408120784095239
2.192603943,1.958167144190476,3.8497629620952374,-0.017876617813666718,4.345798242047619
2.197526403,1.9742694752380952,3.7750326793809523,-0.002849379113809574,4.282518691190477
2.20244888,1.9793578613333334,3.70147282747619,0.016224811114761855,4.2173854328095235
2.207371112,1.975495815285714,3.6286354406666668,0.04053452504333328,4.150218536809524
2.212293557,1.9627579564285713,3.557070062380952,0.0657271916623809,4.080889319380952
2.217216018,1.944597863047619,3.4863858337142855,0.08829485837619042,4.010567409571429
2.22213848,1.9222124758571426,3.412472929333333,0.10737066822047613,3.9363548912857143
2.227060904,1.9003339098095235,3.3312969321904755,0.12663285824095233,3.857783992
2.231983291,1.882399666904762,3.2421049845238095,0.14422381056952377,3.776894913952381
2.236905536,1.871492959238095,3.1415139380476185,0.1610120958419047,3.6944810449523806
2.241827995,1.8741163015714288,3.022946227190476,0.17784661945809518,3.613198622190476
2.246750387,1.8961337805238092,2.8856837948285716,0.1915377623709523,3.5401251424285713
2.251672847,1.9396419695714284,2.733596699595238,0.20106952429095232,3.4814755440952387
2.256595079,2.0029954967619044,2.5684020860142858,0.20767680986095233,3.438493364904762
2.261517547,2.0870567844761903,2.393757567533333,0.21334614325619045,3.4137951968571425
2.266439934,2.1861395496190474,2.2085719016285714,0.21652314319904753,3.4015939111904765
2.271362393,2.294009543714286,2.0156444743904762,0.21710785767047613,3.397979904619048
2.276284855,2.406505596190476,1.8173329922380954,0.21857819072285714,3.39994786952381
2.281207316,2.5191318762857144,1.614975419061905,0.22377609466095233,3.4069040188095236
2.286129778,2.6312615474761905,1.4115008037666665,0.23616480938476186,3.4188059255714287
2.29105223,2.742260688904762,1.2080086590047618,0.25950995198952376,3.4368365259047615
2.295974463,2.855341252904762,1.0072867054190475,0.2942606647657143,3.4630129953809528
2.300896836,2.970978487190476,0.812346987042857,0.3416407573561904,3.4977284664285713
2.305819297,3.085330951857143,0.6257529407666668,0.39846152036571425,3.540040654238095
2.31074139,3.1909403290952385,0.4480335577619048,0.46720547231809517,3.5854718464761905
2.31566385,3.2834388075238095,0.2790416571476191,0.5532558535847618,3.6337639497142864
2.320586311,3.363469282857143,0.11600065589047619,0.657528043185238,3.687416924571428
2.325508713,3.435250617285714,-0.03813210198571428,0.7736785156647618,3.7495398072857142
2.330431172,3.4988664219047623,-0.1827783861095238,0.8929138925490476,3.817583378
2.335353634,3.551458233952381,-0.31393010204285715,1.0152759872490476,3.8853961948095237
2.340275852,3.5901895137619046,-0.4307592447333333,1.1363726991719048,3.9494146840476194
2.345198542,3.6082489377619047,-0.5283267661095239,1.250811987317619,4.00161269852381
2.350120775,3.602662222761905,-0.6086937181904761,1.3563583226904763,4.035118950190476
2.355043226,3.5736425490952377,-0.6765810017,1.4493078503857142,4.045732918285714
2.359965688,3.520384777190476,-0.7353385253952381,1.5251804689238095,4.0289706186666665
2.36488806,3.445044063428571,-0.7899176670095238,1.582563942352381,3.9862016815714285
2.369810519,3.357140490047619,-0.840103812152381,1.6206968468809522,3.9259693073333337
2.374732981,3.262498492333333,-0.8902329092952382,1.6415921321476188,3.857428728952381
2.379655232,3.165134816,-0.9417840015238096,1.640469132390476,3.7851190096190472
2.384577615,3.0645102036190472,-0.9946411479190477,1.6169293706890475,3.712191052238095
2.389500077,2.961712388857143,-1.0522070498619047,1.5730368459080952,3.642188300238095
2.394422323,2.856938867428571,-1.1131981866714287,1.506359560817619,3.575532218047619
2.399345014,2.7483714479047614,-1.1777917544190477,1.418962133022381,3.509655155523809
2.40426717,2.637291454190476,-1.2476351346619048,1.31546289647,3.4452422406666674
2.409189711,2.526573941857143,-1.3248350904333333,1.1958514174700001,3.3869573203333334
2.414112173,2.422399134904762,-1.4111594245714285,1.0604317535652381,3.339343982
2.419034559,2.330826799095238,-1.5045058557190476,0.9103893218509523,3.3031926403809524
2.423957009,2.252818033809524,-1.6009246678904763,0.7441418007080952,3.2736695130476194
2.42887947,2.187556794714286,-1.699733711442857,0.5679929489938095,3.250426220714286
2.433801655,2.133232088333333,-1.7980531937000002,0.3907443802319047,3.2322742183809523
2.438724115,2.0874950942857144,-1.8974191944333332,0.2154090013747619,3.218270476904762
2.443646576,2.0494724285238095,-1.9940068097904764,0.050816811917619005,3.2065132147142856
2.448569038,2.0186446224285715,-2.0885354252714285,-0.09841466735380958,3.1987246444285713
2.453491271,1.9924378565714285,-2.177844189542857,-0.22893481244428573,3.1935976511904762
2.458413672,1.9697691940476192,-2.258873142038095,-0.33956824529190477,3.191409116
2.463336134,1.9494342463809524,-2.329135662142857,-0.42655457790428575,3.19308154052381
2.468258595,1.9272684824285713,-2.384654754761905,-0.48684195627571436,3.1946317927619052
2.473181048,1.9010565735238092,-2.4268705164761903,-0.5186356229995239,3.195050856238095
2.478103509,1.8715940032857143,-2.4536950362380954,-0.522608766442381,3.1923793020952385
2.483025742,1.8354596240476193,-2.467584893952381,-0.4939165280614286,3.18697763647619
2.487948202,1.7897931479380953,-2.4708723682380955,-0.4291180991647619,3.1822103376666666
2.492870588,1.7333149087047617,-2.461102417666667,-0.34890743117904766,3.166297115
2.497792834,1.6688377658761904,-2.436280137142857,-0.24132985892666672,3.1465528627619044
2.502715294,1.5931235743619048,-2.3941858553809525,-0.10832604503619049,3.1246382056666664
2.507637769,1.50439909847,-2.3353484756190475,0.04430028775428568,3.1019173192380953
2.512560156,1.401327667160476,-2.2607599980190476,0.2159721438019047,3.0796825879047622
2.517482615,1.2848288590842858,-2.1697149958809527,0.39729952651619044,3.052991594666667
2.522405249,1.150782571322381,-2.0652825152,0.5791191017066666,3.0210258208095238
2.527327482,0.9967509994652382,-1.9492993710285713,0.7583415776114284,2.9854685381904766
2.532249941,0.8228848126557143,-1.8218076116428572,0.9328397212780951,2.9452487154761906
2.537172403,0.6310125224176191,-1.6856148449380952,1.0988358186590477,2.9035813703333333
2.542094864,0.4248725605128571,-1.5442376068138095,1.2548937724685714,2.8650949994285715
2.547017326,0.2068153254652381,-1.400068037794762,1.3976229214495237,2.837232500333333
2.551939713,-0.022086628487142834,-1.2558655180519047,1.5289911611495237,2.826333962095238
2.556861943,-0.26054762339190474,-1.1167988005804763,1.6482432127638096,2.835877315142857
2.561784408,-0.506275667677619,-0.9856703254995237,1.756805355849524,2.864317080761905
2.566706795,-0.7539061957252381,-0.8656341864628571,1.8537377395571428,2.9092783807619047
2.571629331,-0.9980750109157142,-0.7566569523061905,1.9345043088333334,2.9685478030000003
2.576551752,-1.2347806262966665,-0.65699542625,1.9981792114619046,3.0326134860000002
2.581473982,-1.4659387238680952,-0.5678576190928571,2.041522974,3.0966501598095237
2.586396461,-1.6907239609633333,-0.4850898110785714,2.0617363054761904,3.158521174809524
2.591318923,-1.9049929604252378,-0.405669953397619,2.0558330671428573,3.216323152666667
2.596241309,-2.10686467343,-0.3323716679880952,2.042329634857143,3.2781433741904764
2.601163851,-2.3020881467919048,-0.26818066788809525,2.011740729857143,3.3406779305714287
2.606086237,-2.485685143134762,-0.21959376289285712,1.9634303478095236,3.402849913476191
2.611008697,-2.659272381290476,-0.18715561811190473,1.8999040636666664,3.464840548333333
2.615930934,-2.820916814504762,-0.168202950397619,1.8227376851523809,3.5222952652380957
2.620853316,-2.974362912666667,-0.16517947640714284,1.7367089190904763,3.5808282348571434
2.625775788,-3.1163828202857142,-0.17607062158809522,1.648061584742857,3.641851145285714
2.630698249,-3.2436163482380955,-0.20225914699761902,1.5588770110428571,3.7029768922380955
2.635620492,-3.3566805294761908,-0.2431735306690476,1.4709335337476188,3.763173186523809
2.640542952,-3.4576626278095235,-0.2977675783738095,1.383536961704762,3.8228463046190475
2.645465413,-3.545792011952381,-0.36293019645047614,1.295574481904762,3.879728273333333
2.650387804,-3.6208639712380952,-0.4361113374219047,1.2060916202904761,3.930172285428571
2.655310263,-3.683466922619048,-0.5173642905457143,1.1122121430557141,3.9728083152380953
2.660232496,-3.7325908682857145,-0.60194143516,1.013243567845238,4.00615173752381
2.665155186,-3.770529815047619,-0.6871294826695239,0.90974799625,4.031665601761905
2.67007765,-3.8026581377619046,-0.7720301992776191,0.8036550408547618,4.0550763778571435
2.674999881,-3.8329401923809523,-0.8556308183866667,0.7000806144642857,4.080069137047619
2.67992234,-3.869848535142857,-0.9394803902047619,0.6002168553595237,4.114389586809525
2.684844727,-3.9156031949047625,-1.0221770583142855,0.5078213326119047,4.160898075857143
2.689766958,-3.9677753789047623,-1.1066921055190475,0.42386161976904757,4.217446533571429
2.694689427,-4.023043178333333,-1.1946589116285715,0.34868742859285706,4.281084054047619
2.699611814,-4.078904560571429,-1.2869622004666665,0.2793299546738095,4.349503081476191
2.704534273,-4.129905518952381,-1.3849684822809523,0.2155192400166666,4.417397284380952
2.709456511,-4.169820955714286,-1.4877283402761905,0.1590003333928571,4.479753282
2.714379202,-4.196645327857143,-1.5952017732952382,0.11238809479904759,4.535276172333333
2.719301665,-4.207464467809524,-1.708501006847619,0.0743040476180952,4.5829778068571425
2.724224136,-4.2018687497142855,-1.8240480564523809,0.0464212857228571,4.622858831571428
2.729146366,-4.182749078333334,-1.940072434238095,0.02799114354666662,4.656846167809523
2.734068826,-4.151628687238095,-2.0546998125714286,0.01656876345142853,4.686127254285714
2.738991204,-4.110140845857143,-2.170041004761905,0.013551953832380913,4.713700195714286
2.743913663,-4.059797173428572,-2.287735002333333,0.019766048846666624,4.741815674571429
2.748835891,-4.001079593380952,-2.411818089904762,0.0386411936228571,4.773791004380953
2.753758274,-3.9326469217142854,-2.5447460412857144,0.0693637159323809,4.810348134380952
2.758680735,-3.848255452666667,-2.687739480095238,0.11213228692428567,4.850744796380952
2.763602968,-3.7466749407142856,-2.841799327285714,0.16771628742047615,4.896607422
2.768525446,-3.6271228052380953,-3.0067816518571426,0.23596876220619042,4.949019163714286
2.773447833,-3.4900602386190474,-3.180595602285714,0.3141365725538095,5.006761556666667
2.77837037,-3.3358775121761903,-3.3641086986666666,0.400242620277619,5.069958190904761
2.783292737,-3.1643416484000007,-3.553016549047619,0.49459057123952366,5.134758387571428
2.788215197,-2.975099081057143,-3.746547176714286,0.5957831435109524,5.199921472904762
2.793137658,-2.7679001816285713,-3.9451629434285715,0.7055953776395237,5.2685396191428575
2.79806012,-2.5428315251861906,-4.144308464857143,0.8197847143395238,5.338245304238096
2.802982353,-2.308305525352857,-4.339472975047618,0.9369040486395237,5.40866843652381
2.807904807,-2.0690527608195235,-4.528170687809523,1.0545859975347618,5.479429323809524
2.812827194,-1.8362806602909523,-4.709341401142857,1.1703905675871429,5.555633197523809
2.817749406,-1.6116218120242858,-4.881380308238095,1.2801944755142856,5.634603747238096
2.822671865,-1.3976190480766666,-5.04417236647619,1.3831700909238094,5.718729306190475
2.827594355,-1.1902097144528572,-5.196160940904762,1.4773471340714284,5.803933286190476
2.832516741,-0.9869286183814284,-5.337748130190476,1.5608651311190476,5.887464646
2.837439201,-0.7833685754242856,-5.46694369547619,1.6349003229619048,5.967927633095238
2.842361439,-0.5794513786147619,-5.584614174761906,1.6965307990666665,6.045646092380952
2.847283898,-0.37578381170999997,-5.691302594761905,1.7462266059047618,6.118988170142857
2.85220636,-0.17775962394809527,-5.7866498402857145,1.7828518890238094,6.186634672666667
2.857128821,0.009457043956666652,-5.8707571711428574,1.8068529395666666,6.248205124761905
2.862051283,0.18502819038523807,-5.943744682190476,1.8155747027619047,6.305338656761906
2.866973744,0.35118914286142855,-6.004720551666667,1.8100894178809521,6.357269309428571
2.871896102,0.5090302860042857,-6.054629848142857,1.7892772754142858,6.40391744157143
2.876818333,0.6575834758138095,-6.0865576608095235,1.7566327509333335,6.436707827761904
2.881740783,0.7962158102280952,-6.098497844904763,1.7101428452142855,6.451859493428572
2.88666317,0.9213260475947619,-6.092771984285714,1.6452673219619047,6.44867797395238
2.89158563,1.0324899986804763,-6.070130870428572,1.5629249875319045,6.426982703714286
2.896508081,1.126531424251905,-6.031230903761904,1.4625498007033333,6.386174272
2.901430314,1.2049264254761904,-5.9800554230000005,1.3477496554747619,6.331511617714286
2.906352706,1.2756471420714286,-5.921208631380953,1.2216739406319046,6.269099988428572
2.911275168,1.3414918553,-5.85601263952381,1.0848362282938093,6.2005229200952385
2.91619763,1.4068389023904762,-5.783624830666667,0.9397440872414284,6.125693467714287
2.921120091,1.4763957106,-5.7044502893809526,0.7891002276509523,6.0470609247619045
2.926042553,1.5480174223666667,-5.614787510428571,0.6357092779938094,5.96165426804762
2.930965014,1.6204699022666669,-5.516964458285715,0.4843198551271428,5.872590190285714
2.935887462,1.6944481901000001,-5.412516276047619,0.33478390393666657,5.782793404
2.940809618,1.7650564795714287,-5.305375757666666,0.18880299517476187,5.695993818714286
2.945732072,1.8369750465714287,-5.195034322285714,0.04663208907952378,5.614963273333333
2.950654534,1.9161404768571426,-5.078825666761905,-0.09050776487285718,5.540094353
2.955576767,2.008155998714286,-4.953733955047619,-0.22328418987285717,5.471853854666667
2.960499226,2.114300143142857,-4.813767773714285,-0.3531276178728572,5.406898291571428
2.965421613,2.2257233858095242,-4.652332964333333,-0.47641599953952385,5.336815714761904
2.970344058,2.3325598637142853,-4.466241813809524,-0.5950773350871429,5.25564435052381
2.975266291,2.426421528761905,-4.254705622047619,-0.7066928112395239,5.1577493779047625
2.980188751,2.5060931443809524,-4.024822235047619,-0.8114286199490477,5.048055135809524
2.985111231,2.5696589094761904,-3.780069955704762,-0.9040511413252381,4.927656813047619
2.990033693,2.6213465304285712,-3.52235087037619,-0.9811119997395239,4.8008347162380955
2.994956125,2.6582998604761903,-3.249022974809524,-1.039127142595238,4.664814136047619
2.999878587,2.6798118636190478,-2.958034126509524,-1.076043858357143,4.521010186476191
3.004800944,2.6818603390476192,-2.6495048062714286,-1.087591192495238,4.3728287804761905
3.009723404,2.662909099,-2.325179801080952,-1.074447478509524,4.227235416904762
3.014645866,2.6240299570714285,-1.9886504666999998,-1.0357340488571427,4.091262730428572
3.019568035,2.5668496233571427,-1.6436427519380952,-0.969706762352381,3.9722805622857145
3.024490495,2.4893485775285717,-1.2958187120333333,-0.8774057171904763,3.8713818017619044
3.029412956,2.3934890086071428,-0.9477662444142856,-0.7557278104380952,3.7963072276190477
3.03433539,2.2784812887690475,-0.5967203860809523,-0.6097648625238096,3.7498014228095236
3.039257623,2.1461493327690473,-0.2440168601761904,-0.4444776743809524,3.7254158225238094
3.044180082,1.9959191861738095,0.11426418453809531,-0.2629842388095238,3.722621584952381
3.049102534,1.8265409509690476,0.4755647097761905,-0.06860176428571432,3.7312050653333335
3.054024921,1.6356285680166667,0.8363212773000002,0.13456709338095235,3.7457859110476193
3.05894738,1.4246735726357143,1.1925338478238097,0.3454994673809524,3.7630077099047616
3.063869808,1.1975759989214285,1.5361265256333334,0.5608975576190476,3.782443015523809
3.068791963,0.9612053786357142,1.8630259633000004,0.7717393155238096,3.803574086095238
3.073714433,0.7234523336357143,2.1687975412523812,0.9722311753333334,3.827600961333333
3.078636895,0.4917400491119048,2.455167057966667,1.1535942697619048,3.85801902647619
3.083559141,0.27611481410714284,2.7235055679190476,1.316370984047619,3.900192257047619
3.088481601,0.07725628620714285,2.9710176728619047,1.4607606474761905,3.957554634333333
3.093403988,-0.10013995165476189,3.2007622434380956,1.5844977442857142,4.0304600249047615
3.098326447,-0.25123018474523806,3.4072929052523815,1.6859335531714283,4.1207184855714285
3.103248909,-0.37556613789761906,3.587503138,1.7591286984190475,4.224422466047618
3.10817137,-0.47389180484047616,3.7394909063333337,1.8015163173238098,4.334048423095238
3.113093818,-0.5540768520404762,3.8638064292857144,1.8110666507009525,4.437693735095238
3.118016279,-0.61802456655,3.964913583857143,1.7817402699819047,4.530755657714285
3.122938512,-0.6707934242595238,4.049132199428572,1.7150279841914284,4.612133336142857
3.127860943,-0.7174244241309523,4.12370543247619,1.6139997461438094,4.684287168523809
3.132783329,-0.7583835678761904,4.186534915571428,1.478738698667619,4.739285328047619
3.137705555,-0.7936698510857143,4.2368925298095235,1.3125025591438095,4.775248106809523
3.142628015,-0.8244117072761904,4.275534618380952,1.1236469451438096,4.794679897666667
3.147550466,-0.8519614679666667,4.298857382285714,0.9175009433342858,4.7953430736666665
3.152472853,-0.8779910377142858,4.310251008809524,0.6991463265247618,4.78236716552381
3.157395327,-0.9001960839523809,4.310008627952381,0.4707473279057142,4.757401024095238
3.162317789,-0.9155321773809524,4.300873302190476,0.23405018771523806,4.722630248904762
3.167240022,-0.9234930816190475,4.284072387714286,-0.003931336094285759,4.679749074952381
3.172162486,-0.922797467,4.260469811238095,-0.23315333290380955,4.632120574142857
3.177084948,-0.9160117563333333,4.229382798714286,-0.4433361926657143,4.5811923754285715
3.182007409,-0.9054474234333334,4.189461753428571,-0.6238679499038096,4.5275462823809525
3.186929762,-0.8980646133190477,4.139402571142857,-0.7762986659514287,4.469360743238095
3.191851993,-0.8921131860380953,4.082786753047619,-0.9040961389990476,4.407191001095238
3.196774457,-0.8934846633714286,4.018626655857143,-1.0057296622085714,4.341349782857143
3.201696844,-0.9059107587190476,3.951395806809524,-1.0845880888466666,4.275445732428572
3.206619307,-0.9275725682333334,3.884846619190476,-1.1399670907180952,4.212953750190477
3.211541769,-0.955200044857143,3.8206482387619047,-1.178695614541905,4.154670076952381
3.216464236,-0.9788492832619047,3.7616741998095233,-1.2012603765904761,4.101595831095238
3.221386468,-0.9953259030714285,3.706787279714286,-1.203911615314286,4.05061627452381
3.226308928,-0.9998529013857143,3.6513036206190477,-1.1921555684190477,3.995307545619048
3.231231319,-0.985162615747619,3.5913225242380955,-1.1691323292095237,3.9303927590952386
3.236153779,-0.9520733292333334,3.529677323,-1.1407061389809523,3.859697127380952
3.241076241,-0.9020800453209523,3.4657871837142857,-1.1079638543666668,3.7832821882857144
3.245998702,-0.8341789974209524,3.4014578547142857,-1.069207713709524,3.7033999534761906
3.250920935,-0.7484852832495238,3.335005238,-1.0255084293238095,3.6190060243809525
3.255843342,-0.6477622380495239,3.2654967081428574,-0.9748386201571428,3.5299166321428572
3.260765803,-0.5341887606685715,3.1925829479047616,-0.9163133360095239,3.4373705148571427
3.265688036,-0.4139916178114285,3.114026183238095,-0.8507250476619048,3.3421701057142856
3.270610485,-0.2902086197638095,3.0321443762380955,-0.7826663780857143,3.2492972039047614
3.275532947,-0.1672374256209524,2.946866466904762,-0.7141611874238095,3.1604733391428574
3.280455344,-0.04427547304952382,2.8613856576666667,-0.6505701868666668,3.080480898857143
3.285377803,0.0778701456695238,2.775916332285714,-0.5954935707047619,3.0093883636190477
3.290300265,0.19872047879809523,2.6888350986190477,-0.5486580928190476,2.944535286142857
3.295222497,0.3224356694647619,2.6004257656190477,-0.5118505699380953,2.88795775652381
3.300144957,0.4500938152314286,2.507093480619048,-0.4817762367904762,2.83547059052381
3.305067419,0.5853862885266666,2.4069463354761904,-0.4580253809809524,2.785082034333333
3.309989885,0.7274466251457143,2.2987803844666668,-0.4424888087285715,2.735200036761905
3.314912347,0.8742558653314286,2.1849171433809524,-0.4323377126857143,2.6870821139047623
3.319834733,1.0203955807457143,2.066787044157143,-0.4252645699904763,2.6411006097619047
3.324757197,1.164778057564762,1.9438820963333332,-0.41911842710952385,2.598927551047619
3.329679658,1.3082347748742857,1.817046663552381,-0.41334318973809525,2.5646459352857143
3.334601834,1.448979679555238,1.6859895714333333,-0.40759033249523813,2.541584324095238
3.339524294,1.5884039148980953,1.5502932397580953,-0.39991957092380964,2.5301726722857145
3.344446527,1.7289119632714285,1.4097577652319049,-0.3874792839904762,2.5303917277619044
3.349369231,1.8661939104666663,1.2656758654414286,-0.37157642558571435,2.540453448380952
3.354291694,2.002652105866667,1.1196680536938097,-0.35199056921428573,2.5636085943809523
3.359213925,2.137376722857143,0.9751727651604764,-0.329933569552381,2.599276639476191
3.364136385,2.2672847225714285,0.8339113379842858,-0.30319718928380957,2.646564108238095
3.369058846,2.3901978163809523,0.6993085244842857,-0.26958819000285716,2.7026997684285714
3.373981233,2.5077041047142856,0.5697770019080952,-0.22659714218857147,2.7665853570000003
3.378903674,2.6212770995714285,0.4447542386080952,-0.1780805224171429,2.8381615320952385
3.383826135,2.728187390761905,0.32414781336047627,-0.12153980899333339,2.9124218193809526
3.388748305,2.827760917809524,0.20741209669380958,-0.05460928220285719,2.9878357346666666
3.393670764,2.9181708665238095,0.0909963349080953,0.01860824176857139,3.0634193620952384
3.398593217,2.9955274434285712,-0.02580275852047613,0.09818171693523806,3.1348884990476185
3.40351545,3.0631993952380956,-0.13950489675857136,0.17593971623523808,3.204417821142857
3.408437909,3.122941823238095,-0.24835556318714283,0.24808805065428569,3.2713457141904763
3.413360305,3.1759448732857143,-0.3523061374633333,0.3166331480447619,3.3351359567142858
3.418282765,3.2208006382380954,-0.4511736617109523,0.3794046223828571,3.3921039482857145
3.423205226,3.258416777571429,-0.54850766063,0.4364937184066667,3.4433408193333332
3.428127464,3.2901502109523815,-0.6450442799490476,0.4855131473495238,3.490632439428571
3.433050154,3.318135306952381,-0.7427604226919048,0.5227084807590476,3.5364056968571433
3.437972618,3.342685688095238,-0.8408965638585715,0.5462555763171428,3.5822603598571425
3.442894835,3.3608422165714287,-0.9400331831833333,0.555585480012381,3.6269105200000005
3.447817217,3.370462451666667,-1.0397105692285715,0.55162176546,3.6685962518571427
3.452739445,3.373167787285714,-1.140838045438095,0.5319281935647618,3.709414293095238
3.457661904,3.367497205714286,-1.242390666690476,0.49345667075999994,3.748875118095238
3.462584366,3.355066061,-1.3455124753,0.43685343488380957,3.787995763
3.467506753,3.3378272056190474,-1.4491865720285713,0.36123357675333334,3.828261402714286
3.472429212,3.315913915619048,-1.5547873775285714,0.2713155288390476,3.868019392238095
3.477351445,3.2932220981428575,-1.664263044095238,0.16954329144857144,3.9092159876666672
3.482273919,3.2694341000952383,-1.7784184274142856,0.05995005330095235,3.9521918101428573
3.487196305,3.2499186197619045,-1.894085716642857,-0.056388801441904786,3.997341044952381
3.492118842,3.236171188809524,-2.0084401936904763,-0.1795354205847619,4.042619291857143
3.497041291,3.226906572095238,-2.1117200056666667,-0.3019288527276191,4.082944111
3.501963753,3.21854956947619,-2.2039918672380954,-0.41768890096571426,4.1148595982380956
3.506886214,3.2012923331428573,-2.2846089601428567,-0.5179608525466667,4.131400852142857
3.511808353,3.1725274835238095,-2.3547390983333334,-0.5968077584657143,4.1328500674285715
3.516730813,3.1339813300476194,-2.416011810333333,-0.6524244274600001,4.12360401347619
3.521653189,3.0854280902857143,-2.4696177585238095,-0.6781616165885715,4.108520649666667
3.526575649,3.0296933310000003,-2.5143848601428567,-0.6755660925933333,4.09260115952381
3.531497887,2.965518803809524,-2.5468189546666666,-0.6439406656219048,4.075366762619048
3.536420346,2.888955082190476,-2.5622849521904763,-0.5821651912933334,4.052061752619047
3.541342808,2.798454369809524,-2.5592226699047615,-0.4906239049228572,4.020588012380952
3.546265184,2.696211939752381,-2.5386008592857143,-0.3706523329895238,3.982943368
3.551187644,2.5820255137285715,-2.503674189333333,-0.22770905008000003,3.9405286931428574
3.556110106,2.4570658036238093,-2.457351139714286,-0.0640211879609524,3.8935430305238095
3.561032567,2.3217049510476193,-2.401400901095238,0.1173952441342857,3.839343414714286
3.565955029,2.177453432047619,-2.33519747147619,0.31171966941999996,3.7760121597619047
3.570877261,2.0274157151733334,-2.2589107525238097,0.51562576842,3.702327961
3.575799592,1.875035147708095,-2.172363613390476,0.7175315298961905,3.617299080380952
3.580722054,1.7147593907342855,-2.0738777575619047,0.9134672447057144,3.517502744761905
3.585644295,1.5470783921104763,-1.9608526599571425,1.102034769562857,3.4021969616666663
3.590566986,1.3681650116914288,-1.8397856099809522,1.2793047676104763,3.2733022435714285
3.595489142,1.1778429616438095,-1.715450846061905,1.4454460051342857,3.138808245714286
3.600411601,0.9802068199723809,-1.5927960348190473,1.5969495339914286,3.008288957190476
3.605334063,0.7782591990390476,-1.4722718412619047,1.7311129136580952,2.889616610095238
3.610256552,0.5802507185152381,-1.3566034649809524,1.8467645779533333,2.7924790042380954
3.615178785,0.3882824761819047,-1.2477089465333333,1.9413884359676192,2.7164423433809524
3.620101475,0.1983089118009524,-1.142935850847619,2.015244200057143,2.659341957666667
3.625023713,0.011994624181904752,-1.0418995704285714,2.0650913885190474,2.6206711585238094
3.629946173,-0.1737758533895238,-0.942952328504762,2.092855056095238,2.5963486399523807
3.634868559,-0.36154232591333335,-0.8506001383142857,2.097323247333333,2.5847422141904763
3.639790991,-0.5524758031990477,-0.7667289972190476,2.082692583380952,2.586928554
3.644713452,-0.747636379484762,-0.695284995295238,2.0495619659999997,2.6022204809047618
3.64963568,-0.9445534762371428,-0.6379465673619047,2.000189202142857,2.626449251809524
3.654558063,-1.1380264264514284,-0.5941265182761905,1.9373232523333332,2.6548343425714287
3.659480524,-1.3245635191085714,-0.5625550448619047,1.8612571500000001,2.6819358056666665
3.664402762,-1.5004387528657144,-0.5403601399333333,1.7729184314571431,2.705825737190476
3.669325452,-1.6677297561990476,-0.5272792364904761,1.6731982429285714,2.7291496664285715
3.674247916,-1.8294133301819049,-0.5236004775380951,1.5683004770619047,2.75490979852381
3.67917006,-1.9870938996214285,-0.5307445739095238,1.4623298105238096,2.7896317646190476
3.684092596,-2.1412343241238094,-0.5476202894047619,1.3565840472285715,2.8350141513333336
3.689015058,-2.291271706452381,-0.5758691444380952,1.2526311412714286,2.891738654190476
3.693937435,-2.4351578497,-0.6146130462714284,1.152629713365,2.9602333746190475
3.698859895,-2.5713051869857146,-0.6627456673809523,1.056127235107381,3.036942519666667
3.703782046,-2.699831428980952,-0.7202830967666666,0.9615381372502382,3.1210740598095237
3.708704582,-2.8200560524285714,-0.7887090955619046,0.8671631399978571,3.2110248372857138
3.713626973,-2.935177292095238,-0.8648186184142856,0.7727736190407142,3.3048457775714284
3.718549204,-3.0491950568095234,-0.9472227664333333,0.6791699044549999,3.4050092669523813
3.723471586,-3.160642533047619,-1.0371453818809524,0.5865696170407142,3.5095491066190467
3.728394361,-3.267269384285715,-1.1357079105857142,0.49620533399309524,3.616724133809524
3.733316516,-3.370139394476191,-1.2439114359380952,0.40963328435023805,3.7268592411904757
3.738238981,-3.466791198333333,-1.3576259648904763,0.33190261872642857,3.837227373285714
3.743161443,-3.5562558514761906,-1.475464589557143,0.25901171331214284,3.9445285597142856
3.748083904,-3.6344915685238095,-1.5922754463857143,0.19069252037880952,4.044153858238095
3.753006161,-3.7046410810476194,-1.7061951614619049,0.12574966516452382,4.138514564047618
3.75792862,-3.769734178285714,-1.8184276336904759,0.06503057000261905,4.2309071872380954
3.762851082,-3.8334932781428575,-1.9286906804380952,0.012211381511190476,4.325370588619047
3.767773454,-3.900107179380952,-2.040803818461905,-0.02802919063309524,4.427926298619047
3.772695684,-3.967278707619048,-2.157907911714286,-0.05469985801880953,4.53768582252381
3.777618087,-4.033068361761905,-2.281452718238095,-0.07390285672357143,4.6529035000952375
3.782540626,-4.090646448619047,-2.412099281904762,-0.08220052291880953,4.768974791047619
3.787463016,-4.136040698952381,-2.5516391764761903,-0.08324380856166667,4.883828488
3.792385476,-4.172241086095238,-2.700711800857143,-0.07717123697119048,5.000900668571428
3.797307708,-4.1980271793809525,-2.8602896984761905,-0.06345433156,5.1212051113333334
3.802230168,-4.213324217619048,-3.0287131808095236,-0.041014903178571434,5.244550149428572
3.80715263,-4.215670971714286,-3.2088782786190473,-0.009030522154761902,5.3724468098095235
3.812075091,-4.202611775714286,-3.398073570952381,0.029431429826190476,5.502377908857143
3.816997549,-4.174320436761905,-3.597690287,0.06993419091666667,5.634502183619047
3.821919935,-4.130290008809523,-3.805679048714286,0.11190219170238096,5.766459379238095
3.826842395,-4.071727627857142,-4.021462429047618,0.1541758110452381,5.898484103714286
3.831764608,-4.000663780095238,-4.23863208852381,0.19749990690714286,6.027024303666667
3.83668699,-3.9151282424285716,-4.457942133761905,0.2402315737547619,6.151598366857142
3.841609467,-3.8170216765238094,-4.680817853714285,0.28207400174523806,6.274539141095238
3.8465317,-3.706981783857143,-4.908557040238096,0.3262583338404762,6.396820153095239
3.851454188,-3.589743114666667,-5.142332099619047,0.37384995196904763,6.521982437428572
3.85637665,-3.464106934428572,-5.379114014666667,0.42443671343095235,6.6472994499523805
3.861299036,-3.3305770783333335,-5.613721881476191,0.4763676657166667,6.770172812238095
3.866221476,-3.1885109799523805,-5.846223547238095,0.5257710454319048,6.891309451428572
3.871143937,-3.0372124172380954,-6.076233216619047,0.5711166645761905,7.010995189428572
3.87606617,-2.8780985048571432,-6.30061577604762,0.6123811403857142,7.127883284714286
3.880988856,-2.711442992761905,-6.5181717985238095,0.6493646161809524,7.24228068004762
3.885911088,-2.544812764380952,-6.725876967047619,0.6776948556904762,7.35587962247619
3.890833548,-2.381667088838095,-6.921289580142857,0.6995256635285714,7.468038125571429
3.895755949,-2.221584175257143,-7.101195630523811,0.711109615495238,7.5733097819047615
3.90067818,-2.069037988038095,-7.262520222380952,0.711001424547619,7.6696842020952385
3.905600645,-1.9232501358761904,-7.405869824523809,0.696984900947619,7.756385927047619
3.910523106,-1.7854831388476191,-7.527770065142857,0.6688240440004762,7.8303620826190485
3.915445497,-1.6581294734571426,-7.629921686095238,0.6317750442480953,7.893118402428572
3.920367957,-1.5400337633,-7.710968017571428,0.5892735208671428,7.941317549523809
3.925290418,-1.4308257585047617,-7.772671018333333,0.5402119486004763,7.97528655852381
3.930212651,-1.3297803798952381,-7.816265832809524,0.4854358051385715,7.99530159847619
3.93513511,-1.2345565216380952,-7.847606113952382,0.42580008931,8.006000956380953
3.940057572,-1.1413185241380954,-7.866658823809523,0.36010694644333335,8.00711621847619
3.944980034,-1.0503294339761904,-7.871370565333332,0.28695637696238097,7.995972737000001
3.949902495,-0.9627587170333333,-7.861073335047618,0.20519071106714287,7.97181600852381
3.954824863,-0.8795462378047619,-7.8371805690952385,0.11613104598142858,7.935686964619047
3.959747093,-0.8065346663666668,-7.802610215714286,0.019573425971904763,7.891228018047619
3.964669784,-0.7445556194904762,-7.763384251428572,-0.08176890581857144,7.844143363190476
3.969591945,-0.6954773848666667,-7.7202214514285705,-0.18413914242333332,7.795538644190476
3.974514404,-0.6567826228333333,-7.673551128095237,-0.28469585945190473,7.745039191476191
3.979436637,-0.6264704309666668,-7.62762151452381,-0.382372332442381,7.696521241761905
3.984359351,-0.6024370008809524,-7.582841737000001,-0.47401752495190475,7.650219909619047
3.989281584,-0.5798240488476191,-7.542394956,-0.5532210511280953,7.608373370142857
3.994203972,-0.5515289547904763,-7.511182875952381,-0.6211619078566667,7.575785675000001
3.999126433,-0.5126205271180952,-7.4917073477619045,-0.6783580027328572,7.555592556380953
4.004048895,-0.45999409754666665,-7.487598964190475,-0.7261053351566666,7.551767034380951
4.00897137,-0.39122943083238093,-7.499729883142858,-0.767155526237619,7.566037031904763
4.013893603,-0.30242233614666664,-7.526662781142857,-0.8012864305285715,7.598235573714285
4.018816063,-0.19148662258476187,-7.563269161095239,-0.8343173364190475,7.644806757571429
4.023738439,-0.05644086140857141,-7.608251321952381,-0.8696668133142857,7.706068772095239
4.02866067,0.10174490446285718,-7.655011426904762,-0.9078966236761904,7.776346125333333
4.033583116,0.28120018761523813,-7.6966642652857145,-0.9463870496666668,7.848979319190477
4.038505577,0.47620600183428574,-7.7264770327142855,-0.9878817143666667,7.917764832523809
4.043427964,0.6792157590961905,-7.737218743380954,-1.030608094847619,7.975731334952381
4.048350423,0.8834574776485715,-7.725676513952382,-1.0719237128761905,8.01711481752381
4.053272885,1.085608567562857,-7.690606889333334,-1.107831188614286,8.03873604947619
4.058195108,1.2814320880009524,-7.633605207761905,-1.1338773767238095,8.037807845619048
4.063117567,1.4711297027533334,-7.551699751952381,-1.1466384246285715,8.008452765571429
4.068040029,1.654324132877143,-7.442142804476191,-1.1431249976285716,7.947100289619047
4.072962524,1.8289252762057142,-7.3052467391428575,-1.1250918564428571,7.853055190809523
4.077884986,1.9931773189819049,-7.140758207857142,-1.0943295203619048,7.727090252523809
4.082807373,2.1461150377819047,-6.948090837142856,-1.0524368563095239,7.57025435452381
4.087729631,2.2824356599819047,-6.728029637142857,-0.998563616095238,7.383332366952382
4.092652091,2.3994173252819047,-6.478633630904762,-0.9367455670285714,7.167206347142856
4.097574467,2.488985565586667,-6.196744725857144,-0.8664348040761906,6.9195645746666665
4.102496927,2.550338899952381,-5.880041911571429,-0.7865199958000001,6.642273623380952
4.107419165,2.5832178508761907,-5.526928856361904,-0.6994547560285714,6.336108088095237
4.112341624,2.5851729939190475,-5.138230709180952,-0.6053360899476191,6.006446595142857
4.117264086,2.552474660633333,-4.717435996542856,-0.5060925654,5.660894231333333
4.122186557,2.485475802804762,-4.271377751590476,-0.3988497086761906,5.308876718190476
4.127109019,2.3830182808523808,-3.803973068161905,-0.2822058030571429,4.956413287
4.132031486,2.2483574665261905,-3.327167432304762,-0.15532551491428573,4.608184910809523
4.136953872,2.0859753747214285,-2.844957545495238,-0.01987813762857145,4.2745722299999995
4.141876332,1.9028339430976189,-2.367185213114286,0.12363257299047618,3.9588148692380947
4.146798774,1.704827757345238,-1.8982547415904762,0.2727663801333333,3.6671724753809523
4.15172093,1.5019912778976188,-1.4483096891142855,0.4215232815619047,3.402784845285714
4.15664339,1.2990767120880953,-1.0184302054,0.5656406596095238,3.1715069401428573
4.161565851,1.1056249058785714,-0.6069361206380952,0.6987281357047619,2.974471395095238
4.166488079,0.9263960054214285,-0.21712377601904762,0.8214905205619047,2.816067897904762
4.171410539,0.7653658622547619,0.15095332045714288,0.9279170434190476,2.6960943207619046
4.176333,0.6221936723823809,0.4955802693619048,1.0203232822333332,2.611871502904762
4.181255387,0.4943945351052381,0.8217143153142856,1.0972497080571428,2.5629108055238095
4.186177618,0.37893114841666664,1.1318536989333332,1.1614415667190474,2.5476058356190476
4.191100318,0.27574638373761906,1.427737740504762,1.2119937567904762,2.5653501197619044
4.196022551,0.18377333718266667,1.7062400685523809,1.2494891399809522,2.6126104600476188
4.20094501,0.10390647835933334,1.9682602591238094,1.2762558517142857,2.6888898875714284
4.205867438,0.036832286817428575,2.211192209790476,1.2964739459047618,2.790998709857143
4.210789899,-0.018226616088285713,2.433823352057143,1.3148033221428572,2.9136776823333332
4.215712286,-0.05918228258495238,2.636325011638095,1.332172229142857,3.049170621952381
4.220634527,-0.08666823569638094,2.817289301333333,1.3513388462857143,3.1884012999047617
4.225556909,-0.09993799718209521,2.9773698193809524,1.374036942142857,3.323649526714286
4.230479472,-0.09424637803447619,3.1155183429047617,1.3998268955714286,3.4493731609523803
4.235401858,-0.06972923515590475,3.2361765305714285,1.42621113,3.5642048908571433
4.240324089,-0.024220617713047614,3.3383245298095234,1.449451894904762,3.664902555095238
4.245246549,0.04036352538695239,3.4254022439523815,1.468546276952381,3.754196832380952
4.250168935,0.12055362056790478,3.4952888148571426,1.4844547566190476,3.8315352322857144
4.255091395,0.2143590983012381,3.551324481095238,1.4976289952857142,3.900993486714286
4.260013938,0.32060181034885715,3.591835101476191,1.506565093952381,3.961012278047619
4.264936325,0.43651899770123814,3.6187955765714284,1.5102944714285715,4.0142118824285715
4.269858785,0.5625466654917143,3.6329217184285714,1.5030360391904762,4.060691573571429
4.274781236,0.698552235610762,3.6373181456666663,1.486267470142857,4.107346317904762
4.279703469,0.8487421401021904,3.632805233952381,1.4577750904000002,4.157454582428572
4.284625928,1.0153998046174284,3.617925995904762,1.4165572835904763,4.211873020285714
4.289548305,1.1976294760679047,3.5943040848095245,1.3629445201042858,4.270714312
4.294470536,1.392158052318381,3.5655071849523816,1.2989260442280952,4.332646339285715
4.299393226,1.597085965206667,3.535672380904762,1.2261028035900001,4.3989866685238095
4.304315387,1.8117692946490476,3.5043725740952385,1.145691091285238,4.467613089285715
4.309237924,2.031689765762381,3.4714054267142855,1.0578485218185716,4.536428789
4.31416032,2.25734442243,3.439755383047619,0.9613385230709524,4.607509299380952
4.31908278,2.4837563194361905,3.412173100952381,0.8629881883566666,4.680703952047619
4.324005241,2.7139176009285713,3.3948158082857143,0.7609501412185714,4.7626475377619055
4.328927469,2.9445381646714286,3.390635388285714,0.6530194284519047,4.854396060619048
4.333849929,3.1699242492380955,3.401431537857143,0.539386140642381,4.956553679952381
4.33877239,3.388802006114286,3.424991301142857,0.4217270472757142,5.068719542285714
4.343694526,3.595640097333333,3.458049251952381,0.30159837879952384,5.187314758619048
4.348616986,3.788636343809524,3.4987994489523806,0.1798759047995238,5.310599215333333
4.353539456,3.9659441482380955,3.5451811495238097,0.05630585713761905,5.434899820142856
4.358461843,4.127720480857143,3.5959052926190473,-0.06661157076714286,5.559563564285714
4.363384317,4.276708046571429,3.649550960190476,-0.18829076324333333,5.685443258809523
4.368306779,4.4159429981428575,3.700570015666667,-0.30833947919571425,5.811109581142857
4.373229012,4.547745420809524,3.747165259857143,-0.42621666738619046,5.937660392238095
4.378151471,4.671567031333334,3.7873061611428573,-0.5414661422433333,6.061860713380953
4.383073933,4.785349993523809,3.8233985900476193,-0.655081141357619,6.183092395952381
4.387996394,4.888597794952381,3.854870160380952,-0.7663193286433332,6.299488066523809
4.392918836,4.9848932765714284,3.879316545619047,-0.8739460869666666,6.4102904131428575
4.397841222,5.081211612333333,3.8901054971904756,-0.9794306527571428,6.516858482190476
4.402763682,5.18167675104762,3.8860821609523812,-1.0838566507380951,6.62194661647619
4.407685814,5.285315717904762,3.867888632190476,-1.1882552702904763,6.7250879812380955
4.41260835,5.391112236714286,3.8407812571904762,-1.2910370741095238,6.826604866666667
4.417530766,5.4990766389047625,3.8030651636666666,-1.3873160679809524,6.924345521714285
4.422453225,5.610818408809524,3.754417498809524,-1.4821032086476191,7.0193767996666665
4.427375453,5.721677507666667,3.6944069748095236,-1.5769508721761902,7.107493146190476
4.432297913,5.832794507333333,3.6249946865714286,-1.6714502998380953,7.189942993952381
4.437220374,5.942587466428571,3.5455269131428575,-1.762120492361905,7.26392506995238
4.442142766,6.046861149,3.461396864428571,-1.842427968947619,7.326774730333334
4.447064997,6.140762964857143,3.374017488333333,-1.9081323515666666,7.374086258285714
4.451987687,6.220014662952381,3.285255432095238,-1.9526467323285712,7.402068652714286
4.456910156,6.283998761809523,3.198685589285714,-1.9711304023333336,7.411609349095237
4.461832386,6.331883385047619,3.115599723047619,-1.9645856874523806,7.40447555795238
4.466754846,6.363067104714285,3.036595140142857,-1.9335714962238095,7.382175500428572
4.471676987,6.371388639714285,2.9667102836190473,-1.8721992079452383,7.343685068619048
4.476599446,6.3575511659999995,2.9048199426190475,-1.7814135413690475,7.2906604916190485
4.481521899,6.322477704000001,2.850690467,-1.6681523525785715,7.224470527333334
4.48644436,6.271829786714286,2.801696232380952,-1.5329557803404759,7.148035877523809
4.491366822,6.208897931238095,2.7548695178095235,-1.3780956868642857,7.0615888655238095
4.496289213,6.136788867809524,2.7038229987619045,-1.2102014994357142,6.964428795952381
4.501211672,6.059230759095238,2.6458219914285714,-1.0346504085309522,6.858364421095238
4.506133905,5.978522278095237,2.577683562333333,-0.8539726937214286,6.745313685714285
4.51105637,5.898698738714286,2.4996917077619045,-0.6724294570547619,6.630006359952381
4.515978831,5.823890981285714,2.404684801923809,-0.5017651295833334,6.515555856333332
4.520901293,5.753957112666667,2.2923645590190476,-0.3518718968166667,6.405466020619048
4.52582366,5.687203588952381,2.158118179890476,-0.22294713675952385,6.301296034714286
4.53074612,5.624845118761905,1.9981564680952377,-0.1029103300261905,6.2058094249047615
4.535668348,5.5698609806190476,1.8073472749999997,0.006862144627142834,6.123596863428572
4.54059073,5.522802511857144,1.589160851095238,0.10490605188428571,6.057078621952381
4.545513201,5.4859047389999995,1.3427250952857142,0.18570386182238097,6.010024527238095
4.550435434,5.458220981428571,1.072083280190476,0.24183905364619046,5.982895974380952
4.555357893,5.437788645428571,0.7812888054285714,0.26835276640809524,5.974712221
4.560280379,5.427093074428571,0.4731445652857142,0.26136186255095234,5.986888098761905
4.56520284,5.425656840904762,0.15341762133333323,0.22395481343190476,6.016529672714286
4.570125227,5.428783166952381,-0.17349814233333344,0.16297710044142857,6.05640603447619
4.575047672,5.442823387333332,-0.5043545677619049,0.07984095949619048,6.106833847190477
4.579970134,5.4597549665714284,-0.833514224904762,-0.016646754222857146,6.159045806142857
4.584892595,5.467794191285715,-1.1623029822380953,-0.11351042139428572,6.202265412047619
4.589814838,5.459425154238095,-1.4876307532857145,-0.20430204133238095,6.231461326666666
4.594737298,5.432473443809523,-1.806091933,-0.2871243755085714,6.247178089666666
4.599659759,5.382903212571429,-2.1110007876190475,-0.3571063762847619,6.250931918761905
4.604581924,5.304588124809524,-2.3937602610476194,-0.4105200441371429,6.239995727761904
4.609504384,5.199677217523809,-2.6493413561428576,-0.4487771888752381,6.213871826904763
4.614426845,5.068109410095238,-2.880955542761905,-0.4711395686657142,6.173315697333333
4.619349322,4.909228796000001,-3.0865901622571426,-0.4700849013752381,6.11937585447619
4.624271783,4.722698081047619,-3.2659607798285712,-0.4431679944276191,6.050982421523809
4.629193939,4.513525463238095,-3.4171976360809526,-0.392370706532381,5.9697682061904755
4.634116408,4.282591172619048,-3.5398166859523816,-0.3324265654085714,5.872210603666666
4.6390391,4.0279193662571435,-3.6312836804761908,-0.2629084218238096,5.752166738095238
4.643961333,3.7516934105380946,-3.6959386324761905,-0.18373070727142857,5.612617708571428
4.648883778,3.4537501725523816,-3.736271642333334,-0.0945629945904762,5.456258758714286
4.65380624,3.1442978815041576,-3.759793258666667,0.006754289061904751,5.293697208428572
4.658728627,2.8393788437184426,-3.7750228811904756,0.11841862396666666,5.135703639666667
4.663650842,2.5473109872551096,-3.786005076761905,0.23505481506190473,4.982544352000001
4.668573302,2.2770273109122523,-3.7942252157619047,0.34946905286666663,4.8339653174285715
4.673495679,2.029994938183681,-3.7975561049523803,0.4578024333238095,4.690964105095238
4.678418138,1.7967823280932047,-3.7989294413809525,0.5573480029714285,4.5532937154285715
4.6833406,1.5742544664789193,-3.7979125975238097,0.6471173834142857,4.424025437809523
4.688262843,1.363753428588443,-3.793669984333333,0.723170287547619,4.309714907
4.693185302,1.159794087673062,-3.7897692179523808,0.7835227619999999,4.215773971761904
4.698107689,0.9622536157444905,-3.786097935142857,0.8324973327714285,4.140951993047619
4.703030153,0.7763681381159192,-3.782630704571429,0.8692011435761904,4.083984314666667
4.707952615,0.6070325173825857,-3.781699748142857,0.8951758103666666,4.044770319714286
4.712875076,0.44865461736830003,-3.7855930781428575,0.9147555246238096,4.020443017714286
4.717797519,0.29996433408258566,-3.7964495590000005,0.9324377136523809,4.0123019736190475
4.72271998,0.15966928836830002,-3.8159244173333335,0.9504980458904763,4.021455500571428
4.727642136,0.030895814844490475,-3.8463335150000004,0.9708204255095239,4.049037256571428
4.732564581,-0.09124223691741429,-3.8888432297619047,0.9902623253190477,4.093429730761905
4.737486814,-0.2109710462507476,-3.9459790274761906,1.0095761829857142,4.157237864904762
4.742409268,-0.32867456922217614,-4.021649315190476,1.0282732290809524,4.2428805573809525
4.747331655,-0.443170473884081,-4.113846358761905,1.0436862295095237,4.347070823809524
4.752254124,-0.5453176635174143,-4.218864247904762,1.0542430408904762,4.463791549285714
4.757176586,-0.6345394745644285,-4.328884397238095,1.0585677098428572,4.583733794523809
4.762098819,-0.7203105704453809,-4.436758722571429,1.057052423557143,4.700437443476191
4.767021313,-0.8112151417439523,-4.539430005190476,1.053639756747619,4.8129883398095235
4.771943775,-0.9187242836391905,-4.640577497904762,1.0513413761,4.926058093380952
4.776866236,-1.0456914724820474,-4.743572257809524,1.051422614395238,5.043713377238095
4.781788678,-1.191933951963,-4.848076843047619,1.0522677571666665,5.167776693238095
4.786711065,-1.3509152808725238,-4.955396561333333,1.0508663753333334,5.301184028095238
4.79163329,-1.5168056197439523,-5.0654001349047615,1.0415633753285714,5.445053654952381
4.79655575,-1.6843550928761903,-5.173431646238095,1.022028185212857,5.596469659476191
4.801478112,-1.8525371863285716,-5.282157171333334,0.9922298045366669,5.755834808428571
4.806400572,-2.0279685598904758,-5.391991603952381,0.953742279322381,5.924154016142857
4.811323034,-2.2107769420619046,-5.503232320190476,0.9071108026128571,6.099652925619048
4.816245271,-2.4013339536190474,-5.61591661547619,0.8513718965461905,6.281982952095238
4.821167731,-2.597966336047619,-5.728641328380952,0.7852075661938096,6.467449760999999
4.826090118,-2.798891992761905,-5.840613842047619,0.7095684240414286,6.653208218380953
4.831012577,-3.0044972726190475,-5.952107179761906,0.6247155185366667,6.838368446428571
4.835935116,-3.207300464285715,-6.061826751380953,0.5372723307080952,7.01894247204762
4.840857488,-3.399703979476191,-6.165869008952381,0.4517720461247619,7.1898183039047625
4.845779948,-3.577639034761905,-6.261572678904762,0.3717901421757143,7.346512668619048
4.850702181,-3.7395422628571433,-6.353774729238095,0.30052138004238094,7.492525089571428
4.855624568,-3.8911442075238094,-6.443287122809524,0.23599347535666668,7.631130126714287
4.86054703,-4.036239260666666,-6.535460789999999,0.1798559986852381,7.769208600952381
4.865469276,-4.174179315523809,-6.632223061142857,0.13386380733761905,7.908616459904762
4.870391736,-4.301128324952381,-6.737444082904762,0.09611280821857145,8.051578196190476
4.875314198,-4.4140508514761905,-6.850538753333333,0.06641247576619048,8.196995314333334
4.88023657,-4.509116138666666,-6.972281524095239,0.042178237285238104,8.344364239142859
4.88515903,-4.581808328571428,-7.102506274285714,0.02220742768904763,8.491836952333333
4.890081491,-4.632512853190476,-7.242963654714286,0.007576285135380963,8.640555345428572
4.895003723,-4.664009423428571,-7.391722770000001,0.0006105711177619152,8.789167749761905
4.899926413,-4.674289090238095,-7.550812426095239,0.003495285405380963,8.937644589714287
4.904848646,-4.666245381,-7.718703156476191,0.013360856575380962,9.08521019309524
4.909771106,-4.637027536095238,-7.893606571952381,0.028271523647761917,9.228413809761904
4.914693492,-4.589543728571429,-8.074649878714286,0.04622419075252382,9.367969930000001
4.919615733,-4.521905717333333,-8.26134883747619,0.06581047712395238,9.502587245857145
4.924538193,-4.436438140333333,-8.44680543152381,0.08733104846204763,9.627361284666668
4.929460895,-4.331583965333333,-8.629227638095237,0.10870700119538095,9.740857406142856
4.934383128,-4.207263310666667,-8.805654003190476,0.13218928699061905,9.84170501190476
4.939305587,-4.067382596714285,-8.974231515095239,0.1549066202525238,9.931654265904761
4.944227988,-3.9183527968095238,-9.132508912952382,0.1755971439596667,10.011205637238096
4.949150219,-3.7677168845238094,-9.277570610142858,0.19268171482776192,10.081174039
4.954072601,-3.619353941428572,-9.402882507047618,0.20460742847538096,10.13729834752381
4.95899513,-3.4721075238571433,-9.512774807238095,0.2157846177658571,10.18320052190476
4.963917593,-3.323203943952381,-9.607170149571429,0.22655033207061906,10.218065194142858
4.968839978,-3.17133707652381,-9.690551529904761,0.23192633184680952,10.24567154457143
4.973762409,-3.0194565908571427,-9.758182116047621,0.23409318916585717,10.262634433142857
4.978684641,-2.8701503049047616,-9.807875950285714,0.232193569975381,10.266695884190476
4.983607029,-2.724499492333333,-9.842518396904762,0.22621399856052385,10.260122976761904
4.988529491,-2.581164632438095,-9.863453864190475,0.21219137949480954,10.243496965428571
4.993451967,-2.4369555881428573,-9.87185305552381,0.18506271318657147,10.217588425904761
4.9983742,-2.2846629164761905,-9.872145334,0.1456162381137143,10.185470524095237
5.003296687,-2.1205844438619046,-9.862189973190477,0.09281109742752382,10.145182524
5.008219074,-1.939852725834762,-9.837366421095238,0.023074764481333356,10.093092633095239
5.013141534,-1.74491786383,-9.794902846,-0.06687756850057142,10.028815656142857
5.018063766,-1.5420198610300002,-9.731968470285713,-0.1754431849767619,9.95089184057143
5.022986226,-1.3384190513538095,-9.647109576190477,-0.30139466384819047,9.859189796190476
5.027908918,-1.136803246639524,-9.545188221952381,-0.44242132607199997,9.757699112333333
5.032831147,-0.9449809079680952,-9.431230271857142,-0.5935477498434286,9.649971495333334
5.037753607,-0.7704136172633334,-9.30439181504762,-0.7481650395624762,9.53249096347619
5.042676068,-0.6170266610919047,-9.168906552142857,-0.8963336133291429,9.40584692447619
5.047598204,-0.48304770814904757,-9.029875391904763,-1.0236596633100954,9.270215116095239
5.052520664,-0.3666009462966667,-8.890626362380953,-1.1207512330862859,9.12728639804762
5.05744305,-0.2609259475347619,-8.75747832795238,-1.187403042872,8.985766249142857
5.06236551,-0.1638335165095238,-8.629802681142857,-1.2253680425481905,8.848349325809524
5.067287986,-0.07338989895714286,-8.508464177428571,-1.232203185319619,8.719106573714285
5.072210448,0.012783860366666662,-8.392420904952381,-1.2101427087196188,8.59947184142857
5.077132681,0.10486471743809525,-8.289067767904761,-1.169547280872,8.49683962042857
5.082055163,0.20914867185238095,-8.201536360238096,-1.109463850433905,8.41489328242857
5.08697755,0.32896133637619046,-8.125262964333334,-1.0338207057666668,8.349165544
5.091900086,0.4660280015285714,-8.058118070857144,-0.9412995633809524,8.298199967333332
5.096822464,0.6183071855190476,-7.994011629190476,-0.8351554672238093,8.255700647000001
5.101744923,0.7821579471380952,-7.927323999857143,-0.7200441360714285,8.216624188761905
5.106667385,0.9512970953809524,-7.856889861,-0.6042702312142856,8.178647156047619
5.111589608,1.122079137782381,-7.785146213714286,-0.48874708588095234,8.144089448190476
5.116512067,1.2954209513014285,-7.715390500571428,-0.3721279445571428,8.115932230142857
5.12143445,1.473602190834762,-7.645495914238095,-0.25795399436190475,8.092402242761905
5.126356909,1.6572032353014283,-7.572864850285713,-0.14605489660476187,8.070420728142857
5.131279371,1.8422442939204762,-7.491666998095238,-0.037525328880952336,8.043120701285714
5.136201618,2.0259963850585714,-7.394106569666667,0.06985190508571432,8.001486869619047
5.141124,2.2064055781157146,-7.277176266523808,0.17227186049047624,7.942216671380953
5.146046462,2.383461493325238,-7.136393206380954,0.262318672152381,7.863553795380953
5.150968924,2.5572607398585716,-6.969339529571429,0.330476293952381,7.766842770809523
5.155891385,2.729037119720476,-6.775898910619047,0.3673106729761905,7.653653808047618
5.160813856,2.89022021053,-6.551073812238095,0.37442143614285717,7.514965904095238
5.165736088,3.0367878321238093,-6.294924821095238,0.3561835303000001,7.34771897747619
5.170658548,3.164033405190476,-6.004130164714285,0.31269181766190485,7.147830133047618
5.175580694,3.2687193155809524,-5.678610693795238,0.25100505633809533,6.915284931809524
5.180503384,3.34029769617619,-5.3148017468376185,0.18376505658571435,6.65032017352381
5.185425848,3.378115835666667,-4.911150594485239,0.11425295933238099,6.362404712238094
5.190348007,3.380013738380952,-4.472778067628095,0.045626100665714334,6.064324589523809
5.195270466,3.3461995011428574,-4.004068303628095,-0.022250517858095193,5.767380475190476
5.200192928,3.275821600647619,-3.512780402342381,-0.08479894803428567,5.477978926714286
5.20511515,3.1698196473428575,-3.0041170659138094,-0.1400023276628571,5.199958876285714
5.21003761,3.0304813086619045,-2.4830257296280953,-0.18043252008190472,4.936674154904762
5.214960072,2.859239933,-1.954146155294762,-0.203590619067619,4.687887177619048
5.219882538,2.6610221195628574,-1.4205619806757146,-0.20852409551523804,4.452044813523809
5.224805,2.441060785724762,-0.8935922981042859,-0.19513371480571426,4.228776165
5.229727386,2.2080929783104764,-0.3773815263900002,-0.16714595222952378,4.0224276548095235
5.234649846,1.9688936351390478,0.1215399587528569,-0.12812090523428568,3.837925601190476
5.239572079,1.7305637335771429,0.5995198685623807,-0.0874863348580952,3.680970210095238
5.244494432,1.5021952064342856,1.0493648192766665,-0.04891395320809519,3.555268083190476
5.249416894,1.2888257673771428,1.4661715398480948,-0.013765286122380916,3.459016692904762
5.254339355,1.0911684252785716,1.8494423484671425,0.012835761620476227,3.393875431761905
5.259261831,0.9108518545733333,2.1994274484671426,0.030751714396666702,3.357759782476191
5.264183987,0.754643287587619,2.5129071104195235,0.0395423322919048,3.3516677220952382
5.269106446,0.6243099987780953,2.7930027841338094,0.03515804736809528,3.3756924385238096
5.274029,0.518786426692381,3.0414212174671427,0.0171136182014286,3.431792458666667
5.278951386,0.4363488972542857,3.2593670202623803,-0.014355572217619014,3.513732103571429
5.283873846,0.3759770413685714,3.4485501674476184,-0.06045038146523806,3.618792585285714
5.288796059,0.3329094725590476,3.6098156031428568,-0.11880652216428567,3.7351741925238096
5.293718518,0.3077568545733333,3.743812447428571,-0.1855427144023809,3.8507958989523807
5.29864098,0.3023972843828571,3.8521251677619044,-0.2579948096880952,3.956773812476191
5.303563132,0.32157795121142857,3.939101366714285,-0.3342534264642857,4.052471062142857
5.308485591,0.36585042794476186,4.007516327333333,-0.40871257193095234,4.13648350047619
5.313408053,0.4353480969590476,4.059949193666666,-0.48003600217857145,4.2090633743809525
5.318330424,0.5285298106685714,4.099120140095238,-0.5447595733214284,4.272009717952382
5.323252884,0.6377373400580952,4.1265198503809515,-0.6005824282738095,4.325647841333334
5.328175355,0.757508102515238,4.145702328047619,-0.6437256183595238,4.373045945285715
5.333097817,0.8790982960723808,4.156348137666666,-0.6704012854452381,4.412675296619048
5.338020293,1.0026688177676188,4.159724894095238,-0.6818266191619047,4.446220627285714
5.342942448,1.1283885268057143,4.155264286857142,-0.677838714347619,4.4731650532380955
5.347864985,1.2545483373771429,4.148035004095238,-0.6614438572071428,4.498295308952381
5.352787436,1.37905238272,4.139839989857143,-0.6338955238452381,4.523897358285715
5.357709823,1.503680615437619,4.131325267666666,-0.596408048197619,4.5507703204761905
5.362632283,1.6270549048571428,4.118827695,-0.5496926183452381,4.575814696666667
5.367554482,1.7481200510333335,4.104480414238095,-0.4976847601023809,4.601907406809524
5.372476865,1.8646725302238094,4.088798931761905,-0.44117914104523803,4.628030874904762
5.377399322,1.9803092961666668,4.07113730352381,-0.3811691889404761,4.654332318714286
5.382321783,2.0926982958428573,4.054258210428571,-0.3191810466499999,4.681156341
5.387244016,2.203167481014286,4.035335824714285,-0.25682361813095234,4.705591055428572
5.39216649,2.3110017179666666,4.011657294857143,-0.1971722393638571,4.725084854571429
5.397088952,2.4159480957142856,3.9832437833809524,-0.140909713928619,4.740383016333333
5.402011339,2.5174021947619045,3.949077492761905,-0.08665804735719045,4.752058474904762
5.406933793,2.6130569094285714,3.9058583919047614,-0.03608623957623808,4.757834548761904
5.411856255,2.7042493819523807,3.850960152571428,0.006762715023761922,4.758677180619047
5.416778716,2.795946382285714,3.781279336904762,0.03957428717138097,4.756953377285715
5.421700935,2.8855952421428577,3.6966746762380955,0.05824409678566668,4.751831083666667
5.426623395,2.9746112936666664,3.6005181131428565,0.059156953276142864,4.746124891142857
5.431545776,3.0607714766190477,3.4940196276666664,0.04121076108090478,4.738286000571429
5.436468236,3.149134704,3.377122765619047,0.0034066187332857326,4.731078751666667
5.441390454,3.239508662857143,3.250335767285714,-0.05139375931671427,4.724669596476191
5.446312836,3.330783662333333,3.114277760333333,-0.12241194709290475,4.719315218285714
5.451235298,3.423318942380953,2.9686470828095235,-0.20549242047861901,4.714649256571429
5.456157575,3.5164381776666667,2.8157573258761905,-0.30152537063576185,4.713070127761904
5.461080034,3.610234748761905,2.6567609056190475,-0.4084435154452856,4.715904785190476
5.4660025,3.706560305190476,2.4994791435190473,-0.5237578486690951,4.729213419
5.470924886,3.8030481224761905,2.346364620290476,-0.6444672778452857,4.75203092052381
5.475847423,3.902899537761905,2.1981485231571427,-0.7676257512071905,4.785687540333333
5.480769814,4.001911481238095,2.055680763228571,-0.8895250423690952,4.824040645904762
5.485692351,4.0997479075714285,1.920832052190476,-1.0057113759452858,4.863685320666667
5.490614737,4.192517098952381,1.7959164353333332,-1.109172332131,4.900198958285714
5.495536968,4.278018758428571,1.683465529142857,-1.1935199985647618,4.929752213714285
5.500459351,4.355633383714285,1.5826977634285715,-1.2558273318571427,4.951546551714285
5.505381807,4.419487283333333,1.494537379142857,-1.2937717125857142,4.962471681904762
5.510304269,4.466974894190476,1.422506761047619,-1.3045071420571428,4.964267036428572
5.515226502,4.4970653624761905,1.3674895679047618,-1.2870176658380952,4.960034875952381
5.520148981,4.501883836,1.3309350440476189,-1.2376954282666666,4.947408124333333
5.525071368,4.483115786571429,1.3102861899047618,-1.1546892875142856,4.929592217142857
5.529993904,4.446316162714286,1.2997805703809522,-1.0416112893571428,4.908903266
5.53491631,4.400418213428572,1.2993157619999998,-0.9044283837904762,4.891827203380952
5.53983877,4.343885841809524,1.3081096212380952,-0.7443112457857143,4.876529188523809
5.544761231,4.279326121,1.3209510956666666,-0.5625506281190475,4.8627563852857145
5.549683454,4.210867075666667,1.334697186952381,-0.3629065791190476,4.849771771571429
5.554605913,4.140189125428571,1.3419052845238093,-0.14862705807142854,4.835768870190476
5.559528295,4.071293796809523,1.3368639520523808,0.07824580050000002,4.820301853714286
5.564450526,4.003111566809524,1.3156080473333331,0.31233614007142857,4.798797081476191
5.56937325,3.9363143444285718,1.274728569985714,0.5479774719761905,4.770482798380952
5.574295483,3.8718645232380955,1.211396333038095,0.7778543308333334,4.734200931428571
5.579217943,3.8068903855238094,1.1215523304095238,0.9968009921190476,4.689366257761905
5.584140334,3.7461823395714284,1.002631618147619,1.200543473547619,4.645426247238095
5.589062794,3.6919330075238097,0.8519681883761903,1.3841010464047618,4.609258397095238
5.593985255,3.645448877761905,0.671014135090476,1.546684431595238,4.587562505095239
5.598907488,3.6110215982857143,0.4628252266619046,1.6758674316523812,4.585217517380952
5.603829948,3.587039595666667,0.2336592241380951,1.7696945742380952,4.602085677047619
5.608752409,3.5739725545238095,-0.011924247671428724,1.8261657162714289,4.6371255707619055
5.613674791,3.5703980923809517,-0.27048063067142875,1.8453750979087618,4.685281817
5.61859725,3.567630052666667,-0.5369503874333335,1.8296890978754288,4.73532708
5.623519493,3.5650877726666668,-0.8066142492428573,1.7820356711468572,4.781950084476191
5.628441876,3.555234205238095,-1.0749869665761906,1.7091904831992384,4.815193473857143
5.633364332,3.5322428658571425,-1.3373599598619048,1.621937913506857,4.828871681333333
5.638286794,3.4964511508571428,-1.5935847624333337,1.5289161041544763,4.82415568547619
5.643209027,3.456382058952381,-1.8402268638142858,1.4329001086925715,4.804790313095237
5.6481315,3.4082175379999997,-2.069995815576191,1.3359662499354286,4.769160916619048
5.653053887,3.3507339670952385,-2.2793824765285717,1.2473142011735239,4.722775398380953
5.657976346,3.281643209047619,-2.4649064292904765,1.1699405830306666,4.6719832509999994
5.662898794,3.1988785891904765,-2.621486956933334,1.1052472002211429,4.619589456476191
5.667821255,3.102637444285714,-2.750093912147619,1.054960339554476,4.569583330904761
5.672743717,2.9900614875285716,-2.849705727366667,1.021756147364,4.519853369142857
5.677666174,2.859282629885714,-2.92270877252381,1.0062662398401907,4.4692824706190475
5.682588406,2.7093309207238097,-2.9687522933809527,1.010022388316381,4.415700655809523
5.687510784,2.538880541966667,-2.985661200095238,1.0321676255544763,4.3508418868095236
5.692433017,2.351256924405238,-2.9748030049523813,1.0699254366497142,4.270463970095238
5.697355467,2.1522788671757147,-2.9408496675238096,1.117360527316381,4.174181862809523
5.702277929,1.9460543450852381,-2.888225612238095,1.1774740055925714,4.062443227095239
5.707200319,1.7373730121519046,-2.8246471314285717,1.2475219092449525,3.9400066454285714
5.712122779,1.5296620073857143,-2.756093229571429,1.3265485756544761,3.811522059142857
5.717045318,1.3290860972266667,-2.687038228619048,1.4092581468028573,3.6793387453333333
5.721967488,1.1401082429938096,-2.620215665714286,1.4908537634933334,3.549621360666667
5.726889871,0.9635510950366667,-2.557418516714286,1.564200998502857,3.4265645906666666
5.731812389,0.8012781383023809,-2.498123225761905,1.6257677104028572,3.3169523298095234
5.736734853,0.6535740919309524,-2.4471308504285716,1.6747208047000002,3.227677655
5.741657238,0.516295430092857,-2.406240474666667,1.7119977560285715,3.1588280758095237
5.746579688,0.38110818739285723,-2.373987232,1.7377701374238097,3.1044518081904764
5.751501921,0.24569928066904761,-2.3512118544285716,1.752731754752381,3.067145865714286
5.756424289,0.1091130459547619,-2.3381839025714286,1.750323085609524,3.0439320914285717
5.76134675,-0.030873383949999996,-2.331872383761905,1.7286955629428573,3.030839064333333
5.766268974,-0.17571557152142855,-2.3323558511904765,1.689155561609524,3.0258836665238094
5.771191433,-0.3270062834261904,-2.335067658142857,1.635238894404762,3.026881324952381
5.776113895,-0.48602180838333336,-2.3411775543333335,1.5676974200047618,3.035756525
5.781036277,-0.6501796644547619,-2.3474431264761906,1.4914782302857144,3.0535061086190476
5.785958736,-0.8181653748166666,-2.351682083952381,1.4110459430000002,3.081390483952381
5.790881198,-0.9898135160119046,-2.357780411142857,1.3278653735190478,3.1215218144285717
5.795803654,-1.1658713737838096,-2.366789363666667,1.245296038309524,3.176137851285714
5.800726116,-1.347207416935238,-2.377051364761905,1.162549946957143,3.243470075095238
5.805648349,-1.533562087082857,-2.389678364666667,1.082774372295238,3.322662246095238
5.810570808,-1.726734088482857,-2.4013564132380956,1.006198135104762,3.4111720154761906
5.815493195,-1.9259112280499997,-2.412334601047619,0.932398374552381,3.506331917809524
5.820415416,-2.134850471700476,-2.4213945070476193,0.8645022795142858,3.6093645695714285
5.825337875,-2.348547996372381,-2.4325914610000003,0.8068668529857144,3.7202325751428567
5.830260267,-2.562236717462857,-2.4505637486666667,0.7606354270428571,3.8403271704761903
5.835182726,-2.767282992633333,-2.479616176476191,0.7240718106095239,3.9690113065714288
5.840105265,-2.9604122809285713,-2.5172036488095237,0.6954080973047618,4.100325088047619
5.845027421,-3.138466133995238,-2.5596354120476192,0.6712345267761906,4.227228173190476
5.84994988,-3.298871755628572,-2.612696170714286,0.6490357645619047,4.352864721714286
5.854872342,-3.4390365623809522,-2.6791290668571426,0.625331005852381,4.478614778761905
5.859794808,-3.56240703952381,-2.7565169333809525,0.6003796245285715,4.6048666350000005
5.86471727,-3.6699168001428566,-2.843314647619048,0.5756661451952381,4.731149239809524
5.869639656,-3.764893463714286,-2.9366997082857145,0.5521768118619048,4.856550383666667
5.874562101,-3.8481520358095236,-3.038371983047619,0.5317681445952381,4.9821585126666665
5.879484563,-3.922330311428571,-3.148414736714286,0.5162653823714285,5.108849927904762
5.884406694,-3.9877840678571426,-3.266091062904762,0.5064258107142857,5.235491021952381
5.889329231,-4.042703208523809,-3.393498295809524,0.5034199513190476,5.3613503167619045
5.894251707,-4.086875120809523,-3.5298698175238097,0.5102045209666667,5.485903699190476
5.899173863,-4.120661553904762,-3.671245018619048,0.5251410901761905,5.606497457
5.904096323,-4.145908174047619,-3.8171811103809525,0.5470161878142856,5.724011932190477
5.909018784,-4.168797175047619,-3.9663162458571426,0.5743767150952381,5.842055852761904
5.913941246,-4.1893596421904755,-4.1177504857619045,0.605075524,5.959640319285715
5.918863693,-4.210481938857143,-4.271731967047619,0.6380979532666666,6.079600929523809
5.923786079,-4.229813734666667,-4.431720256857143,0.6728744776857143,6.202578069904762
5.928708539,-4.246719451142857,-4.595820642666667,0.7071208599285714,6.328170438761904
5.933630986,-4.259543782142857,-4.76088664647619,0.7400193824857142,6.454056788714286
5.938553219,-4.272111211476191,-4.926060120285714,0.7709709065523809,6.582827842238094
5.943475607,-4.282210168380952,-5.092439038476191,0.7989128587,6.714476366
5.948397839,-4.290711175809524,-5.261312132857143,0.8233799537238095,6.850851150571428
5.953320313,-4.297486134904762,-5.432992413000001,0.8446137621523808,6.992724525619048
5.958242775,-4.298305522761905,-5.607601029571429,0.8631093331999999,7.138071215190477
5.963165166,-4.286316190380952,-5.7874341692857145,0.8808456659571429,7.285412232142857
5.968087397,-4.25842447504762,-5.973303318095238,0.8951472867380953,7.433649400714287
5.973009856,-4.209022521952381,-6.168054421809524,0.9068805235095239,7.583292540952381
5.977932332,-4.131583758714286,-6.373385679190475,0.9148810960285714,7.734818909333334
5.982854794,-4.020826436142857,-6.590149584285714,0.9177652398999999,7.88805089652381
5.987777255,-3.8784127745714287,-6.818229448238095,0.9124812398857143,8.045091579428572
5.992699722,-3.7104388276285714,-7.051739579142857,0.8945365747047619,8.203217129095238
5.997622183,-3.5274327269380956,-7.281438623142857,0.8589226227666666,8.35551297142857
6.00254457,-3.3394491984380954,-7.501012983761905,0.8104598620937619,8.496667521761903
6.007466733,-3.155384725033333,-7.706421874809523,0.7562465741623333,8.623541810238095
6.012389192,-2.9796695311904764,-7.895454179666667,0.6972084765099524,8.732994759714286
6.01731165,-2.8136368706190473,-8.065264679095238,0.6329928107194762,8.823067940142858
6.022233883,-2.6540429081428574,-8.211022104476191,0.5610903326909048,8.889598997619048
6.027156356,-2.5004743451428575,-8.329398473047618,0.4829909513337619,8.931390400952381
6.032078818,-2.3534852947619047,-8.41949903395238,0.39980147524328574,8.949579411857142
6.037001204,-2.215445813714286,-8.481728735380953,0.31336657164804765,8.946463853285714
6.041923664,-2.085297204238095,-8.517790113142857,0.223526190729,8.923187990476189
6.046846125,-1.965965481047619,-8.528187638190477,0.13301619136233334,8.881940819809524
6.051768587,-1.8560405742857142,-8.519009158666668,0.04174004808138095,8.828374929857144
6.056691044,-1.751922755047619,-8.487371308380952,-0.04812352188052381,8.75873280852381
6.061613276,-1.6534327949999998,-8.436587447142857,-0.1352221430662381,8.676202214333333
6.066535736,-1.5626710312857144,-8.364881242952382,-0.22015085716147617,8.579433557571427
6.071458132,-1.4779758453333334,-8.272123132380953,-0.30489800131861905,8.467615848095237
6.076380592,-1.4008782307619048,-8.152528308619047,-0.39248833242338094,8.335241853238095
6.081302825,-1.3380425686428572,-8.002751146,-0.48141271199480956,8.179545664904762
6.086225284,-1.292032520047619,-7.82554883047619,-0.5692872863376667,8.001864233904762
6.091147671,-1.2620002344047618,-7.626149586285715,-0.6481151443281429,7.805008802190476
6.096070131,-1.2422076634476191,-7.412822269285714,-0.7118233361567142,7.594580450857142
6.100992592,-1.221460281965714,-7.19651085995238,-0.7546963830948095,7.380075419714286
6.105914825,-1.1912056149609522,-6.985569590666667,-0.7744101928314284,7.169681454714286
6.110837284,-1.1406319963228573,-6.784144696761905,-0.7710705737659522,6.968736973428571
6.115759746,-1.0624839946085716,-6.596152441857144,-0.7422844318088095,6.7829370625714285
6.120682208,-0.957732186275238,-6.423730282571429,-0.6856509082754761,6.615955817190476
6.125604579,-0.8297573808942857,-6.272015571619048,-0.6002704292945238,6.473776461285714
6.130527039,-0.6834410455609523,-6.142574333047619,-0.49130666727071426,6.3574315960000005
6.135449276,-0.5213280942752382,-6.037159897047619,-0.3618285703230952,6.269243681285714
6.140371736,-0.34300285556095234,-5.956799280095238,-0.216054282485,6.209924273904763
6.145294123,-0.14622690256095236,-5.899631772761905,-0.056023662056428586,6.177587043238095
6.150216582,0.06862510124857144,-5.862804185809525,0.1083842383388095,6.168618139190476
6.155138815,0.2995943372485715,-5.8373379026666665,0.27051609848166663,6.174538754333334
6.160061275,0.5384656675342857,-5.816799390952381,0.42102647486738093,6.188419790428572
6.164983661,0.7797737151533333,-5.792759168761905,0.5542624772388095,6.201731998952381
6.169906116,1.016809477867619,-5.763583841809524,0.6730378109007142,6.212672576809524
6.174828577,1.246519528867619,-5.729203224190477,0.7838118113721428,6.221304710571429
6.179751039,1.4632283422961905,-5.6916968936190475,0.8825272869911904,6.226596515761905
6.184673258,1.6658186801295238,-5.648574193333333,0.9699032854864285,6.225767310238095
6.189595717,1.8520338282009525,-5.594488757000001,1.0482769546673811,6.213007791904762
6.194518104,2.020979921224762,-5.522734528476191,1.1174098134864285,6.183427361476189
6.199440558,2.1703960613723807,-5.427748907190476,1.174286005267381,6.132608573571428
6.20436302,2.2952860147238097,-5.305923427857143,1.219527576167381,6.056224154333334
6.209285481,2.395900970457143,-5.15685366447619,1.2483678618483334,5.953473156428571
6.214207637,2.4674768703666667,-4.980834001619048,1.2540409571666666,5.821102785571428
6.219130097,2.507411536761905,-4.7773813406666665,1.2342570531885713,5.654768454714286
6.224052654,2.515824249857143,-4.550162758161905,1.1946057203219045,5.454461085666667
6.228975041,2.492933824014286,-4.294440804523809,1.14364243206,5.219079812042857
6.233897487,2.4390565370285713,-4.013267146695238,1.0855970504552381,4.962609235876191
6.238819719,2.35608353859381,-3.7060802962190476,1.0216099514838095,4.7080222363476185
6.243742179,2.245200251560476,-3.3755386400761904,0.955969186902857,4.461613749538095
6.248664635,2.107684678265238,-3.0229545391714288,0.8881126139980952,4.2204620149666665
6.253587022,1.9444529109176192,-2.649550734504762,0.8215060015695238,3.9853727534428574
6.258509253,1.7541200554414285,-2.264443546504762,0.7642262842361905,3.7568698638714286
6.263431692,1.5432652469652384,-1.8779094914571428,0.7244042905219048,3.5409422272047615
6.268354079,1.3165111038700001,-1.4932920152190476,0.7041970500457143,3.3401136892047614
6.27327653,1.0797044841557142,-1.1133691597428574,0.7011008612361904,3.1575432413476188
6.278198991,0.8345723898223809,-0.7389059307904764,0.7130101928552381,2.99445398177619
6.283121453,0.5877491016795238,-0.3734020178857144,0.7418142850457143,2.853282982395238
6.288043685,0.34304509925095233,-0.023390203695238265,0.7836683316933334,2.7350652324904763
6.292966068,0.10203019291761904,0.30637093811428556,0.8308162826552381,2.6389782399190476
6.297888535,-0.14136009474904765,0.6166407025904761,0.8913377575504763,2.5785879335857143
6.302810996,-0.36816623584428576,0.9082145563523808,0.9666930453647619,2.5486990100619047
6.307733458,-0.5712368083204763,1.172404662495238,1.0473543769838096,2.542059994061905
6.312655914,-0.752754432034762,1.4091012803999998,1.124281613855238,2.5562308438238097
6.317578147,-0.925357954034762,1.6078021341619047,1.183671805355238,2.5833439105380953
6.32250053,-1.0919216693204763,1.7656467513999998,1.227342660995238,2.627275986014286
6.327423005,-1.235083193225238,1.8908646546095234,1.2554312803047618,2.6863644614904763
6.332345238,-1.348990144382381,1.9846205597333333,1.2614180900380954,2.757610740447619
6.337267914,-1.4207535278728571,2.0555630836666667,1.249685852357143,2.826312206804762
6.342190147,-1.4480571944571428,2.104982847190476,1.22228232954,2.8688812658095237
6.34711253,-1.4351331466476192,2.135404041761905,1.1780207108019047,2.882930065095238
6.35203501,-1.3920842411714287,2.149204379,1.1220464721066667,2.8758197295714285
6.356957243,-1.3303500984142858,2.150503902142857,1.0583382788638096,2.8535972873333333
6.361879703,-1.2581583831761907,2.147432191,0.9896814702780953,2.8199528394285713
6.366802178,-1.1840816199666666,2.1447967177142857,0.92255556302,2.7794984205714286
6.37172464,-1.1123517648119048,2.1434613465714287,0.8665592315819048,2.7376917794285713
6.376647101,-1.0475201467928572,2.1464790559047615,0.8203240392009524,2.7003886487142856
6.381569479,-0.9898127207119047,2.1551891564285715,0.7795996595152381,2.6697120840952384
6.38649171,-0.9365102935928572,2.1694182497142855,0.7454663756295238,2.647370586190476
6.391414149,-0.8858434362690476,2.1882461535714284,0.7191364722485715,2.632670642142857
6.396336536,-0.8339205813357143,2.213532918904762,0.6983972858676191,2.6249364344761905
6.401258965,-0.771948721054762,2.241409920428571,0.6645720955866666,2.6100603943333334
6.406181198,-0.7183289105309524,2.270599166428571,0.6131355691580952,2.5960979553809524
6.411103658,-0.6784029095166666,2.3084048258571426,0.5482389997866667,2.592703105904762
6.416026115,-0.6418050502261904,2.351497258333333,0.47488095361523813,2.5980148174761903
6.420948577,-0.5883997611071429,2.4099100713333335,0.40884523821619045,2.620986941095238
6.425870963,-0.512936903202381,2.4858315046190476,0.3466333344304762,2.658061727523809
6.430793423,-0.42844294984523806,2.5706283647619044,0.28494776378285713,2.708990979666667
6.435715885,-0.3409731904261905,2.660372364952381,0.22761481096380956,2.774475834095238
6.440638346,-0.26325714073571427,2.7498382725714285,0.17372357225428572,2.8551353492857143
6.445560569,-0.20460894898809523,2.8389146496666666,0.1240223335809524,2.9481975746666667
6.450482951,-0.16709809235476192,2.9296917913809524,0.0780523321857143,3.048673259857143
6.455405179,-0.14065361608333335,3.0228093577142854,0.036789761595238106,3.15146413852381
6.46032787,-0.11182833019285714,3.1144065969047623,-0.003619188876190462,3.2538741384761907
6.465250102,-0.06833294762142857,3.198890782380952,-0.04489295238571428,3.353605287523809
6.470172504,-0.006314709259523805,3.2714708304285716,-0.09197442641333332,3.447337159428571
6.475094966,0.07886924396666667,3.3294692038571427,-0.15313666688,3.5334941532857145
6.480017198,0.19321944013809522,3.369483629809524,-0.22856733259428572,3.609289736380953
6.484939687,0.3401289693904762,3.388828958714286,-0.31538480719428574,3.6755601331904764
6.489862148,0.5153702552238095,3.3879347641428574,-0.4107531385942857,3.7364506949047622
6.494784549,0.7157569639,3.3693148634761902,-0.5163549942609523,3.7974687869999997
6.499707086,0.9389129108714285,3.335504668,-0.6249386659752381,3.8640961929523807
6.504629549,1.1842999513047618,3.287806136190476,-0.7291974275038096,3.942138664142857
6.50955192,1.4515004269714287,3.2242263725238094,-0.8286739522657143,4.030810431142857
6.51447415,1.7397724274809523,3.1459835653809525,-0.9216517627514285,4.129449899714286
6.51939661,2.0398462838571425,3.058312041380952,-1.0001240491990475,4.241210590666666
6.524319072,2.346224990452381,2.9637203727142856,-1.0590589515142856,4.365506210761905
6.529241472,2.6562633299761904,2.8646044617619046,-1.0932135213142857,4.499579944619048
6.534163703,2.9679844634761903,2.7635748897142856,-1.1082098086809524,4.645814872
6.539086163,3.285445045866667,2.6644885085714285,-1.1093319995190476,4.80809343504762
6.544008634,3.608700675652381,2.5673175993333333,-1.099355379752381,4.984614464285714
6.548931096,3.9403090023047618,2.4722584599523807,-1.0809362843047619,5.174397332380953
6.553853543,4.281344286038095,2.3797378369523807,-1.053320949995238,5.374819730095238
6.55877593,4.6231940417285715,2.2929294109047618,-1.0228599977,5.581235655428571
6.563698389,4.955421527238095,2.2115931226666667,-0.9817161900761904,5.785336167571428
6.568620602,5.2705286684761905,2.137296364380952,-0.9288370454871429,5.986121530428572
6.573543062,5.566679994285714,2.0691867441904757,-0.8612445239871429,6.182813128666667
6.578465448,5.839031094619047,2.0061541284285713,-0.7751715227442857,6.372069356190477
6.583387689,6.084070092142857,1.9470662275238093,-0.6643384738871428,6.551166893380952
6.588310149,6.297332888571429,1.8931582314285713,-0.5274814751728572,6.717421668761904
6.593232643,6.4793364207142865,1.8451851379047615,-0.3693695225538095,6.869672782142857
6.59815503,6.6266925789523805,1.8063910404761903,-0.19281671598238098,7.002626959285713
6.603077489,6.735644726571429,1.7746422347619046,-0.0029097612204761745,7.110259345714285
6.607999767,6.806738263142857,1.7457296678095238,0.19641666882714284,7.190073672761904
6.612922227,6.843921366238094,1.7167988561428569,0.40693200901761906,7.244474602238096
6.617844688,6.851010072809525,1.6847499041428569,0.6290388177319047,7.2764702548095235
6.622767145,6.832721642142858,1.649090903190476,0.8557361093509522,7.289392830380952
6.627689606,6.793889136571429,1.6079663322666664,1.077596205922381,7.284480225190476
6.632612068,6.73853921895238,1.5563494279761902,1.284362010874762,7.2621325628571425
6.637534436,6.672762802714286,1.490072712347619,1.4758521984176192,7.225335222285715
6.642456666,6.597974799952381,1.4020783305761904,1.65166677027,7.174060402095238
6.647379044,6.5198618343809525,1.2934336663,1.8064427246890475,7.113565088428571
6.652301505,6.435845738380952,1.1670650471571427,1.9439766249890476,7.044933524047619
6.657223962,6.341926552047619,1.0230863378714286,2.0645809612509525,6.965881098523808
6.662146195,6.239505041238095,0.8622057665380951,2.1710197697652385,6.877001593809524
6.667068654,6.131393546190476,0.6864111026809523,2.2577971971414286,6.781643216333334
6.671991116,6.017825308333333,0.5014755329190473,2.3250611482190475,6.680716468619047
6.676913503,5.8970383235714285,0.31320515139523797,2.3705914361952383,6.573177953
6.681835962,5.769837402190476,0.12789377149047604,2.3925168628571427,6.458414046523809
6.68675841,5.633877549904762,-0.05236584793809539,2.3863359065714285,6.332804856904763
6.691680871,5.490623088142858,-0.22443451193809544,2.3560883374761907,6.195593032380952
6.696603333,5.336099794952381,-0.39166208103333355,2.3088689531904762,6.044617092476191
6.701525575,5.172521068952381,-0.5539704617476192,2.2513962416666664,5.881950726333334
6.706447957,5.003943307047619,-0.7109417971761907,2.1843318144761903,5.711949666238095
6.711370185,4.831253971333334,-0.8583942708428574,2.111858050047619,5.537050146523809
6.716292644,4.6529711087142855,-0.9935095593666669,2.0326723314285715,5.356653384714286
6.721215017,4.4688904001428575,-1.1132329872238096,1.9435504731428572,5.168649666809524
6.726137554,4.277116735714285,-1.2211130800333334,1.8472663277619046,4.973580751428572
6.73105994,4.073826057523809,-1.318309744157143,1.7499186595238092,4.77333581747619
6.735982161,3.8577257308952375,-1.4005258395333333,1.6576071410000002,4.572133955095238
6.740904621,3.626163109376191,-1.462830982714286,1.5717879533809525,4.366705777428572
6.745827082,3.37627481557619,-1.5001308889428573,1.4887279555714286,4.14858637247619
6.750749573,3.101515246609524,-1.5132742722619048,1.4148339543904762,3.9165822307619047
6.755672034,2.8145636812761903,-1.5063272260190477,1.3552147206761904,3.679667696857143
6.760594421,2.526131584814286,-1.483825751661905,1.3099715766285716,3.4452272042857137
6.765516885,2.238372244585714,-1.4458555607,1.2836585782476189,3.218425689952381
6.770439118,1.952857826009524,-1.3969424650428575,1.2722111996761905,3.001364656333333
6.775361501,1.672064636004762,-1.3459336558714288,1.2694270099619047,2.7969095061904765
6.780283962,1.4031291514666666,-1.295631703857143,1.2707673878666665,2.607250826190476
6.785206195,1.1484003531333333,-1.2490468933333336,1.2770449150095238,2.4350123700000004
6.790128894,0.910584677847619,-1.2037925095714288,1.289534296295238,2.2834553840952383
6.795051127,0.6921665281238095,-1.1647458473809524,1.303583531152381,2.1523727576190477
6.79997351,0.4943841450666667,-1.1286503246666668,1.3171689112952383,2.0426994872857143
6.804895976,0.31699576366666665,-1.0989426601428574,1.3269109101523808,1.9554613956190479
6.809818438,0.15668400232380955,-1.0765181836190478,1.336633716295238,1.8930393428095236
6.8147409,0.008765093971428566,-1.0625814255714288,1.3503044786761904,1.8565893757142855
6.819663347,-0.13100124150476192,-1.0570670876666668,1.3694982415333334,1.8459121769523807
6.82458558,-0.26436867212380954,-1.0591113737142859,1.3955660036761905,1.8588469741904763
6.829508039,-0.38843509874285714,-1.0667083773809527,1.4267309052476191,1.889553640095238
6.834430406,-0.5043056710285714,-1.0767109052857144,1.464929376295238,1.937218757857143
6.839352866,-0.6149257638285714,-1.0912166208571432,1.5114845207238095,2.0036543886190477
6.844275347,-0.7249677156904762,-1.1090269996190478,1.568597328009524,2.0880411944761907
6.84919758,-0.8382081861761905,-1.1332883777142857,1.6435439415333333,2.197414082095238
6.854119963,-0.9543286569714288,-1.163459993452381,1.7359547557142858,2.33167840147619
6.859042534,-1.0792009887809524,-1.1965765668380954,1.832643276047619,2.478211796761905
6.863964921,-1.2177006027952382,-1.229599140861905,1.9302072296666668,2.633768289333333
6.868887394,-1.3651498897095238,-1.2691047588238098,2.0249017532380953,2.7964543307142855
6.873809627,-1.517345029704762,-1.3123627133857145,2.121246280952381,2.9662919496666666
6.878732087,-1.6709986059857145,-1.3576928120809526,2.2198529014761905,3.1404476605714287
6.883654547,-1.8272722236380952,-1.4040083373333334,2.322863714857143,3.319765775857143
6.888576934,-1.9865406099238097,-1.4533252941904764,2.427862099047619,3.503186151904762
