Time (s),Linear Acceleration x (m/s^2),Linear Acceleration y (m/s^2),Linear Acceleration z (m/s^2),Absolute acceleration (m/s^2)
0.119748586,0.4553653307190476,0.38958319310952383,-0.21231981152714285,0.700475356104762
0.124671048,0.48753171381904764,0.4157743844142857,-0.24840319190809526,0.753958743357143
0.12959328,0.5243151919190476,0.4342607188666667,-0.3072639536795238,0.8226713487999999
0.134515663,0.5632781450666666,0.44380052811904763,-0.38543566668904766,0.9055280525761905
0.139437896,0.6059683810238096,0.4425417660095239,-0.4732390929366667,0.9971138604000002
0.144360279,0.6556294766952382,0.4321313371633333,-0.5619301401842857,1.0931683151285714
0.149282434,0.7056544274619048,0.41285981298238095,-0.6439768533366667,1.1845912760000001
0.154204663,0.7535564254190477,0.38661500303952384,-0.714485185822381,1.2667110611571428
0.159127125,0.7912097566619047,0.3532656217204762,-0.773524279022381,1.335268658742857
0.164049281,0.8117523768523809,0.3182855254395238,-0.82449913627,1.3881357956619047
0.168971663,0.8201101869714287,0.2847399540157143,-0.8708493769938095,1.4307793900095238
0.173893911,0.8178606154285714,0.2544334778014286,-0.9132177095271429,1.464735682309524
0.178816294,0.8047478064523811,0.2294019530442857,-0.9508372804176191,1.4898019294666667
0.183738526,0.7825443781681429,0.20998952419190478,-0.9881742316271429,1.512283879147619
0.188660962,0.7517212829538571,0.19515285735380955,-1.0307036102557143,1.5398665215904763
0.193583349,0.7145713782109999,0.1836286189509524,-1.0821552308366666,1.577203108604762
0.198505579,0.6707528547252858,0.17541623773,-1.1458698486080952,1.6280765756190476
0.203427941,0.6541726172062381,0.12328528589142859,-1.2278517530414288,1.665797471
0.208350174,0.6227934738062382,0.08083119077714288,-1.3312318051604763,1.7252229968571426
0.213272286,0.5790696166871905,0.03416066748380954,-1.435937715404762,1.7841109790476193
0.218194668,0.5297115680776666,-0.01954775969809523,-1.5313892421190478,1.8341146167142857
0.223117149,0.4660698056252857,-0.057920950783809516,-1.619892628404762,1.8805815651904763
0.228039382,0.38511713572528566,-0.07930023712190476,-1.6928633876999999,1.923894966238095
0.232961764,0.3008700858824286,-0.08334161936476189,-1.7418088600809525,1.9519548880952382
0.237883983,0.22111532317290475,-0.07440114261714285,-1.7599171031285714,1.9544571448095236
0.242806366,0.14439713469195237,-0.04779533288857142,-1.7534479612714284,1.9351803955238096
0.247728521,0.06748189644433332,-0.009982285232857137,-1.7275508160333333,1.8946844671428569
0.252650971,-0.0007421493828095369,0.040664762781428575,-1.694474580795238,1.848852197714286
0.257573204,-0.05638909966852382,0.09974071578142858,-1.663939200747619,1.8074928930476188
0.262495586,-0.09228509723519049,0.16544257228142858,-1.6405942497285715,1.7790584895714285
0.267417805,-0.0954767159256667,0.2286481919385714,-1.6281326782523808,1.7730057210476193
0.272340188,-0.07137738013519049,0.285932240562381,-1.6201677209190475,1.7843569263809524
0.277262411,-0.01997980673042859,0.3320653841242857,-1.6255114362999998,1.819456472190476
0.282184793,0.048780953060047594,0.36593905144333333,-1.6474544349904763,1.874284425857143
0.287107021,0.12832133477761903,0.3878971464195238,-1.678755723361905,1.9382205354761903
0.292029175,0.21030295328238097,0.4001237180576191,-1.7099451082666668,1.9961015443809524
0.296951558,0.28888762145857144,0.404099765717619,-1.7335497283619046,2.0389648967142855
0.30187379,0.3695603368538095,0.3991048131542857,-1.7421388712190478,2.063443007
0.30679625,0.4474949553538095,0.39033243224047615,-1.731698964457143,2.0676919144761903
0.311718401,0.5260151454966666,0.37212100363095246,-1.6960651506952378,2.048548190857143
0.31664086,0.605648526177619,0.35818005184333335,-1.652414432742857,2.025685103238095
0.321563245,0.6865194795442857,0.3448655764061905,-1.5970676202190477,1.9993102252857144
0.326485497,0.7711121951585714,0.3238959574061905,-1.5373610458380953,1.9719945524285716
0.331407879,0.8868002438204761,0.29211643258238096,-1.4621070483142857,1.9501456769523808
0.336330098,1.0091977177109523,0.2568754801252381,-1.387190339257143,1.9342604788095235
0.341252252,1.1377931961823808,0.21495938362999997,-1.3181463367809525,1.9400058556666668
0.346174635,1.2656934787109524,0.15933104985380953,-1.265002480695238,1.9658121198571428
0.351096847,1.389873196387143,0.10041309742047619,-1.2380569124095238,2.0139381884285714
0.35601923,1.5091479619761905,0.03471585886333333,-1.2371409082190477,2.0809958976666665
0.360941463,1.6234581499285714,-0.037840571522380954,-1.2622135736476192,2.166445259857143
0.365863845,1.7315721001142859,-0.11405718974142856,-1.305992909904762,2.2636390142380955
0.370786078,1.8217969565238095,-0.1852468089890476,-1.3685833897619049,2.365012618238095
0.375708442,1.9095429068571426,-0.2548448564938095,-1.4455052047142858,2.478254702952381
0.380630903,1.982090910238095,-0.32103266682238096,-1.525434352142857,2.586574711095238
0.385553136,2.0551388660476193,-0.3774691416557143,-1.6069977851428572,2.697695318190476
0.390475533,2.135661868761905,-0.42453114200333336,-1.6903249763809525,2.815731100904762
0.395397766,2.2327894936666666,-0.4665740005461904,-1.7776495445714287,2.9483731886190476
0.400320148,2.3488497733333333,-0.5049618585461905,-1.8730840172380954,3.0995177080476193
0.405242328,2.4809072073809526,-0.5418234772619047,-1.9811695417142858,3.2710276970476193
0.410164557,2.6272590102857145,-0.5802955712619048,-2.1005395934761903,3.460904022428571
0.415086956,2.7775285867619046,-0.6197232873476191,-2.232097637095238,3.6630432290952384
0.420009189,2.9301902452380952,-0.6641192393476191,-2.375751063952381,3.8769618065714284
0.424931572,3.0851985271904763,-0.7115902857761904,-2.5213166815714283,4.094751131523809
0.429853805,3.246083327619048,-0.7565117605761904,-2.6589513562857143,4.311127411952381
0.434776187,3.388993512952381,-0.7942200912904761,-2.7940253132857142,4.508395609095238
0.43969842,3.5245446476666666,-0.8349139462809525,-2.9167395546285713,4.691909297380953
0.444620813,3.632371175761905,-0.8621946586904763,-3.0455114529142855,4.851850379
0.449543274,3.720155329857143,-0.8748397074428572,-3.175703979666667,4.994309346190476
0.454465507,3.794098002523809,-0.8789129455333334,-3.3045824084761906,5.126364421333333
0.45938789,3.8604924224285715,-0.877674897457143,-3.4295259827619047,5.25235958795238
0.464310122,3.9259459063809525,-0.8671239912,-3.5281260808571426,5.361446530333333
0.46923228,3.990000758857143,-0.8426920863333333,-3.6261745975714286,5.4696620226190475
0.474154663,4.055690890285714,-0.8149128953095238,-3.694372597238095,5.560778615238095
0.479076887,4.105430659809524,-0.7816198967947618,-3.760118972714286,5.638506533285715
0.483999269,4.156479665238095,-0.7604353260614286,-3.828469832761905,5.719440449428571
0.488921526,4.176884526333334,-0.7785419001709523,-3.9210577238571434,5.805646753571429
0.493843909,4.143599805380952,-0.8365589922804763,-4.030497573714285,5.889001216857143
0.498766141,4.049718754619048,-0.9293164699185714,-4.115235726095238,5.941197084666666
0.503688524,3.925636138238095,-1.0537299006042857,-4.124634731428571,5.939243281714286
0.508610986,3.7784663694095237,-1.2035163388661905,-4.001371542619047,5.873646094666666
0.513533218,3.6258438513619047,-1.3685173934471428,-3.69360286852381,5.830502814142857
0.51845561,3.4920229429809524,-1.5415387781138095,-3.1970841203333333,5.911527029333333
0.523377843,3.3889786601714285,-1.7149096730185713,-2.5488852432380953,6.117042297380952
0.528300225,3.3020341822666666,-1.903569153685238,-1.8414184819523811,6.391057292047619
0.533222458,3.197452145028571,-2.1168249564947623,-1.1408137027142855,6.678956838666667
0.538144612,3.0588224814571428,-2.351779438542381,-0.4822812196666667,6.949894158476191
0.543067067,2.882757870980952,-2.6093167751138098,0.1153603846190475,7.194860089857142
0.547989451,2.6855900557904757,-2.89935820759,0.690778834190476,7.445772879238096
0.552911684,2.4721443816857143,-3.218870591870952,1.226023685095238,7.689300470523809
0.557833853,2.2447453247999998,-3.5635850574423804,1.6986701145238092,7.905421110238096
0.562756236,2.012549567128571,-3.9273155050804767,2.100301935285714,8.08854141442857
0.567678468,1.7860403252904762,-4.309547272770953,2.403215362666667,8.251617780380952
0.572600928,1.5785843318666664,-4.701493390551905,2.6291393578619044,8.384859887809522
0.577523313,1.3926131526857142,-5.0772943783709525,2.7925532188190476,8.502346119333334
0.582445535,1.2216433826190476,-5.426897044676191,2.8852379759619047,8.598881035285714
0.587367918,1.053407754252381,-5.73355281352381,2.923845221342857,8.682951963
0.592290142,0.9021970346142856,-5.976934183190476,2.9422264536761906,8.755693524809525
0.597212524,0.7744886568766667,-6.150237128809525,2.958184444961905,8.81141892390476
0.602134732,0.6832527495861904,-6.249499366380952,3.0003237480571427,8.827818601095238
0.607056886,0.6045342760623809,-6.276532649999999,3.0785072287238093,8.792873432761905
0.611979355,0.5170655611242856,-6.249042215809523,3.1425708965980954,8.755107649285714
0.616901511,0.3937889925052381,-6.181366682095238,3.1453411275028573,8.709244091904761
0.621823894,0.2098870921719047,-6.076757294857143,3.0471928042171426,8.588288162571429
0.626746127,-0.05016128592333334,-5.9261297840000005,2.843556453121905,8.372456679809524
0.631668509,-0.3768575568757143,-5.7126518772666675,2.5871633156457143,8.110903618190477
0.636590971,-0.7310236559233333,-5.432022266514286,2.3275104968361906,7.859506494380952
0.641513204,-1.0825748480661903,-5.0890246928476195,2.092674736121905,7.6506230774285715
0.646435586,-1.4159551782090476,-4.684383927466667,1.8985943379314285,7.492935975285714
0.651357819,-1.722294795494762,-4.241711402371428,1.7081751181695237,7.342243815190476
0.656280207,-1.9639133272947618,-3.790000973847619,1.5404745095980952,7.168056019857143
0.661202363,-2.1401491365042853,-3.3312848424666672,1.396641939550476,6.965973882809524
0.666124591,-2.288079049023333,-2.8625232508,1.278135076550476,6.7486730433333335
0.671046976,-2.4212344744233336,-2.3748742925619046,1.2620058439314286,6.542688316047619
0.675969164,-2.578472327047143,-1.8806924154666669,1.3397876545933332,6.3628638065238095
0.680891623,-2.7716245631519048,-1.3922289001333334,1.46025617316,6.217283561238095
0.685813856,-2.9878433185138094,-0.9132065675142856,1.673097218445714,6.1091519943809525
0.690736254,-3.20992074781381,-0.44135684213333337,1.986309363398095,6.0249975976190475
0.695658487,-3.4233125939376188,0.01787819024761903,2.3832156484457143,5.953140339190476
0.700580869,-3.6273216846285714,0.45157860419999996,2.802254943302857,5.894985646523809
0.705503112,-3.8249012189095244,0.8579750840571427,3.1583058433980953,5.894683334571428
0.710425572,-4.011646466576191,1.236982378152381,3.4040568383028567,5.988362533714286
0.715347958,-4.171429219666667,1.5908451860095236,3.56534988547619,6.139816013714285
0.72027016,-4.2888988993809525,1.920698130342857,3.6425849370476193,6.271023319904761
0.725192314,-4.354108617380952,2.220219701485714,3.6718134654285715,6.35561345352381
0.730114677,-4.360233238714286,2.469011566438095,3.699989455190476,6.414466214714286
0.73503691,-4.313266583809524,2.6638523723238094,3.732214450952381,6.450578512428572
0.739959307,-4.227063723904761,2.8004503704285715,3.7613912538095233,6.455788970571429
0.74488154,-4.1197322436190476,2.8789183299047614,3.7760192554285714,6.423534246238096
0.749803922,-4.004573719809524,2.904797894666667,3.7664659137619045,6.351110917428571
0.75472616,-3.8910585357619047,2.9050604162380953,3.745704582809524,6.259584411190477
0.759648543,-3.8229652472380953,2.913316613190476,3.7134260563809525,6.193956278619047
0.764571004,-3.8072310515238095,2.9306784698095236,3.7088941051904762,6.185798448333333
0.769493232,-3.824896710190476,2.9545206569999998,3.7597613334761903,6.2335850008571425
0.774415615,-3.882649955238095,2.9745233229999997,3.807357617809524,6.310289989190476
0.779337847,-3.950926201619047,2.987858988047619,3.8758167085238093,6.404130081523809
0.78426023,-4.013610101809523,2.985451550809524,3.9886274337619048,6.512172589571428
0.789182386,-4.077414546619047,2.9685009321428573,4.115537189285714,6.6237353530476195
0.79410462,-4.152893736190476,2.9366452127142857,4.226815371285714,6.730347240666666
0.799027004,-4.244106644619047,2.8981533165238096,4.310129040761905,6.827454014904762
0.803949242,-4.336324498714286,2.8591937451904763,4.382084176619047,6.916864787095237
0.808871625,-4.42393133747619,2.8168686912857144,4.443821555047618,6.992574469999999
0.813793858,-4.514547858857143,2.7779571556666665,4.481457755619048,7.056868947619047
0.818716245,-4.612104972142857,2.7559526421428573,4.4694165615238095,7.111004434714286
0.823638478,-4.6999985262857145,2.7447595937619047,4.404523508809524,7.135961199761904
0.828560937,-4.7465539545714295,2.7282038757619045,4.2591715993333334,7.086595704285715
0.833483329,-4.76697152,2.7080460617142856,4.025548273528572,6.970193324714286
0.838405483,-4.750251134238096,2.680180016047619,3.760470891195238,6.8008745049523815
0.843327714,-4.703082992904762,2.6472860177619046,3.4633187579952383,6.603765953238095
0.848250163,-4.628869947904762,2.611644109095238,3.1460063698047622,6.411186528
0.853172319,-4.526506804238095,2.5712876376666665,2.8047318472333336,6.256604711000001
0.858094769,-4.393542704090477,2.521617401238095,2.4352148047095237,6.157067703619047
0.863017153,-4.2201453184523805,2.4522204484619046,2.0369962751380952,6.12127525452381
0.867939386,-3.9942197991095236,2.3592429260857144,1.6115823259952382,6.131486965904762
0.872861784,-3.705574843871429,2.232451880290476,1.1600550824238094,6.165117013666666
0.87778394,-3.351600036014286,2.0676355007190472,0.6915979399000001,6.209620654000001
0.882706093,-2.9473555109190475,1.8758253128619047,0.2061752264714286,6.245783127571428
0.887628533,-2.509801083347619,1.667022363004762,-0.32323434100476184,6.281159098714286
0.892550995,-2.031633731109524,1.4470455518619048,-0.8886035156238095,6.316919275285715
0.89747315,-1.5292619657761901,1.2253407963380953,-1.493586641052381,6.357813437238095
0.902395237,-1.0205648193,1.0084770278619046,-2.133715276290476,6.412566693952381
0.90731762,-0.5085514974428571,0.7973471751952381,-2.7641271055285714,6.46892380647619
0.912239829,0.001641396366666656,0.5815167526238094,-3.331370068528571,6.507881794
0.917162211,0.5075972514142857,0.3435737107190476,-3.822259935671428,6.5187456732380955
0.922084463,1.0091328259857144,0.08095732614761897,-4.232853740528571,6.488669169714285
0.927006846,1.476741436747619,-0.19938686490000007,-4.552132548385715,6.4253205626190475
0.931929073,1.861669958414286,-0.47280733504285727,-4.753461881814285,6.366117592285714
0.936851227,2.166322626604762,-0.7379718125190478,-4.848104166200001,6.3150983345238085
0.94177361,2.386469004509524,-0.9878910453761904,-4.888035453566666,6.282952675904761
0.946696081,2.5282721470619047,-1.2292292870428572,-4.860871739395238,6.273312969523809
0.951618237,2.6120145782761903,-1.464862194804762,-4.7921825470809525,6.279304617666666
0.956540468,2.653287052447619,-1.697729713852381,-4.678880074819523,6.282807543428571
0.961462923,2.6593398133,-1.9109578089952381,-4.516721031400476,6.252559697428571
0.966385307,2.6250458147333333,-2.0878203866000002,-4.333077928729048,6.172445875666667
0.97130754,2.5391228639619046,-2.208672574604762,-4.150508697395715,6.0484604247142855
0.976229928,2.4133154339142857,-2.2645819073809528,-3.966824734348095,5.88428092004762
0.981152084,2.257537817747619,-2.2555861927142855,-3.764368498443333,5.664203932857143
0.986074543,2.078491058452381,-2.1930320007190476,-3.559027545348095,5.408414229
0.990996776,1.8737581947714286,-2.079718808285714,-3.3411690775861906,5.123311985619048
0.99591892,1.6290244723190475,-1.928110281604762,-3.1077977971100004,4.819139321809524
1.000841379,1.3612691824523808,-1.758963573509524,-2.835710376348095,4.491093546714286
1.005763535,1.0751874596428572,-1.5959304287000002,-2.4985587978242854,4.138359470476191
1.010685995,0.7753347988809525,-1.4561989534142856,-2.122158109967143,3.7852951542857145
1.015608379,0.47965823254761897,-1.342806288157143,-1.7262696735480951,3.456266047238095
1.020530607,0.20274829083333326,-1.2468254324857142,-1.3102924339290476,3.188315304047619
1.02545299,-0.0577662239285715,-1.1648895286333334,-0.884938861452857,3.0161314072857146
1.030375222,-0.29250660323333344,-1.0972278089714287,-0.4612384834052381,2.963478318285714
1.035297586,-0.48575598211904764,-1.0574539076380953,-0.038855731309999975,3.0426707097142858
1.040219742,-0.6433352707047619,-1.0522169981142857,0.3803819391661905,3.2325513716190475
1.045142212,-0.7785135557142857,-1.0938068144952382,0.8031444097709524,3.5128525989047614
1.050064367,-0.9015785533619047,-1.1752693453523808,1.2135186382280954,3.8509321021904763
1.054986827,-1.033414979052381,-1.290027019447619,1.6372661841519047,4.2293278696190475
1.059909069,-1.1888877841761907,-1.4375298278285715,2.056332564842857,4.620041911809524
1.064831451,-1.366759391795238,-1.6407361966857141,2.4431024293761903,5.0242856562857146
1.069753607,-1.5663341660095238,-1.9234908336380951,2.7857253793238095,5.440423514571428
1.074676053,-1.7807946979142857,-2.302176092352381,3.0528760992761903,5.870750148142856
1.079598286,-2.012519502247619,-2.7709401534,3.1984815754095233,6.337029400761905
1.084520745,-2.2060325408428576,-3.277662989495238,3.199366380838095,6.825518202476191
1.089442906,-2.269606397261905,-3.7380867115380956,3.116482239457143,7.248399931047619
1.094365289,-2.21187501577619,-4.094705859590476,3.034544716361905,7.545628190952381
1.09928775,-2.088210395419048,-4.36562546922381,3.000244763742857,7.723156729619048
1.104209805,-1.961224587219048,-4.571914034033334,3.034756619390476,7.796213398809523
1.109132188,-1.8514643993142859,-4.711588129890476,3.133977525342857,7.794482530761904
1.114054406,-1.775835829852381,-4.789562270552381,3.299352574961905,7.839823538238095
1.118976788,-1.7649269253285713,-4.80338922264762,3.503380187971428,7.991498941571429
1.123899026,-1.8219036410428573,-4.755987506319048,3.7082270583047614,8.203582395761904
1.128821409,-1.923391589852381,-4.64979617064762,3.881828140685714,8.414539696047619
1.133743641,-2.054601726833334,-4.486333262166666,3.9925208006857145,8.581550798428571
1.138666029,-2.199012774138095,-4.273550305880953,4.025230807923809,8.675470908809524
1.143588491,-2.338755440885714,-4.0041885034047615,3.9869372418761904,8.69521239347619
1.148510723,-2.4547007715904763,-3.6725318317380955,3.879991772590477,8.636439326333333
1.153433101,-2.529053206304762,-3.2776993455476187,3.724558640019048,8.515218822619048
1.158355334,-2.550553918638095,-2.8305995236428574,3.530839048590476,8.336886048714286
1.163277716,-2.5224156897809524,-2.327705712452381,3.3328700887809526,8.126116787619047
1.168199862,-2.454000933542857,-1.757813283309524,3.1554469294952376,7.893013735285714
1.173122322,-2.3480747263999997,-1.1103881766904762,3.0391657380190473,7.641557312142858
1.178044555,-2.212781719495238,-0.3895016736904762,3.027177586352381,7.371766582285713
1.182966937,-2.059391868257143,0.3926922822619048,3.1439600103619045,7.061485069952381
1.18788917,-1.9553582051142857,1.1785965079285714,3.384640057790476,6.743695899619048
1.192811334,-1.9911210601142857,1.8744481744047619,3.6859338623619045,6.4906372294761905
1.197733793,-2.142193777966667,2.4022346109761905,3.9679751963142857,6.332795371571429
1.202656178,-2.3259666370619048,2.7681305066904764,4.172241767171429,6.232056200857143
1.207578315,-2.4765231105380954,3.006230308833333,4.268160859666667,6.178701242571428
1.212500774,-2.552783444509524,3.1362179800714283,4.223518431833334,6.141712773809523
1.217423007,-2.5366081588190474,3.1792237417190474,4.040348811461905,6.034997318695238
1.22234536,-2.4217901591428572,3.1494408369666664,3.7569244851047614,5.847713319980953
1.227267593,-2.2208196343333335,3.055114119438095,3.4318403324238096,5.599266955266667
1.232189975,-1.9649895450476191,2.9045625448666668,3.109866771614285,5.326573178457143
1.237112208,-1.6707658845238096,2.7053435905333334,2.8129260192,5.066105135219048
1.242034591,-1.3611787010476188,2.480607541485714,2.5503831640571426,4.833577285695238
1.246956827,-1.033812507952381,2.240359258771429,2.3198432007238097,4.6365738236
1.251878981,-0.6842662684285714,1.9953912077714284,2.1249987277714286,4.487198874504762
1.256801364,-0.3194974113809524,1.7499999240571427,1.9701901043428574,4.378237550361905
1.261723602,0.056072011666666643,1.510314922247619,1.8378811443904763,4.295273701171429
1.266646061,0.4162823962857143,1.2781561052666668,1.7273438197714288,4.205158499171428
1.271568217,0.6777264426666667,1.066974046714762,1.637999829152381,4.0410639945047615
1.276490624,0.8473741050666665,0.8760357726385715,1.5489917816761904,3.8236097019809523
1.281413008,0.9544262467857143,0.6971620974480952,1.4592443584857142,3.604006962171429
1.286335241,1.0219713882619048,0.5257605854004762,1.397030171247619,3.420054466314286
1.291257624,1.0731966701666666,0.3684363848290476,1.3761957025809524,3.280157334457143
1.296179857,1.1263706208809525,0.23540339306714284,1.3938580914857144,3.1828014813142858
1.30110201,1.1867329116523808,0.1416983917338095,1.440029802104762,3.129337640742857
1.306024465,1.2268082932428572,0.0973706274480952,1.5090549439619048,3.1306140187904763
1.310946621,1.2330864845285714,0.09752839240047617,1.593963662104762,3.183627951647619
1.315869003,1.2031447213095239,0.13058796106714282,1.7217905138428569,3.291702736838095
1.320791236,1.1440412458714286,0.19684348227190474,1.8882605135476191,3.415111000238095
1.325713619,1.0638117222333334,0.28930681595761903,2.053143939809524,3.5030416012380954
1.330635881,0.9600096259666667,0.41236205262904757,2.160058556585714,3.542360235238095
1.335558263,0.8481686256857143,0.5392307661052381,2.2159831296809522,3.5314902838571425
1.340480725,0.7221742931857144,0.6695898594385714,2.2150423214523807,3.4595974816190473
1.345402963,0.5705331073714286,0.8004473838671429,2.153476703009524,3.343381370952381
1.350325345,0.3930120574190476,0.9205780505147619,2.0478955613380956,3.195099113190476
1.355247578,0.18921795694761906,1.009649148357619,1.9074889385428573,3.019240886190476
1.360169732,-0.024139039619523846,1.0675093854909523,1.7324374651142858,2.8387915722380956
1.365092114,-0.2364530393719048,1.0970566212766666,1.5424283763523812,2.665452815190476
1.370014337,-0.41060389512904766,1.097167145314762,1.3449415670190477,2.5214674955238094
1.37493672,-0.4588144706052381,1.0579404323904762,1.1527261868285716,2.471880407857143
1.379858987,-0.39242214252904767,0.9826534791666666,0.9920104251619047,2.498508947714286
1.384781369,-0.24427224062904768,0.8859317646952382,0.8594557067333335,2.5457231358571426
1.389703602,-0.0515569023433334,0.7832438580380954,0.7291723737380952,2.5756115369523807
1.394625966,0.15299314251380947,0.6798174782095238,0.5786606576476191,2.574477937857143
1.399548198,0.35155442494238087,0.5797437631476191,0.4100718944714286,2.548108563333333
1.404470658,0.5015993231233333,0.49324995245380954,0.23685718072380954,2.4724353724761903
1.409393054,0.6118516070090475,0.42180461936333336,0.06777542183809523,2.3627527214285715
1.414315284,0.7044712701947619,0.365110475082381,-0.09757405596190476,2.245393647857143
1.419237667,0.7888674622233331,0.32489456841571435,-0.2676723351523809,2.1396170990952377
1.424159828,0.8585328899423809,0.28478742608238095,-0.43317047828571426,2.035358929285714
1.429082057,0.9080197938614285,0.2524982333204762,-0.597101572752381,1.9538198578095236
1.434004455,0.94362384114,0.21804404655857143,-0.7318874747047619,1.9023713331428571
1.438926688,0.9648932704357142,0.1954902393680952,-0.8610359068952381,1.879471306142857
1.443849086,0.9740155082647617,0.17870800100142856,-0.9716545237285714,1.8871074056190476
1.448771318,0.9851880803266666,0.1609604256585714,-1.0550839532380953,1.9153473755714288
1.453693701,0.9920716518695238,0.15161985273476192,-1.1166759530904762,1.9550196503809525
1.458615943,0.9866806047552379,0.16219618605380953,-1.1606921412000002,2.000026295
1.463538326,0.972223842312857,0.18485985278714287,-1.1809875227714284,2.0233110864285715
1.468460787,0.9488978427319048,0.2159879485157143,-1.1788483347714287,2.0187352867142856
1.473383016,0.9137919859795237,0.25570551917285717,-1.1557598114380951,1.9831800061428568
1.478305398,0.8651891282414285,0.3018395177776191,-1.117358193552381,1.9191504137619049
1.483227631,0.8091688002461904,0.3551649466252381,-1.0691813344285714,1.840572280761905
1.488149833,0.751521134912857,0.41302342224428573,-1.013803712702381,1.764301376047619
1.493072293,0.7003795606747618,0.4716029934347619,-0.9549595692690476,1.703478224190476
1.497994677,0.6637683215795237,0.5274328973442858,-0.8936741898785714,1.6650149782857144
1.502916837,0.6467407504842856,0.5745393734014286,-0.8344772380357144,1.6500860512857143
1.507839297,0.68062032577,0.600354088952381,-0.7898349513976191,1.6862374007142857
1.512761453,0.7586995210080951,0.6033350421238095,-0.7624484755119048,1.7603381615714282
1.517683698,0.8543016132985715,0.5874710899380953,-0.7566783811738096,1.8390482679047617
1.522606158,0.956353609365238,0.5554044254238095,-0.7748821931738096,1.912449915142857
1.527528543,1.063006753312857,0.5141962369523809,-0.8091541940880953,1.9929549703809524
1.53245076,1.1734349418319046,0.4645033814909524,-0.8505884792880953,2.072498979428571
1.537373143,1.2996634599152381,0.4108231423485715,-0.8990618090500002,2.164049798047619
1.542295376,1.4364676460909522,0.34452480796761903,-0.92596395105,2.2535238069999997
1.547217749,1.5822955522857143,0.2812474754104762,-0.9327109527642856,2.338866921047619
1.552139982,1.7409756897047621,0.22840952456761907,-0.9214437107642857,2.421872362904762
1.557062126,1.9194660176380953,0.18738143084380954,-0.8962941383357143,2.507813110904762
1.561984509,2.1158861550333334,0.15647290656285714,-0.8623949957166668,2.597684539238095
1.566906741,2.317316252947619,0.12184938300571428,-0.8162532321690477,2.698822681761905
1.571829124,2.5086268701380954,0.09343409760095238,-0.7772246585595238,2.8083061001428566
1.576751371,2.6880225411714287,0.06520371715809524,-0.7565664692119048,2.9347034344761904
1.581673753,2.8526514031,0.040602384667619056,-0.7656800903357143,3.079683099
1.586595986,3.0003373509523805,0.01954457527714286,-0.8144288986023809,3.2333895155238097
1.591518336,3.1277775367142855,-0.020288470865714284,-0.886187278852381,3.375034544952381
1.596440797,3.2318537689523805,-0.07373675766095238,-0.9911390891000001,3.500090973428572
1.60136303,3.315858012142858,-0.13554928194666666,-1.1253247552095238,3.610102681428571
1.606285427,3.381899254619047,-0.20265794713714286,-1.2803480376857141,3.7101877864761907
1.61120766,3.4438251653809524,-0.27385804260857144,-1.4413485193380953,3.814729550952381
1.616129818,3.5122212000476187,-0.3456824697847619,-1.5944622371476191,3.931459286
1.621052201,3.6015904516666666,-0.4173087526514286,-1.722168715209524,4.067037603190476
1.625974458,3.714062077571429,-0.49223718251809523,-1.8069209058761904,4.2103713472380955
1.63089684,3.8345157985714287,-0.5599978026180952,-1.859357053257143,4.348070880285714
1.635819088,3.9703555106190476,-0.6363135145376191,-1.8887727685428572,4.490945305857143
1.640741471,4.070923192047619,-0.718807040252381,-1.8960890059714286,4.595138754809524
1.645663704,4.119255724285715,-0.7801065147285714,-1.9141667144,4.659217577285714
1.650586081,4.141911438428572,-0.8401441815666667,-1.9432192898285716,4.708416631857143
1.655508314,4.15283382495238,-0.9067960850000001,-1.9777944343047618,4.751763994571429
1.660430774,4.15521025647619,-0.9820289910000002,-2.014657528590476,4.788025980142858
1.665352929,4.156087171333334,-1.0591801341190477,-2.0522974360190473,4.8201147167142855
1.670275389,4.150927554857143,-1.1200894692380952,-2.108786384233333,4.848488671809524
1.675197545,4.139783938571428,-1.1850843294904763,-2.178730104604762,4.879510521238095
1.680119903,4.103569643714286,-1.269159182904762,-2.27200948052381,4.91464387647619
1.685042136,4.029013258952381,-1.379901090542857,-2.393857093047619,4.9618708989047615
1.689964509,3.9142402125714284,-1.5178336188904762,-2.516508369142857,5.013539506142857
1.694886742,3.7732011249523807,-1.6738943372285715,-2.6011438482380953,5.053541849285715
1.699809124,3.6139728454571425,-1.8510791488714287,-2.563653417904762,5.059879697190476
1.704731367,3.441139033804762,-2.0421979029523807,-2.354644463095238,5.090667025047619
1.70965375,3.27567183967619,-2.2359378990428573,-1.9599458432380952,5.2206504857619045
1.714575973,3.1115114064142855,-2.430759095,-1.3950045619047617,5.466628385904762
1.719498355,2.954693226557143,-2.628526676238095,-0.7473206691904762,5.766909524666666
1.724420817,2.7781630725714286,-2.832002861142857,-0.11589176899999996,6.043092047666666
1.729343078,2.566193117942857,-3.041430479,0.45042154314285715,6.264765491142857
1.734265461,2.330828824190476,-3.2667617740952384,0.946482311904762,6.456643747285715
1.739187694,2.0688510664761903,-3.498699835333333,1.404349605047619,6.625431616428572
1.744109829,1.8143123430857142,-3.740415175714286,1.8272153705238097,6.81220652247619
1.749032211,1.5863660531333335,-4.000446217333334,2.2214282181904763,7.029464946190477
1.753954444,1.3634894305619045,-4.268038255761905,2.5603528418571426,7.240909879047619
1.758876827,1.1354071937999999,-4.5389309780476195,2.8326138937619048,7.435502843047619
1.76379907,0.9025780544666666,-4.807452065571429,3.032556124952381,7.604235482523809
1.768721452,0.6688255256571428,-5.061841056428571,3.165029792433333,7.734447833714286
1.773643684,0.4498656633999999,-5.294740472476191,3.2832302634428574,7.829632747857143
1.778566067,0.26270247223333326,-5.499077887714286,3.416250553733333,7.89499548842857
1.783488299,0.11656914355904754,-5.655767940285714,3.571443072252381,7.928783615238095
1.788410774,0.023603713801904697,-5.761077120142858,3.748554115346667,7.918337922190476
1.793333161,-0.023285236526666725,-5.815557650095238,3.9498635337228567,7.867211489285715
1.798255391,-0.0486545230885715,-5.812449602809524,4.1432756304371425,7.802153265142858
1.80317775,-0.07993942905809531,-5.75699822104762,4.289104961722858,7.7619924169047625
1.808099983,-0.13605642725333342,-5.661025081333333,4.360927196294286,7.733072372666666
1.813022365,-0.25090028398190484,-5.525382893380952,4.308082944389524,7.629727927857142
1.817944574,-0.42356442676761913,-5.348037078190476,4.091654278532381,7.397673415857143
1.822866957,-0.6437955681009525,-5.126877546238096,3.814225447341905,7.116045560333333
1.827789103,-0.8779620909247619,-4.8609698875190475,3.5555016888657143,6.859700347666665
1.832711331,-1.1060108582961905,-4.551852649780952,3.351998625151429,6.658129567047619
1.837633716,-1.3233252903533335,-4.195177927495238,3.200633254151429,6.499644587285713
1.842555944,-1.5205083827819048,-3.7976610581619044,3.0682248168657145,6.345325936238096
1.847478403,-1.689953187867619,-3.3681911434952383,2.9253368044847616,6.169256711047619
1.852400559,-1.8403738564390477,-2.9190894343523808,2.766796759960952,5.9760273571904765
1.857323034,-1.9692306686295238,-2.4551491091142856,2.6414342388180954,5.79300289047619
1.862245418,-2.074571807915238,-1.9782462495428574,2.5572439950561905,5.616655996142858
1.867167651,-2.1577957184866667,-1.501856353209524,2.5770241427228573,5.468467696333334
1.872089785,-2.2434121424866666,-1.0425437439714285,2.6694059550038096,5.352769257190476
1.877012168,-2.333917518229524,-0.6059474639238095,2.8217352877561908,5.289274608285714
1.88193442,-2.4368538570628573,-0.18885142811428568,3.021350661275238,5.287052456904762
1.886856574,-2.554883193721905,0.21099738498095238,3.2315632708514292,5.3208710919047615
1.891779038,-2.7049998559171433,0.5942145153619047,3.4438134048999998,5.385391715666667
1.896701194,-2.8930044319219053,0.9645496742190476,3.6422408223333336,5.492249908047619
1.901623653,-3.072869003121905,1.304483966504762,3.805685071714286,5.608380713523809
1.906545809,-3.220790627419048,1.6138470137904761,3.895409163952381,5.708782679714285
1.911468192,-3.314645154095238,1.891625957171429,3.8808136440000007,5.7395839778571425
1.916390653,-3.3397581009047625,2.126771571457143,3.7978847934285715,5.706546844619048
1.921312901,-3.3026771999047617,2.3195124262190476,3.7177435669523815,5.656403181
1.926235284,-3.2246968689047626,2.468160239790476,3.6561326525714284,5.598262746
1.931157516,-3.1214117265238097,2.5712714309761906,3.647989795238095,5.564437350047619
1.936079646,-3.000171530761905,2.6304042908095235,3.6930424598571427,5.559598823666667
1.941002106,-2.860337433333333,2.6484637204761903,3.7771562620952377,5.573241750285714
1.945924491,-2.7293382485714286,2.644856384952381,3.88107860647619,5.600723578238095
1.950846646,-2.618313346619048,2.6297870024285714,3.9999002387619047,5.637503621619048
1.955768877,-2.528209958809524,2.6143083800952382,4.135056665857142,5.681511445238095
1.960691346,-2.4641280969523813,2.5986207554761904,4.267350423809524,5.726132939380952
1.96561373,-2.4370098682380954,2.583130427904762,4.409299271380952,5.79077896352381
1.970535963,-2.4540264834285717,2.567277953857143,4.519382930857143,5.868588463904762
1.975458337,-2.4992246287619047,2.5516015235714287,4.6457470824761895,5.976212556333333
1.98038057,-2.582339582047619,2.533155611714286,4.75976213947619,6.099219137333333
1.985302961,-2.700106518666667,2.5104443233333336,4.84288287152381,6.215714180809523
1.990225194,-2.8324952239523813,2.4827634153809526,4.922401870904762,6.334652428761904
1.995147577,-2.96666975252381,2.4490491777142855,4.9760227770476195,6.435848091571429
2.000069804,-3.085116318333333,2.405404408857143,5.012994459666667,6.515279313190475
2.004992187,-3.213207835285714,2.373846213095238,5.033698502047619,6.59712529252381
2.009914444,-3.347478968761904,2.3565395446666666,5.062581891142857,6.6947950706666655
2.014836826,-3.4896169730476188,2.356411740952381,5.094824927238095,6.807300699714285
2.019759087,-3.611174594809524,2.364707413190476,5.101108074238096,6.895093229285713
2.02468147,-3.707985071904762,2.3740657965238094,5.076564595857143,6.948943874047619
2.029603703,-3.7780134961428566,2.3820352667619047,4.999765498333334,6.949341008619047
2.034526104,-3.8239207778571433,2.3928600719523807,4.840804264714286,6.879212948904762
2.03944826,-3.8546544426666673,2.407953546095238,4.577379257952381,6.740693989619048
2.044370788,-3.880990681142857,2.424454598095238,4.217966156380952,6.564463870047619
2.049293174,-3.8868025370476187,2.4249338875714286,3.8032576215238096,6.386410504095238
2.054215328,-3.8641393978571434,2.4033662193333334,3.369955900190477,6.237631204666666
2.059137539,-3.798403736995238,2.3496461254380954,2.9456997570952383,6.106144368238096
2.064059921,-3.681606641396667,2.2578179388428574,2.534197849952381,5.989081367904761
2.068982154,-3.519145589063334,2.130165554852381,2.101431616761905,5.901141380047619
2.073904537,-3.3048785878014284,1.967731504852381,1.626285958904762,5.84315035995238
2.078826703,-3.0366752555157146,1.7580346556619046,1.1264778972380953,5.779294614333334
2.083748931,-2.6977460224204766,1.503878225090476,0.6048548988571428,5.709337421571428
2.088671393,-2.294638697182381,1.2128724660904762,0.05242379228571435,5.658628128666667
2.093593563,-1.84845188223,0.8958369954238096,-0.5310039548095238,5.641329557952381
2.098515945,-1.3561842054680953,0.5642202872333334,-1.0939289983809524,5.672176273142857
2.103438174,-0.8320479119919049,0.22706413904285722,-1.6240651521904763,5.71588525295238
2.108360634,-0.295169871134762,-0.10524199619523805,-2.0917883855714288,5.745644583857143
2.11328302,0.24136527838904748,-0.4369722370523809,-2.4956278148095237,5.742029350047619
2.118205217,0.7549869946271427,-0.766890576195238,-2.8170046153333335,5.704688656285715
2.1231276,1.2040166673414283,-1.092139385242857,-3.0232119985714285,5.679534652666666
2.128049813,1.5692357153890473,-1.401435573147619,-3.14477357122381,5.655525001571428
2.132972195,1.850698191722381,-1.7030709520047618,-3.2271183796285707,5.643983616428571
2.137894428,2.057971186817619,-1.990634571147619,-3.2734223806142855,5.6359979878571425
2.14281684,2.2119451834557142,-2.2653235756714287,-3.2773512855238094,5.640133178047619
2.147738996,2.3264329946652382,-2.5117433914333334,-3.245579188571429,5.634248040666667
2.152661224,2.4136374723033334,-2.7211243473857145,-3.178401518252381,5.606938841142857
2.157583686,2.4874530451176193,-2.8785191085285713,-3.099599375395238,5.551383649190477
2.16250607,2.5373356174414283,-2.9654211081857142,-3.017396702442857,5.475502259857143
2.167428303,2.5552811891095235,-2.974638536495238,-2.9361639389666667,5.395391496333334
2.172350686,2.57429928427619,-2.9316792976952377,-2.8264340756333333,5.292401357
2.177272919,2.5895813787761903,-2.836249295385714,-2.6927387003,5.1697543578095235
2.182195301,2.567508808109524,-2.671106254004762,-2.5537662703,5.02728978247619
2.1871175,2.479631903547619,-2.437754109433333,-2.4023248040619047,4.849071747571428
2.192039654,2.31101971064919,-2.1492329217666666,-2.2151597537761902,4.621730948809524
2.196961989,2.054458221315857,-1.8324791596714285,-1.9944944748714286,4.364883392619047
2.20188445,1.7306990174587145,-1.5223729276238094,-1.7329146150571428,4.0788786215714286
2.206806602,1.3822926798872857,-1.2314083469095238,-1.443931513777619,3.7747145734285716
2.211729062,1.040933104315857,-0.9713639708619048,-1.1359310003014285,3.485006246095238
2.216651294,0.7268489036491903,-0.7359842494333334,-0.7921803872061904,3.276863286904762
2.221573657,0.45186819399680944,-0.5253688160380952,-0.414160622920476,3.200221814857143
2.226495813,0.2065859470634761,-0.3315873436714286,0.0214059443176192,3.286707405285714
2.231418038,-0.010540666507952495,-0.1718921568714286,0.4879208382557144,3.501393474952381
2.236340499,-0.20741343446033347,-0.04906753910952383,0.978009929279524,3.7918190227142863
2.241262884,-0.3926462895079525,0.019484035319047605,1.472949445884286,4.137494463904762
2.246185097,-0.5902621031460478,0.018210278366666655,1.9359236218890479,4.488102329047619
2.251107479,-0.8187714767365238,-0.06956771087142859,2.3247928563652382,4.825161217809524
2.256029688,-1.0815145169460476,-0.26791952549047615,2.5806258009509526,5.162800177285714
2.260952071,-1.3791516616650954,-0.6026482943952383,2.691024275141429,5.5649532079999995
2.265874226,-1.6873363237079524,-1.086689508557143,2.66115360609381,6.088916747142857
2.270796455,-1.9850147588317621,-1.690396724842857,2.5786792267604763,6.690293208571428
2.27571884,-2.2849206720460478,-2.3249621490809522,2.539842991665238,7.271757785999999
2.280641311,-2.5784885395698574,-2.9512067478666673,2.5962518510938097,7.779420327142857
2.285563544,-2.8430074930460476,-3.542704787676191,2.739541661222381,8.219373864714285
2.290485688,-3.0676249686270003,-4.05129970367619,2.9558082762700004,8.574349239857142
2.295408071,-3.2186388232047625,-4.414883404676191,3.2466633263652382,8.82892689009524
2.300330532,-3.2751762072523807,-4.654241080485715,3.607348850841429,9.042186352285714
2.305252784,-3.283042919109524,-4.792740553314285,3.983520524884286,9.262870782190477
2.310175167,-3.2870296410142865,-4.85865522252381,4.351162058652381,9.51794283395238
2.315097399,-3.3102179765857147,-4.8731904140380955,4.678020312366667,9.799720535428571
2.320019797,-3.36319969382381,-4.844964461371429,4.914679589414286,10.041703151333333
2.324941953,-3.4383464086476194,-4.7839612731,5.048214043604762,10.19670793152381
2.329864206,-3.514513123571428,-4.693506791180953,5.049521962509524,10.225444109285714
2.33478659,-3.5758030754761903,-4.5684253130285715,4.955826253842857,10.16264606395238
2.339708818,-3.6166746956190474,-4.398416886409524,4.804661154604762,10.04239715004762
2.344631201,-3.6325635000952383,-4.1695676911238095,4.631909069509524,9.896463208523809
2.349553433,-3.6128034477142856,-3.862311696409524,4.494076564128572,9.764777947190476
2.354475816,-3.5436676001904766,-3.47335770412381,4.439481139128572,9.661690452285715
2.359398049,-3.4351244653333337,-2.9794598460285715,4.504730150795238,9.561588646190476
2.364320522,-3.3038710298571425,-2.3730097878380954,4.703924343652381,9.389693610952381
2.369242909,-3.1749052773809527,-1.661274005504762,5.021803146271428,9.096935469809525
2.37416514,-3.0711618377619048,-0.8794322165523811,5.371740573890476,8.713461632714285
2.379087537,-2.993527015,-0.1203224584571431,5.678041804366667,8.324026559380954
2.384009693,-2.9508142924761906,0.5674095681142854,5.898202038938096,7.962519118952382
2.388931955,-2.9192454360476194,1.1415776568142857,6.040174995142857,7.649095099904762
2.39385434,-2.885756481190476,1.5512219086142853,6.09077567147619,7.408530057333333
2.398776569,-2.864668721190476,1.7519695177571426,6.042852572047619,7.263050023333332
2.403698951,-2.8604723839047623,1.7873838558523805,5.912774665047619,7.139359548238095
2.408621184,-2.838262240047619,1.7089516677285712,5.702239468,6.97433190395238
2.413543571,-2.7562040941809522,1.5508375679380948,5.3125912675,6.738308950476191
2.418465803,-2.5734548511809527,1.3375316149285712,4.6827782094523815,6.6437032060000005
2.423388186,-2.350003849847619,1.0931940902619044,3.9831318954523813,6.611705345619048
2.428310663,-2.1316333781809527,0.8412189456428569,3.3414127357857146,6.531612715333334
2.433232895,-1.9216206584666669,0.5927123655476189,2.780147346690476,6.388957525857142
2.438155278,-1.702565800561905,0.36848131540476164,2.3466800209761907,6.169282020142857
2.443077545,-1.4639731758952383,0.17444089207142838,2.0229419341904764,5.933194825095238
2.447999927,-1.1937185185142858,-0.0001821602047621226,1.7810171203809528,5.730606104714286
2.45292216,-0.9028194234666668,-0.15647229825238118,1.5796450646190476,5.549688274333334
2.457844558,-0.6054147595619048,-0.2905726786571431,1.4096822610952382,5.385929069714286
2.462766714,-0.3337845178000001,-0.40602072208571455,1.2749597330476192,5.22685857452381
2.467688942,-0.1111493791809525,-0.5089889153238097,1.204144306095238,5.090404543666667
2.472611409,0.036570673895237986,-0.6011237713714288,1.1791285545714285,4.975000283571428
2.477533794,0.14080043065714273,-0.6734000117047622,1.1856338395714285,4.892003448190476
2.482456026,0.22517351875238084,-0.708811108466667,1.1948438925238096,4.835925586761904
2.487378404,0.30705261227619035,-0.692597055657143,1.2034078538095239,4.801370977238095
2.492300637,0.38821694394285705,-0.6160918232142859,1.1773987596666668,4.763064074761905
2.497223028,0.47636556051428564,-0.4875721064904764,1.124186082904762,4.710042534190476
2.502145261,0.5575317484666665,-0.32356354020476213,1.0429724156190476,4.635106433142857
2.507067644,0.6324152264857142,-0.13204020963333354,0.9418265634285716,4.538563393047619
2.511989757,0.6887211799380951,0.08384354489047598,0.8545001815619048,4.452106271238096
2.516911985,0.7054129895476189,0.3103931192238093,0.9114758967809525,4.3933190985238095
2.521834355,0.643771322695238,0.5469015511285712,1.1801693197904763,4.1578088577142855
2.526756588,0.5566988480571426,0.7905995974142854,1.5007948832619047,3.8538065570952376
2.531678961,0.4881799000619046,1.0244913626523808,1.756446395957143,3.604776504761905
2.536601194,0.43952527568095223,1.236135506938095,1.9359512992380954,3.4298454284285707
2.541523577,0.40125546634761894,1.4039381756999998,1.9924306298000003,3.3507772510476186
2.546445776,0.3607151287761904,1.5167713633999997,1.954005439690476,3.301211730714286
2.551368158,0.3033016585857142,1.5845396022380949,1.8336350601714289,3.2210677396666667
2.55629062,0.2351571384904761,1.6112333167571429,1.6776798732428575,3.1154465073809527
2.561212868,0.16610124063333323,1.5986492208476188,1.501472725357143,2.9957487191904764
2.56613525,0.12273133434761893,1.5486909839619045,1.3171483927333334,2.8792440227619047
2.571057483,0.12836966696666655,1.4765985083190476,1.110866341904762,2.7563178002857143
2.575979627,0.21503700031904752,1.395446985990476,0.901995005704762,2.6245271704285718
2.580902009,0.3523289539857141,1.3036547488095236,0.7029274357714286,2.464369616857143
2.585824237,0.5067279572714285,1.2092354170285713,0.5121086243238095,2.2833637316666664
2.59074662,0.6535496746809523,1.1120034598761903,0.3307642870995239,2.088217983228571
2.595668853,0.7782203420095237,1.0124305600619046,0.17394928304666674,1.9053001958714286
2.600591274,0.8588655811,0.9181562719238094,0.039120668720952455,1.7459814951904762
2.605513507,0.9147528211142855,0.8341403717523806,-0.07718566316476183,1.6183362831428572
2.61043589,0.9481654871309522,0.7588285633714283,-0.17866376014571422,1.5233604612571428
2.615358141,0.9624456296595237,0.6893248529904761,-0.2637316170266666,1.461666984304762
2.620280601,0.9550068195595238,0.634695663338095,-0.34939233293619043,1.4299965530666667
2.625202738,0.9255321062976188,0.5920277549999998,-0.42785404665999993,1.4225660333047618
2.630125197,0.8849412963738095,0.5456190904047618,-0.49420909627428566,1.4164871731619049
2.635047553,0.8298165338642857,0.4983659954571427,-0.5515958568266666,1.4072231821619048
2.639969709,0.7624135352595237,0.45008537742857124,-0.6088919037266665,1.3939014190190475
2.644891915,0.6795241032785713,0.4040176612999998,-0.6554143805742856,1.368773883352381
2.649814297,0.5928258654623809,0.3709871854095236,-0.6963444303457142,1.3348129421619048
2.65473653,0.5052423871195236,0.34403518503238073,-0.7187356218742856,1.2875508441142858
2.659658913,0.41642005094476175,0.32374066083333314,-0.728257287902857,1.2307216412095239
2.664581146,0.3284935255090475,0.3080596133061903,-0.7271337176457142,1.166971057252381
2.669503327,0.244598762105238,0.2942521370299998,-0.7155742894409522,1.099137303304762
2.674425787,0.16500328640238082,0.2831003751490474,-0.6906628141171428,1.0250335355571427
2.679347943,0.10601590446904752,0.27123785129619027,-0.6558611478885713,0.9678977100619047
2.684270412,0.08246833173571418,0.2543575654152379,-0.6150624355409523,0.9508904886904762
2.689192797,0.09111723249761894,0.2317112319247617,-0.5722571988219046,0.9683055423571428
2.69411503,0.13442304108809514,0.20403766032952358,-0.5311051517404761,1.0177828373666666
2.699037484,0.20385684656904754,0.1719882321914284,-0.4956174854590475,1.0882477385333336
2.703959563,0.29442745962142847,0.14282556485333314,-0.4687187238666666,1.170620172547619
2.708881792,0.3974769812738094,0.11174661315333315,-0.4437702482523808,1.2530022181666667
2.713804254,0.5059773602857143,0.08227366142047601,-0.4221708660890475,1.3232329744809523
2.718726749,0.6147431277333333,0.059182043625714095,-0.40686796107476186,1.3741120538142857
2.723648905,0.7277339867380951,0.050307330673333144,-0.40487767398904756,1.4261641265285714
2.728571288,0.8439310306619047,0.04066437912571409,-0.39741605236999994,1.4710964353380953
2.733493443,0.9529112677,0.03500904501619028,-0.384979097617619,1.508857207004762
2.738415903,1.059548694490476,0.034533568830476,-0.3670511955366666,1.5416767896714287
2.743338136,1.1711284078571427,0.04245680716380933,-0.34322286220333326,1.578901268004762
2.748260551,1.2912982234095236,0.051156235635237905,-0.3068916229985713,1.6243789749095237
2.753182784,1.4000678397971429,0.05238885472095219,-0.2643723828319047,1.670842887909524
2.758105153,1.4975330246161904,0.056141711945714094,-0.22947357240809516,1.720985481385714
2.763027386,1.592696687600476,0.06097666422238076,-0.2075257159461904,1.7791064962428569
2.767949768,1.6902027807504763,0.06511094988523791,-0.20121457179857133,1.8489861285809526
2.772871996,1.788352965678095,0.06917566397809505,-0.21636252602714276,1.9311142608142857
2.777794379,1.8855295352380952,0.06185737766380933,-0.2528275272747618,2.0265123211809524
2.782716626,1.9675673445999997,0.05047290080238076,-0.3168795257795237,2.1172386871523807
2.787639009,2.028990683190476,0.038128281454761714,-0.4082767630033332,2.190017415333333
2.792561242,2.075886834333333,0.026197662488095047,-0.5242565707033332,2.2534130526190475
2.79748359,2.111711831428571,0.0073824253499998145,-0.6562530462271428,2.313467871047619
2.802405823,2.1384161655238096,-0.013770715997619235,-0.7916015195033332,2.370236431095238
2.807328206,2.1649935473809525,-0.043553190745238286,-0.9163484225795235,2.4320463015714284
2.812250667,2.196053028238095,-0.07149438080714303,-1.032114561117619,2.500351970238095
2.8171729,2.2444886935238095,-0.10514914261714305,-1.1297557978238093,2.582826524952381
2.822095283,2.316348825285714,-0.1491045701652383,-1.2005950836619046,2.6803561105238094
2.827017516,2.4065628733809525,-0.21303318990333353,-1.2423847487476192,2.783291275857143
2.831939598,2.479114634761905,-0.2717490456938097,-1.2871210375571427,2.872181229142857
2.836861826,2.5164240656190477,-0.32139899669857164,-1.3466473249285715,2.9386835446190473
2.841784297,2.541758117285714,-0.37678156775095256,-1.4267079431999998,3.0099618729523807
2.846706682,2.5544912134761906,-0.44883456595095256,-1.526696605247619,3.0874179439047618
2.851628914,2.572169826238095,-0.5311852783890478,-1.6681366959285713,3.1946850716190474
2.856551287,2.603640068238095,-0.6163800427604764,-1.8620792654761904,3.3508646461428575
2.86147352,2.647145169238095,-0.7140985207414288,-2.0803398957571426,3.539681472904762
2.866395902,2.6955165977619044,-0.8309488085285717,-2.288825804214286,3.7333850385714284
2.871318126,2.726615985333333,-0.9612296186357144,-2.460138911209524,3.9002691690952376
2.876240509,2.7360903195714283,-1.1006312824238096,-2.5497100494190477,4.013673973809524
2.88116297,2.7301336527619045,-1.2352921863000002,-2.528277953371428,4.083084897190476
2.886085169,2.706273936142857,-1.3747121904,-2.404485481038095,4.1593817618571425
2.891007323,2.6589610236666665,-1.5246080471809524,-2.2052200066571426,4.261112662571428
2.895929467,2.582518495333333,-1.694772288847619,-1.948537150942857,4.387809424857143
2.900851849,2.4716499767714284,-1.8843771473904765,-1.6616899228476187,4.527758632333334
2.905774116,2.3256432194571426,-2.090870002804762,-1.3655572674666667,4.67485398252381
2.910696499,2.1456322251666666,-2.3123749493428574,-1.0600706905619046,4.836146215380952
2.91561896,1.9327013187857143,-2.553840954980952,-0.7433129321333333,5.012039577666667
2.920541106,1.6891972259761903,-2.8031005375809523,-0.43608540008571417,5.187242007571429
2.925463566,1.425333469452381,-3.0628043894761907,-0.1377424057999999,5.364514442952381
2.930385722,1.1324837584523808,-3.330360193942857,0.17344431086666673,5.549820399714285
2.935307972,0.8531629507380952,-3.613522864409524,0.5116824933904763,5.774778757857143
2.940230432,0.6100209022619045,-3.91913306417619,0.8723551035333333,6.043653973714286
2.945152821,0.3817963295952379,-4.239128495847619,1.2515852394857143,6.323102039952381
2.950075053,0.1585079978809522,-4.561760209714286,1.635105604247619,6.593405978571429
2.954997436,-0.08214086211904775,-4.880487248857143,2.023936731485714,6.82655850547619
2.959919588,-0.3299325725000002,-5.190519622238095,2.4582144930095238,7.021545699380952
2.964841817,-0.5788342348809524,-5.4808071793333335,2.891866167390476,7.177103768190477
2.96976421,-0.8148368958333334,-5.733199596238096,3.2754802647238095,7.294562332428572
2.974686443,-1.008844945357143,-5.936803828904762,3.588472985104762,7.384928680238096
2.979608826,-1.1611100370857144,-6.090033201761905,3.803795121961905,7.4791940491428575
2.984531034,-1.280555463209524,-6.197534390714286,3.8951845509523815,7.572867712095238
2.989453417,-1.3759154130380953,-6.261182728142857,3.8788121257142856,7.614913944333334
2.99437565,-1.4610101714857144,-6.277129581857143,3.772642317233333,7.5820903112857145
2.999298032,-1.5508979806761907,-6.2394772028571435,3.6021854607523807,7.483035205809524
3.004220494,-1.6461761224476192,-6.154429197190477,3.40822694688,7.3492520501904774
3.009142727,-1.7461681223714287,-6.028678201380952,3.2209050505180947,7.203439304142857
3.014065018,-1.8445318340809524,-5.858474163666666,3.055986806632381,7.044732973476191
3.018987251,-1.9348680206523814,-5.641377397857143,2.9135108042990474,6.874922590809524
3.023909634,-2.018321255795238,-5.388659766642857,2.8309240844419046,6.725370492666666
3.028831891,-2.1059505399857144,-5.099533630157143,2.790759761346667,6.596514111857142
3.033754044,-2.1933852178428572,-4.771755063719048,2.7472565222990477,6.461123395285715
3.038676417,-2.282522124842857,-4.402476346119048,2.6913698222514286,6.316041058619048
3.04359865,-2.369131068366667,-3.9984942915,2.641821264441905,6.171191715714286
3.048521033,-2.4578665352714286,-3.561685432880952,2.617445644108572,6.037198772571429
3.053443265,-2.5477921082714285,-3.0917868684523806,2.6385336992990474,5.928773287952382
3.058365725,-2.6305592542714287,-2.5934736458809526,2.648774276822857,5.799594694666667
3.063288111,-2.7238103576999997,-2.081319645738095,2.5569328970609524,5.613244676190477
3.068210366,-2.8137026429380954,-1.5789899896904764,2.542392951394286,5.462579526285714
3.073132749,-2.9020273600333333,-1.089853089452381,2.581835570060952,5.347294584428572
3.078054987,-3.0369844181285712,-0.6355833851190478,2.590835814632381,5.254131902238096
3.082977369,-3.202631325971429,-0.2197994916428573,2.586081481394286,5.200506846809525
3.087899602,-3.379921527180952,0.16342127183333316,2.5842610533942856,5.188390242142857
3.092821985,-3.5654990616857147,0.5154216104999998,2.598311383870476,5.219763611619048
3.097744141,-3.7474631469047623,0.8362547939761904,2.629083144589524,5.291461201142857
3.102666369,-3.9097969078571433,1.1319945582142856,2.6824402391180953,5.3957277804285715
3.107588859,-4.041210765000001,1.4079019384523808,2.7679606188,5.510846944142857
3.112511244,-4.130631333380952,1.6628357952142856,2.878188380304762,5.6250537998571435
3.117433476,-4.174640190142857,1.8944028033571425,2.991789329761905,5.7328441290952386
3.12235584,-4.174839292380953,2.094531091880952,3.1144480933333334,5.835200746142857
3.127277996,-4.139924719333334,2.2660067067142853,3.2238769078095237,5.923628488285715
3.132200455,-4.073628811714285,2.409034044942857,3.3331318924285718,6.003243872666667
3.137122698,-3.984995183571429,2.5253395665047615,3.453189180095239,6.082526834095238
3.142045081,-3.893525611857143,2.616988562380952,3.5597625120000007,6.146636528095239
3.14696729,-3.815132141190477,2.6927598998571427,3.6207823186190473,6.176976028095238
3.151889443,-3.7552461057619047,2.7552725246666663,3.6200456506190477,6.165809192142857
3.156811806,-3.7146846795238098,2.8006186258095234,3.561443998761905,6.117779266238095
3.161734039,-3.702391340761905,2.8254749207142855,3.527662810904762,6.0978347082380955
3.166656426,-3.6987184230952384,2.8316734858571424,3.59674666047619,6.136992326190476
3.171578659,-3.7224966118571428,2.844627630142857,3.6093235583809524,6.166017499714286
3.176501042,-3.7790195261904764,2.8555832476666665,3.608661617619048,6.207491305714285
3.18142329,-3.826646657333333,2.872641495285714,3.680008422809524,6.287332657571429
3.186345672,-3.865784838190476,2.895794879809524,3.7958916596190475,6.381403627428571
3.191267905,-3.9086241609523813,2.919774021380952,3.9270107973333332,6.482708559
3.196190384,-3.9477205844761905,2.9455062207619047,4.049138983095238,6.576731317047619
3.20111277,-3.9740511690476192,2.9682638417619045,4.1697414091428575,6.655946944857143
3.206035001,-3.988629942904762,2.986862557238095,4.277443176190476,6.717600139428571
3.210957394,-3.9756492320000003,3.0024169285714284,4.312577031857143,6.729177252333334
3.215879549,-3.934028421190476,3.0087183543333333,4.285128843190476,6.691392739904761
3.22080185,-3.8747806662857145,3.003196205380952,4.1959811335238095,6.608837597809524
3.225724235,-3.8168651376666665,2.9933364845238093,4.035864847038095,6.49110258752381
3.230646468,-3.7639365196666668,2.981229918285714,3.8066528854395236,6.339200441142857
3.23556885,-3.7060570490476192,2.958490871190476,3.5120188966252384,6.1403923456190475
3.240491102,-3.6395522896047616,2.9211438723333334,3.149040699339524,5.917328354095238
3.245413485,-3.546870524071429,2.863365735285714,2.747412795434762,5.706737052333334
3.250335717,-3.4139293376238093,2.780575207238095,2.356219893720476,5.520879774428572
3.255258125,-3.236147812490477,2.6682276327809524,1.9636203791966667,5.383915880476191
3.260180358,-3.0190364747285714,2.5231752511280954,1.5599661671490477,5.292053141666666
3.265102817,-2.751666614014286,2.3466238183090473,1.1106117001966667,5.25707916347619
3.270025175,-2.4297840027761906,2.1453327226899996,0.6019635090061906,5.284868610857142
3.274947406,-2.0329623903952383,1.914116723451905,0.06406608114904772,5.357595571047619
3.279869531,-1.5602173805857145,1.6524435794995238,-0.5066304544223809,5.483341857285714
3.284791913,-1.0091413316809525,1.3655948187376188,-1.084066447422381,5.646977382428571
3.289714146,-0.37926533115714295,1.06043186669,-1.6686276137080953,5.85825353547619
3.294636529,0.3280736831761904,0.7456376214519045,-2.24522142147,6.115272455333333
3.299558733,1.0578248386047617,0.4412685692138093,-2.7613817960890477,6.360202234380952
3.304481115,1.6971247989857143,0.15755161811857127,-3.1976417015652383,6.509905638619047
3.309403348,2.2214011463666665,-0.11085037931000018,-3.5454402760890478,6.537776447904762
3.314325741,2.624184585652381,-0.36363804311952397,-3.792312088089047,6.503969422000001
3.319247973,2.9164317675095237,-0.6005643262623812,-3.9960811361366666,6.451909717714286
3.324170433,3.1213744367,-0.8333489948814288,-4.150070519279524,6.403699834619048
3.329092815,3.2626478160428576,-1.067017844500476,-4.250534517031904,6.3623083173333335
3.334015045,3.3470238134283337,-1.2987462279290478,-4.311712519004762,6.332614388904762
3.338937218,3.373302576028333,-1.521947514119524,-4.326263186438095,6.329104228571429
3.343859601,3.3422573350140476,-1.7360504181195242,-4.280375804180953,6.349885178333333
3.348781844,3.2494440532426188,-1.9262117087861905,-4.191601713438096,6.376236254523809
3.353704226,3.1269776735569046,-2.0921690404528572,-4.092808859619048,6.39604558652381
3.358626449,3.006074153185476,-2.2252236090909525,-3.957560096414286,6.362374912619048
3.363548832,2.891391291471191,-2.3126305114380954,-3.7969836563904757,6.268673751761905
3.368471064,2.7609630510426193,-2.3423992224761907,-3.602974375057143,6.099878803238095
3.373393423,2.5996440024188097,-2.3105749828333337,-3.38380084715238,5.865553779142857
3.378315656,2.402051955428333,-2.227768272161905,-3.1509384200571424,5.57979007
3.383238115,2.1719027657997616,-2.1092168936952382,-2.883972326914286,5.226967337904762
3.388160488,1.8840057125711904,-1.9637376611123813,-2.593281518819048,4.809212114
3.393082719,1.5054355637788095,-1.8060236645923813,-2.2759753011523807,4.312397065619048
3.398005101,1.0277048822835713,-1.6501466597923813,-1.9516932056285712,3.756127267809523
3.402927319,0.5088693036740475,-1.5171416609352382,-1.6523759194904761,3.206144054066667
3.407849473,0.06007305976928564,-1.4061879935828574,-1.3714661995714286,2.7737519218285716
3.412771851,-0.2870164181830953,-1.3139144701876193,-1.1041577713809525,2.5215931311619046
3.417694083,-0.5483514732307143,-1.237899277349524,-0.8013721931428572,2.459047383352381
3.422616543,-0.7434665626116667,-1.1708243711066668,-0.43068071204761904,2.5395873213523807
3.427538923,-0.9031611320878571,-1.102236940206667,-0.014727104285714252,2.7259645189714283
3.432461155,-1.0391506561450001,-1.0373563221542859,0.43774712085714285,2.995338796447619
3.437383309,-1.1728920831971428,-0.9792214654876192,0.8932896568571429,3.2963556893523807
3.442305692,-1.29920065494,-0.9706073227733336,1.2781518442000002,3.5705690406857142
3.447227925,-1.4119287965590477,-1.0199431317733334,1.5476658911809524,3.7839258358761905
3.45215037,-1.5106329870352382,-1.1337076902495238,1.6876278377714287,3.9571265344
3.457072755,-1.6280496640352382,-1.3026325895352382,1.71257317084,4.158811212685714
3.461994911,-1.785295952844762,-1.5271446784400002,1.655338077492381,4.438425204590477
3.466917165,-1.9705573329876191,-1.785092634249524,1.5783348425638093,4.764596268828571
3.471839319,-2.158619802130476,-2.0648505937733335,1.5521061251828572,5.09017829892381
3.476761692,-2.3373357152209526,-2.356861823559048,1.618269744544762,5.380691810399999
3.481684153,-2.515515236135238,-2.639296308325714,1.7855224611161906,5.634149114495238
3.486606391,-2.700672569220952,-2.8592988793638097,2.0300409909257144,5.847516896780952
3.491528545,-2.8585275690400005,-2.9961261628514286,2.3090793179733335,6.0312126064
3.496451005,-2.9579493758666664,-3.064603593371429,2.5928603071638094,6.21412767592381
3.501373403,-3.0112422307999998,-3.0831450706380954,2.8870737894971428,6.412631238638095
3.506295559,-3.0433444182857143,-3.0626095944857146,3.156025165787619,6.619306733380953
3.511218019,-3.047706274857143,-3.0164813569523807,3.399532687297143,6.837535063
3.516140256,-3.040515706714286,-2.948271644966667,3.60631435844,7.035167550380952
3.521062639,-3.0324582316190476,-2.8598834559952384,3.747387937344762,7.1763637124285715
3.525984872,-3.030747283142857,-2.7508282661428574,3.8145426854399993,7.25146913604762
3.530907017,-3.0338496651428573,-2.6183487375666665,3.8181277515828573,7.270720454095239
3.535829476,-3.0345015242380953,-2.4590871220476194,3.763161619725714,7.236992733619047
3.540751846,-3.004813006952381,-2.2789861190952383,3.6752302819161904,7.166916779095237
3.545674002,-2.9522192421428572,-2.0362322614285713,3.6168606681066664,7.108431167238096
3.550596248,-2.878838998904762,-1.725987689809524,3.6204685769638094,7.065217047047619
3.55551863,-2.779018475904762,-1.3680647043809526,3.714939441201904,7.009104886142857
3.560441092,-2.662353896,-0.978311657904762,3.8969399191238088,6.889561041285715
3.565363272,-2.5368247997142856,-0.5686589081904764,4.121455391266666,6.675092383857144
3.570285731,-2.398590888285714,-0.17268352847619062,4.343997143599999,6.3954228052857145
3.575207964,-2.253188893904762,0.18581395209047605,4.508413144552381,6.089977317047619
3.580130366,-2.1012629838095243,0.49590118163333313,4.576075763961905,5.775867872428572
3.585052598,-1.934212369585714,0.7456230947285712,4.526475861000001,5.471370927952381
3.589974981,-1.7490200840523809,0.8971817607285713,4.357837574847619,5.2339937484285715
3.59489716,-1.569471511119048,0.9412886642523808,4.077092102657143,5.096633900285714
3.599819389,-1.4115946108333335,0.9138540427285713,3.717473972466667,5.030570518
3.604741773,-1.2602259927857145,0.8492124251476189,3.3230801537523806,4.967746714047619
3.609663992,-1.107980278214286,0.7682607117571427,2.9546135834666667,4.87925671547619
3.614586375,-0.9694259435476191,0.6865244252523808,2.610470873990476,4.726900901571428
3.619508607,-0.8375541808333334,0.6105635223190474,2.2939497729333334,4.511758551047619
3.62443109,-0.7072631786904763,0.5447179998147618,1.9923360489714286,4.257303244047619
3.629353246,-0.5883169840714286,0.48146309564333317,1.713919676495238,3.9861497813333333
3.634275614,-0.5008136514050001,0.4153011877957141,1.4513342863047618,3.706995608857143
3.639197847,-0.45206946111928575,0.34349747608142844,1.1974030477809525,3.4457424953809523
3.644120307,-0.44154340573833345,0.26670290284333315,0.9650933771142857,3.2267558873333333
3.649042679,-0.4496756023573811,0.18274599136714267,0.7564623781619048,3.0386084809523815
3.65396491,-0.4523699366907144,0.09583779850999982,0.5971850412095238,2.8838173548095236
3.658887064,-0.44239227807166676,0.01201975451952364,0.472891231352381,2.7509448463809525
3.663809509,-0.41327203716690486,-0.0713162979280954,0.38066589544761903,2.6353980317619046
3.668731664,-0.3756107515478572,-0.13425881983761923,0.3156792294,2.545922217761905
3.673654023,-0.33886442559547625,-0.16731176952333351,0.2729036154952381,2.483166427952381
3.678576256,-0.3060044757383334,-0.1624381503280954,0.2587562827809524,2.4508813947142856
3.683498639,-0.2727289509478572,-0.12297014999476205,0.29535542500952383,2.4583414842380953
3.6884209,-0.25070566410023815,-0.04799172177095255,0.3685001390666667,2.4867128694761904
3.693343283,-0.26312061692880956,0.06409608713857126,0.4720446637904762,2.482667547571429
3.698265516,-0.3100946181145239,0.20278084809571412,0.6234369476476191,2.4197052584761902
3.703187984,-0.3711719020816667,0.34667394805285695,0.8171224679333333,2.3048347022857145
3.708110371,-0.43511114139119056,0.4809061852671427,1.0139277605619046,2.176757328047619
3.713032602,-0.4924013832292857,0.599627661900476,1.173239097704762,2.073615980857143
3.71795497,-0.5407825755864286,0.6856178524290475,1.2864034771904762,2.013739454
3.722877126,-0.5734742416340476,0.7385466634576189,1.3425739535238095,1.9926766155714286
3.727799586,-0.584080575967381,0.7623221860095237,1.3391936676809526,1.9869850822380952
3.732721818,-0.5575524843007144,0.7659838043571428,1.2887652865604762,1.9947942714761906
3.737643957,-0.4685289128719048,0.7502678987619046,1.2041401928366666,2.0110503380476192
3.742566417,-0.31748748463380955,0.7261979452142855,1.0816070502652382,2.021758177571429
3.747488802,-0.11614519711000007,0.6877178492952379,0.9498244276938095,2.0102714573333333
3.752411044,0.10673909460428563,0.6543221842809521,0.8093453796461906,1.9849682554285717
3.757333198,0.334435660985238,0.6260883297285712,0.6632782371700001,1.9599955637142856
3.762255658,0.5580511937947618,0.6107237594523808,0.5207689526938095,1.9576001694761904
3.767178032,0.7756675702233332,0.6082859493476188,0.3926715718033334,1.9743679944761905
3.772100265,0.991373947032857,0.6101588535904761,0.27647590728904764,2.0060608525238095
3.777022648,1.198988998985238,0.6125566632999998,0.170878002522381,2.0523538603333336
3.781944857,1.3918323283185714,0.6187929014380951,0.05795209837952382,2.108994766952381
3.78686701,1.5589444687661904,0.6294197582095237,-0.0786427591442857,2.1685962526666667
3.791789456,1.7032025613138095,0.6343568052571427,-0.2109178523347619,2.227330258714286
3.796711612,1.8403378420376189,0.6301224260142855,-0.32991937710619046,2.2897660127619046
3.801633979,1.975480370623333,0.6181385204952379,-0.4420334205347619,2.3548908883333333
3.806556212,2.0946073220190478,0.6104364253285712,-0.558460989677619,2.4258571484761906
3.811478672,2.1867230847095236,0.6074777586142855,-0.68249570383,2.498976208142857
3.816400862,2.2421375115952378,0.6077059478999998,-0.80637198883,2.564498710333333
3.821323244,2.2580951282380948,0.6172037578761903,-0.938833179077619,2.618765095857143
3.826245477,2.2412374616,0.6317626606857141,-1.0668250370680952,2.66034754
3.831167932,2.2025608420761906,0.6479273296571427,-1.165861798739524,2.6884760064761903
3.836090318,2.1519977479238093,0.662008997942857,-1.2384080858571427,2.6957740152380953
3.841012549,2.0892681281190475,0.6756857122714284,-1.2823708454666667,2.6787706499999997
3.845934927,2.014730606814286,0.6842545214190474,-1.2846047963238096,2.630394444904762
3.850857159,1.933148696342857,0.6965849498952379,-1.2681086034761904,2.5628647232857142
3.855779309,1.8484400284095235,0.701729475038095,-1.2387245581238093,2.483509044547619
3.860701692,1.7523144583190475,0.6999613316333332,-1.2131846546952383,2.3934145601904766
3.865623924,1.6427990737761906,0.6887111408380951,-1.1878626090857143,2.2895704630714286
3.870546383,1.5222014089714286,0.6760097131857141,-1.1757867988809525,2.18175422832381
3.875468539,1.394495270090476,0.6630321421809522,-1.1716903703285715,2.0779937294142856
3.880390956,1.2562273155480952,0.655128522290476,-1.1818280361809523,1.9887792747476187
3.885313188,1.1274023684004761,0.634845141142857,-1.1797358478761906,1.8916388747476192
3.890235571,1.006732276843333,0.6074299986142856,-1.1649319415761905,1.7867088961000002
3.895158019,0.892956041500476,0.5785981420242856,-1.1507199917238093,1.6806472574333335
3.900080251,0.7909551890909524,0.5523539032947617,-1.1293112777238097,1.5771284776714285
3.905002634,0.7060351375385713,0.5263141421995237,-1.0925621844380953,1.4814123636095238
3.909924871,0.651986707205238,0.4934145226309522,-1.0309389471428572,1.405868277657143
3.914847025,0.6470007503004761,0.45416357101809507,-0.9457009012380952,1.3680912380857142
3.919769403,0.6862284233004762,0.41162019027428554,-0.8427209985142857,1.3598833095619047
3.924691865,0.7475063293957142,0.3782285712647617,-0.7354498565428572,1.3564410091333332
3.929614021,0.8203668002242857,0.35437790605999986,-0.6383971408166668,1.3552594454190476
3.934536246,0.897365936605238,0.3348974278599998,-0.5656617120261904,1.3620275782285713
3.939458629,0.9668990320909523,0.31929133104571406,-0.5173791880880952,1.3757628291333333
3.944380862,1.033333460895714,0.3070259496885713,-0.4916945702928571,1.4015493410380953
3.949303254,1.1001465097719045,0.29753356941238074,-0.4824913804071429,1.4400643099904762
3.954225486,1.1720679832433334,0.29329813998857124,-0.48685671389761903,1.495359825895238
3.959147869,1.2553199363671428,0.29108299580761887,-0.5027821411785715,1.5682432552047618
3.964070239,1.3486277507909523,0.28237499562190455,-0.50668375905,1.6471780197047619
3.968992472,1.448331892905238,0.27418413882190457,-0.5049970455214285,1.7310775493
3.973914855,1.5540399881861906,0.2697386150885712,-0.48974642654999995,1.8165851115238096
3.978837016,1.667836083257619,0.27659709095047597,-0.46252323687857144,1.8999097541952379
3.983759247,1.7972809836095238,0.2814396149695236,-0.41406928534333337,1.9735322287666666
3.988681638,1.920692841280952,0.2820979007314284,-0.3622006181395238,2.054256432242857
3.993603871,2.024925368219048,0.28178809139857125,-0.32025171354466664,2.1282062066047622
3.998526254,2.1107617503714287,0.2873589011552379,-0.29287975990657145,2.19503705817619
4.003448496,2.1858506061619045,0.2936733774847617,-0.2859759029160952,2.2623775969380953
4.008370879,2.2522089425238097,0.3063065198561903,-0.3073518570684762,2.333144883952381
4.013293112,2.3007850874761906,0.31875032913904744,-0.3527109509351429,2.3926972224761904
4.018215518,2.321132183142857,0.32643656751857125,-0.41771161912561905,2.4269127016666667
4.02313798,2.3325978915714285,0.3282881389766665,-0.5049101873732381,2.456734721333333
4.028060213,2.3645900318095237,0.3242198062052379,-0.6146215718684763,2.517333146904762
4.032982353,2.4119999409523807,0.29784413888142836,-0.7225537587851429,2.5952021077142855
4.037904812,2.475544952285714,0.25422533069571407,-0.824175477432762,2.691674370190476
4.042826968,2.5637801375238096,0.20335257053857123,-0.9121770493708571,2.8070954168095237
4.047749021,2.6712771881904764,0.14077590477190458,-0.9893307604518095,2.937426846142857
4.05267148,2.782394477380952,0.06733200097190456,-1.0644865749565713,3.0726492564761902
4.057593942,2.893404052428571,-0.026146951161428764,-1.145797480123238,3.2155806144761905
4.062516343,3.001831963,-0.14437285491857163,-1.214061524575619,3.3581199858571424
4.067438496,3.0879170554761903,-0.2650064286804764,-1.2873899571327618,3.488017827952381
4.072360727,3.1170365811428575,-0.3729332437233336,-1.3739488199375238,3.5745091965238096
4.077282924,3.1074562528095235,-0.46892181464238114,-1.4845977684613334,3.640955503666667
4.082205614,3.0663019646666667,-0.5756764794995239,-1.6204613422184764,3.7075747310000002
4.08712777,2.9947657302380954,-0.6930203877471429,-1.7942724901822857,3.791028481190476
4.092050006,2.9050725869666665,-0.8142199083090479,-2.0170008149765715,3.911918757809524
4.096972389,2.8130078203333335,-0.9558629112857145,-2.277108007252381,4.089603068952381
4.101894612,2.717378580952381,-1.129514241104762,-2.571575441552381,4.326961917047619
4.106816766,2.5931095822285717,-1.3291695227523812,-2.883266573866667,4.602087135
4.111739149,2.425887388942857,-1.5469950930380956,-3.1648865143333333,4.868199124857143
4.116661391,2.2313282007999997,-1.7711602757809526,-3.363168699380952,5.0777899453333335
4.12158385,2.0232197302285715,-2.0037279941428574,-3.417997223952381,5.209352763047619
4.126506235,1.813605827990476,-2.2454708555380956,-3.2825075103809525,5.316583824333334
4.131428391,1.605024834561905,-2.50203117902381,-2.951570465428571,5.4877990944285715
4.136350622,1.3991719286571427,-2.7635150934476194,-2.476027091333333,5.762683081571429
4.141273114,1.1969146842999998,-3.0242296201285717,-1.9117192994761907,6.092056095904762
4.14619527,0.9808182121380951,-3.2891803780476194,-1.3651319912380953,6.3955714988571435
4.151117729,0.7385594959238094,-3.5617748044285715,-0.8702485788571427,6.655848598095239
4.156040119,0.4838777781142857,-3.8511265175238103,-0.43071542466666657,6.887458758714285
4.160962352,0.2201150656380952,-4.162003607952381,-0.04308375857142848,7.100849064380952
4.165884735,-0.05630832050476197,-4.493103833380952,0.2647708484285715,7.311235029761905
4.170806866,-0.3265801781238096,-4.848544665714286,0.5113291400000001,7.5508314785238095
4.175729095,-0.5708383207904763,-5.235847529952381,0.7193498611428573,7.847866924
4.180651634,-0.8066757576476191,-5.63707240447619,0.9050751924285715,8.16946746895238
4.18557379,-1.0439840838380954,-6.019769010333333,1.0900475268809526,8.47962329809524
4.190496177,-1.2903827939333334,-6.3559049654285715,1.2959177238142858,8.74480489042857
4.195418639,-1.5635180416142855,-6.619952406476192,1.5455142855238098,8.941516178190476
4.200340795,-1.8656833228380951,-6.797124408809524,1.8422960014380954,9.067404031095238
4.205263249,-2.1864889051238094,-6.879185222714287,2.2106699574380952,9.125211967142857
4.210185405,-2.498353007304762,-6.876871279571429,2.6439558068666664,9.138564433333332
4.215107865,-2.775322292542857,-6.810986519095239,3.094538753914286,9.143893604571428
4.220030092,-3.0146124277809525,-6.6973353342857145,3.486463748247619,9.176221518238094
4.224952475,-3.223609484352381,-6.5387219476666685,3.7724728896285713,9.260523784285715
4.229874708,-3.4150093311142857,-6.33807742052381,3.901251506247619,9.336738824857141
4.234796828,-3.6078108520666667,-6.096414334966666,3.8384193664857142,9.298635837714286
4.23971921,-3.7975724112571423,-5.802666611880953,3.5843543183904765,9.108946791333333
4.244641458,-3.9693269786619045,-5.468896467357143,3.211962629009524,8.80601164552381
4.249563841,-4.121782600880953,-5.108616231785715,2.819697036704762,8.485380402666667
4.254486169,-4.253743654190476,-4.708398471595238,2.479500333557143,8.192348354142858
4.259408629,-4.371007703571428,-4.260513764357143,2.2379054229380952,7.938373891285714
4.264330785,-4.48677147,-3.752187915071429,2.0889208090809523,7.7149692666666665
4.269253138,-4.598385901666666,-3.1815203530238096,2.0383681457000002,7.510570436714285
4.274175371,-4.697548185047619,-2.5559037117380954,2.0588318620809525,7.309210736428572
4.279097831,-4.7556840464761905,-1.8946375550714285,2.125907625509524,7.095056374857142
4.284020198,-4.7792279038571435,-1.2151229196904765,2.2063341425095238,6.869913870476192
4.288942429,-4.777335098761905,-0.5334101787380954,2.289917903342857,6.657860643666667
4.293864812,-4.749365341,0.1219407788333332,2.364922946457143,6.473350249714285
4.298786963,-4.6741886591904755,0.7279608434047617,2.4319632309380954,6.3210791042380965
4.303709192,-4.5330107097142855,1.273554990642857,2.511953657642857,6.191146475619048
4.308631518,-4.342306557000001,1.7524071718333332,2.578279282452381,6.080068696285714
4.313553751,-4.119935739428572,2.1686662222142856,2.618159989595238,5.9767738160476185
4.318476128,-3.8828107400476193,2.5286620301190474,2.6318750296904763,5.877476356095238
4.323398361,-3.656533411380952,2.8423756488333334,2.644025975785714,5.7988745125714285
4.328320821,-3.4533912169047616,3.119702119166667,2.645530317547619,5.739931111619048
4.333243202,-3.277480369380952,3.3595279242142855,2.6287409379761906,5.691385898190476
4.338165356,-3.1192467040952385,3.561172828752381,2.6204525545000004,5.6558904615714285
4.343087797,-2.991609192904762,3.7259474027142856,2.6416289835,5.647572183857143
4.34801003,-2.920205485095238,3.862571120238095,2.6735780267857145,5.677566673190476
4.352932412,-2.8971257605714285,3.9810965515238093,2.7144999816619046,5.737423045857143
4.35785464,-2.9004700920476187,4.0711992695238095,2.7316522201428572,5.796770325761905
4.362776794,-2.9320118936666666,4.13955218447619,2.6814831722809522,5.849262034095238
4.367699182,-2.984427514380952,4.1886823290476185,2.578066977038095,5.891988963285714
4.372621643,-3.0567348967142856,4.22133537695238,2.4299100293704763,5.92710085047619
4.377543876,-3.1593419539047622,4.2348148140952375,2.254782168337143,5.964173789095238
4.382466258,-3.291808531285714,4.233211903285714,2.083643308422857,6.013385589142858
4.387388414,-3.4408870026190472,4.215978327190476,1.9395969326376186,6.077703732904761
4.39231063,-3.5890436114761908,4.18378605152381,1.8099978396614282,6.141292637619047
4.397233091,-3.723769556857143,4.1374899091428565,1.7014222238138093,6.193789373666667
4.402155475,-3.8438276052380953,4.076217571857143,1.6000858929238095,6.224270029714286
4.407077712,-3.9652599777619044,4.011631046,1.4753295141285714,6.238409613523809
4.412000095,-4.074911350285714,3.9462860084761906,1.3245662720999998,6.2294743854285715
4.416922327,-4.160190440380952,3.880946057190476,1.1504052750238094,6.194646005761905
4.421844701,-4.216521246142857,3.8145651022857137,0.9623981331666666,6.134968328285714
4.426766857,-4.231676152809524,3.7420192900000004,0.7581210917619047,6.038451467428572
4.431689057,-4.209368768190477,3.6693365800952376,0.5295688013809523,5.914809720666666
4.436611441,-4.156260626657143,3.5943312985238096,0.3026268014285714,5.775707207142857
4.441533683,-4.075209393395238,3.5155126821428566,0.09181647499999993,5.6308996015714285
4.446456066,-3.953518248733333,3.4233564422380955,-0.07747704498571437,5.4725942674761905
4.451378227,-3.764929391114286,3.300137962619048,-0.20703999627619055,5.300777801809524
4.456300686,-3.492105535114286,3.139713338452381,-0.29761661801904765,5.155365132476191
4.461222919,-3.1527701048761902,2.9561549999952383,-0.3579211416204763,5.057809130952381
4.466145092,-2.7348046927809526,2.752415376785714,-0.3919195706866667,5.008144680047619
4.471067782,-2.2331784055904764,2.532927809038095,-0.4133675705295239,5.005012332761905
4.475989938,-1.6523338897333333,2.300116710038095,-0.4574996176238096,5.0466638985714285
4.480912365,-0.9867193529238095,2.0410238966095235,-0.5629048546380954,5.141302998761905
4.485834597,-0.24754582706666664,1.7508444282761904,-0.7348111839619049,5.300241395523809
4.490756751,0.5264566341238096,1.446871763942857,-0.9411630307957143,5.487317335190476
4.495679134,1.291549824457143,1.153460088990476,-1.1730833653433335,5.668995255857142
4.5006014,2.0145911772666665,0.8726644693714283,-1.449567424067143,5.845873716619048
4.505523553,2.623721605219048,0.6237187052285713,-1.7328478427961909,5.9659747961428575
4.510446018,3.1030693565047622,0.40989723165714276,-1.9843269377152382,6.005477737476191
4.515368403,3.496738734695238,0.21982075559523795,-2.1438802243057142,5.966562267333334
4.520290558,3.8258253449809523,0.0502745661714284,-2.1695962679438097,5.855856202476191
4.525213023,4.099082146409524,-0.09918500023809539,-2.066247550134286,5.761196420761904
4.530135179,4.319455765600001,-0.22086504705238116,-1.8631056990628572,5.7636158176666665
4.535057638,4.497600055933334,-0.316403379409524,-1.5856704020152381,5.847285139095239
4.539979871,4.640784485066667,-0.39129314145714306,-1.2720174608723813,5.987082892428571
4.544902254,4.7638222462333335,-0.46826414445714304,-0.9449871256819049,6.159931755285715
4.549824487,4.873783440904762,-0.569369144387143,-0.6459398003628574,6.348006933809524
4.55474685,4.94537463652381,-0.7001075219585716,-0.36744994388190494,6.554776337333333
4.559669006,4.945072775857143,-0.8612230945061906,-0.13434466899619069,6.72221130742857
4.56459148,4.876555397428571,-1.0670720956204764,0.0410336206052379,6.84742545652381
4.569513712,4.738744832285714,-1.320635564982381,0.16166918900952362,6.941484648142857
4.57443611,4.532624454809524,-1.6105576065204763,0.26451223804761886,7.011642102476191
4.579358343,4.253755274380953,-1.9075049041395238,0.430606138142857,7.043034147095238
4.584280725,3.886175839790476,-2.173541704139524,0.6944906598095236,7.002910270952381
4.589202982,3.4178506080476194,-2.390550147234762,1.0386412257142854,6.876962032238094
4.594125365,2.876592573809524,-2.5573931869014284,1.359121788142857,6.666829810571429
4.599047598,2.3167036091904762,-2.6879261441395235,1.5988919319185713,6.399897149238094
4.603970052,1.7566051995238094,-2.7788061975204763,1.718354319823333,6.168399612047619
4.608892208,1.2290521861428572,-2.850887394425238,1.6391374989661902,6.167134184999999
4.613814591,0.7235976231428571,-2.9073026854728576,1.3716442509185711,6.429063041476191
4.618736809,0.21969371190476192,-2.941727682982381,0.9740568266328571,6.855410770285715
4.623659191,-0.27207729357142857,-2.961898587677619,0.5212910952519045,7.332872031809524
4.628581448,-0.7276449486666666,-2.9795266358252386,0.11773533306142843,7.681875717142857
4.633503831,-1.1510111887619048,-2.994425254596667,-0.1831435209385716,7.8349484331428565
4.638426063,-1.5428027254761905,-3.0191733514585715,-0.3633952952528573,7.873667536000001
4.643348403,-1.9144919542857142,-3.0405774446776195,-0.4124808668719049,7.933199544380953
4.648270636,-2.279308426952381,-3.0370870619633337,-0.34082759163380966,8.070255562619046
4.653193018,-2.6461036716190476,-2.9874563011714286,-0.1557420452052383,8.297721098999999
4.658115251,-3.016168759,-2.873383399314286,0.08325977369952364,8.561860693809525
4.663037634,-3.3650446676190477,-2.699649018247619,0.3521902543185713,8.827209766571428
4.667960124,-3.686510420952381,-2.4632578258380953,0.6225038237947618,9.039702670952382
4.67288228,-3.981197516095238,-2.1790214997380954,0.8853999187947618,9.163519038571428
4.677804511,-4.255023275095238,-1.8675362219952383,1.1117591158423807,9.189338114
4.682726674,-4.496061512428572,-1.5640866423285718,1.2540322694138095,9.13582777447619
4.687649133,-4.695156037838096,-1.2921829401380953,1.3019001238899999,9.028775478
4.692571523,-4.861144321333334,-1.0331382134714289,1.25192521689,8.887120621285714
4.697493985,-4.968633084095238,-0.8038592175666669,1.1976396906042857,8.758942713190477
4.70241591,-4.977068458333333,-0.619775301709524,1.2139914518999997,8.618027194761904
4.707338398,-4.894751548809524,-0.4736201032809525,1.354970885238095,8.405342553523809
4.71226086,-4.734910397338095,-0.3649540976714287,1.6659558884285715,8.042788485238095
4.717183011,-4.487058117290476,-0.3087454758142859,2.1494654687666666,7.509729403380952
4.722105393,-4.175843113966667,-0.3109730490047621,2.726268227422381,6.9073573456190465
4.727027626,-3.8314756765380955,-0.3578975719333335,3.2622176702747616,6.362401340714285
4.731950009,-3.4915638276238097,-0.43120366413809547,3.637039381412857,5.968212197190476
4.736872241,-3.163130971071429,-0.5259884256000001,3.819052001827143,5.715777746047619
4.741794624,-2.846504629495238,-0.6289658050476192,3.8144847164461906,5.522522537142857
4.746716698,-2.5280090664,-0.741652470352381,3.6354341090842857,5.276733692714286
4.751638927,-2.2034220221142853,-0.8591973285904764,3.3140550691223805,4.942186460142857
4.756561321,-1.8760283541142857,-0.9734814210714288,2.888500101055714,4.528354669142857
4.761483554,-1.5414295573999997,-1.0835355166428573,2.42477547384619,4.082232482238095
4.766405961,-1.2014463211619049,-1.1776850380428574,1.9763385267319047,3.657557429428571
4.771328193,-0.860018143495238,-1.2483373725047622,1.5906143795890475,3.2924452631904764
4.776250576,-0.5168633838761905,-1.2845205140285718,1.2809887142080951,3.0057297065238098
4.781172814,-0.1690092010190476,-1.2800652754476192,1.0512778514461902,2.8003427154285716
4.786095197,0.17627331955238099,-1.231649558351143,0.90901103297,2.6782736421904763
4.791017658,0.5262595548380953,-1.1357452236654286,0.8614286109699999,2.638880884095238
4.795939876,0.8950787916000001,-1.029635701008286,0.9124081343985713,2.6614577276190476
4.800862258,1.2603569788380953,-0.9107347037225717,1.0594181315414286,2.7510715824761904
4.805784491,1.5518898359333333,-0.7776949453892382,1.2591834078985713,2.919343223095238
4.810706645,1.7767247889809523,-0.6391052339606669,1.4879578461795238,3.124575954333333
4.815629028,1.9683415512238096,-0.4909087580940002,1.7301590779414284,3.3067794358095237
4.82055129,2.141081306747619,-0.3290653787130478,1.9328527957461905,3.472109932333333
4.825473672,2.295379260328571,-0.14861366199876208,2.0584238483285713,3.6200420402857145
4.83039591,2.428133493947619,0.04503966604885697,2.1280775665714287,3.736679482428572
4.835318293,2.540169640604762,0.24859552247742842,2.1633213758142857,3.8296151243333334
4.840240525,2.634316356338095,0.4526933781440951,2.169186946857143,3.904175881238096
4.845162941,2.7075154496666665,0.6485525151917141,2.152337233190476,3.963167811380952
4.850085174,2.7509293044761907,0.8280836523821904,2.1243380417761903,3.9997692478095237
4.855007624,2.7701111633809523,0.9857072215726664,2.0913350886842856,4.0157700312380955
4.859930011,2.774482738333333,1.1205094608583808,2.0561017081461905,4.016575954952381
4.864852242,2.772365025047619,1.2361380780012379,2.0063683745033334,4.008455627666667
4.869774605,2.767954599238095,1.3332928372059998,1.9420309477938094,3.9940729685238097
4.874696761,2.7669728937142857,1.4093702672250474,1.8637387595890478,3.9783130010476193
4.87961899,2.765438568,1.4633863606345714,1.772039666027143,3.958295541047619
4.884541375,2.760925043142857,1.494828218048857,1.6581807590557143,3.930668342952381
4.889463607,2.752431903523809,1.501799456490476,1.5095140479795237,3.8871024237619047
4.89438599,2.7380339077142857,1.4833455517519045,1.3220186630795236,3.822548497666667
4.899308223,2.7262110482380955,1.448325075632857,1.1105310008461904,3.7488014725714285
4.90423059,2.716491290428572,1.3961046485829522,0.8602740537319046,3.6503641204285717
4.909152823,2.716405334857143,1.328795317084857,0.6011740167557141,3.5466803643809524
4.914075206,2.6922268526190476,1.2560392239039044,0.36565115052714275,3.4154179503809523
4.918997672,2.648296378857143,1.1775310327181903,0.15995120292238088,3.2661558446190475
4.923919905,2.597195432285714,1.0947957979181904,-0.0052247522680953186,3.118888704857143
4.928842288,2.5499952406666666,1.0112885098515236,-0.12444151935857152,2.990822344666667
4.933764497,2.5097965285238097,0.9288674653562856,-0.19976585604428584,2.8862134977619047
4.93868665,2.479934522047619,0.8490477974658093,-0.23905404479190487,2.8040700734285715
4.943609091,2.461249805619048,0.7724333693181903,-0.24785832918238104,2.7422200893333333
4.948531324,2.45449875647619,0.7032808977419999,-0.23272485178714294,2.699869704952381
4.953453715,2.4653640417619047,0.6482456642229522,-0.19597251960619058,2.683726117809524
4.958375948,2.4888210466666667,0.6106767601086664,-0.14137723617142867,2.692565943380952
4.963298331,2.5156778550952383,0.5908657088705712,-0.07640071213809534,2.7177258835238094
4.968220535,2.5394962855238097,0.5883920933943808,0.0022218092380951447,2.751310253666667
4.973142917,2.550744238285714,0.6011219992848569,0.0911344296809523,2.7829895971904763
4.97806515,2.5491644654285714,0.6295272342229522,0.1840200487904761,2.8102680541904763
4.982987581,2.537153936476191,0.6721262821419998,0.2855504800666666,2.835259680761905
4.987909967,2.5092295123809527,0.7265220443562855,0.3986864337999999,2.8510257655238096
4.992832198,2.467023508809524,0.7888451852943807,0.5234261488285713,2.8555591253809522
4.997754567,2.4162360372380953,0.8521145210615236,0.6612581489666666,2.8509116003809525
5.002676722,2.361030465047619,0.9100208079519999,0.8067281948190475,2.8384668757619047
5.007599172,2.3071025099047624,0.9579530440971427,0.9598191032190476,2.8254678818571426
5.012521405,2.260809603190476,0.9969765685142855,1.1168575279095236,2.820396771285714
5.017443787,2.26011012847619,1.0221279504047618,1.2620414260428572,2.860781668714286
5.022365934,2.302900507285714,1.0386074752333332,1.3909969534571427,2.9398143018095237
5.027288163,2.373817035047619,1.049353667595238,1.4979954715523809,3.0396542192380953
5.032210625,2.4574384575238093,1.057890713142857,1.585381666690476,3.146388234809524
5.037132781,2.5473657902857147,1.0671793789238093,1.6611644709476188,3.256335346238095
5.042055163,2.639487175666667,1.0751681894809522,1.7303706661714284,3.365571011761905
5.046977625,2.7261547928095236,1.088926573533333,1.7902840970571428,3.468146969809524
5.051899857,2.799702371809524,1.1068575722047616,1.8528828534523807,3.5622274334285713
5.056822231,2.8571236587142854,1.127225762247619,1.906963285809524,3.640301699571429
5.061744464,2.895901555095238,1.1491311901238093,1.955892574095238,3.702317380809524
5.066666536,2.924255598142857,1.168800762647619,2.0104320445238093,3.7597759185238093
5.071588995,2.941921449857143,1.181452807838095,2.07099047147619,3.811796996714286
5.076511228,2.9520303068095237,1.1869659990761903,2.1330403712380948,3.858491092238095
5.081433387,2.9426859333809525,1.1827370949333331,2.1964161280952377,3.891562123238095
5.08635577,2.9137473617619047,1.1682180960285713,2.260983597523809,3.91317734247619
5.091278231,2.8727983122857146,1.1403410945095236,2.325519067761905,3.9276077610000004
5.096200401,2.8188785541904764,1.1050410951523808,2.386907163,3.9354631656190473
5.101122632,2.7451820742761903,1.063251520880952,2.441847500238095,3.9325160764761904
5.106045014,2.647339267409524,1.0142016623333332,2.4894600310952377,3.917728326238095
5.110967495,2.5286908426428574,0.9587046163142855,2.5252441167142856,3.8883643317142855
5.115889957,2.3971536053047617,0.8958590924428571,2.5458454574285714,3.840856756
5.120812112,2.2532335597780953,0.8237295675571427,2.5526242199047617,3.7768859131904766
5.125734558,2.096939845469524,0.7425303274380951,2.5563145535238094,3.705838141619048
5.130656714,1.9288638411790477,0.651813278542857,2.5643848408095233,3.6346683339999997
5.135578945,1.7468703694409524,0.5498787575857141,2.578729215142857,3.566336570333333
5.140501112,1.5539635625742856,0.4368525700619046,2.591342886333333,3.4949823900952386
5.145423495,1.3510899408980952,0.31582485629999985,2.60299841,3.4204851846666666
5.150345752,1.1395378488933334,0.1850986153476189,2.6235852696190474,3.3527101076666668
5.155268134,0.928226940002857,0.04764728453809507,2.6493301278571426,3.2969048484761907
5.160190367,0.7213983202314286,-0.09615871317619067,2.6906550725714284,3.2641514930952376
5.165112851,0.5219863206123809,-0.246904570509524,2.7421647367619046,3.254062238904762
5.170035237,0.3255449427076191,-0.40278561774761923,2.791826316380952,3.2580824
5.174957468,0.13185114023142863,-0.5627924247000001,2.831679934666666,3.268775867428572
5.179879851,-0.06660757110190475,-0.7255626108428573,2.8579009829523807,3.2836520580952384
5.184802084,-0.26059590567333335,-0.8894115105095239,2.8648798467142855,3.305444447
5.189724466,-0.4543379481495237,-1.053335801509524,2.8443664257142856,3.3281651335238096
5.194646713,-0.6526693269114285,-1.2149576048476194,2.7932353816190476,3.3539848125714284
5.199568867,-0.8548487588161904,-1.3732851786809523,2.7042717594761903,3.387583535952381
5.20449126,-1.0592279966638096,-1.523767603361905,2.5574550417380952,3.4363092172857144
5.209413721,-1.2427321353209524,-1.6643482248619048,2.3555917982619046,3.501995037142857
5.214335954,-1.4039187076495239,-1.797380704319048,2.103547665452381,3.5916234108571428
5.219258122,-1.553094040787619,-1.9250597954619049,1.798287086642857,3.7215627019523816
5.224180581,-1.6916595144038094,-2.0490043675238097,1.4498340985000002,3.899978525476191
5.229102737,-1.8181946079047617,-2.1681897925238096,1.0814052324047618,4.1054485595238095
5.234025115,-1.9340824655190474,-2.2626995984285716,0.7345315289285713,4.289970011809523
5.238947576,-2.0153145605904763,-2.306752454761905,0.45512495869047614,4.385841635428571
5.243869809,-2.0243367978809523,-2.308372741761905,0.24731371659523804,4.380727849190476
5.248792202,-1.9667378437238097,-2.2837890784904764,0.07445447359523802,4.331834712238096
5.253714434,-1.866549367004762,-2.2293483629904762,-0.11789748640476198,4.294534354809524
5.258636574,-1.7522956530190477,-2.150490078618095,-0.35064485954761915,4.274615244714286
5.263559034,-1.640579317295238,-2.0562912244228575,-0.610029707357143,4.2492422865714286
5.268481204,-1.5339127921047617,-1.9463620800276193,-0.8852141797857143,4.207774584476191
5.273403586,-1.4328097445619048,-1.821461937684762,-1.1609334705,4.141854648238096
5.278325819,-1.3395429367190477,-1.678713462589524,-1.4159898006428573,4.049393839666666
5.283248284,-1.237986747704762,-1.5135490373514286,-1.635557701261905,3.9394374476190475
5.28817044,-1.1181898925904763,-1.3261997065419049,-1.8138901776428573,3.8304208099523813
5.293092822,-0.972927086409524,-1.118273654589524,-1.9509917519761906,3.733046460047619
5.298015055,-0.7967410867904763,-0.896282569732381,-2.043588560347619,3.6468983279523806
5.302937515,-0.5947560341238095,-0.6668264288276193,-2.0827700823190476,3.5669933024761904
5.307859901,-0.3729934620761905,-0.4365279096847621,-2.050711844752381,3.4816394292857145
5.312782121,-0.1732076108,-0.20209266925619063,-1.9491087511333332,3.3835599849999998
5.317704504,-0.011603419238095238,0.03598253031523796,-1.786953281847619,3.2612519291904762
5.322626722,0.1149895801857143,0.2786602870771427,-1.562245326419048,3.1039603326190477
5.327549105,0.2176029583285714,0.526555238362857,-1.2794102402285714,2.9099434605714287
5.332471333,0.30144038517142857,0.772760233362857,-0.9672620438476193,2.695920821047619
5.337393487,0.3697455766952381,1.0033186571247616,-0.6704356698952382,2.5107507816666668
5.342315946,0.40552324202857143,1.1935114190295237,-0.44203914632380964,2.413018385095238
5.347238336,0.3702688629,1.3548238458866666,-0.28734871603809525,2.4180583405714287
5.352160569,0.2723951467523809,1.5009028922819045,-0.16036447741904766,2.470736190761905
5.357082956,0.14491923789523808,1.6248239445914283,-0.0063804246095238585,2.5110621211904762
5.362005189,0.014766092752380944,1.7287473225047618,0.18589542877142856,2.527160669857143
5.366927572,-0.10214143005714287,1.8229022225476186,0.3964634253904762,2.5376146123333334
5.371849784,-0.2050022838190476,1.9098580281523807,0.6004348056761903,2.5464568605714284
5.376772167,-0.2914947598285714,1.9895538319523807,0.7765197612,2.558551888238095
5.3816944,-0.36200933092380955,2.0610222079047618,0.9056992388809523,2.584419792142857
5.386616554,-0.4289939971714286,2.1194383928571425,0.988499855695238,2.624032261380952
5.391538936,-0.5060580458571429,2.160674486952381,1.0278649496723808,2.663562878761905
5.396461155,-0.5953368545142858,2.1835753464761902,1.0267596631390477,2.6897770937619048
5.401383615,-0.6903544721761905,2.193146683047619,0.9896613767295237,2.6982339477142854
5.40630577,-0.7801007600904762,2.190523454238095,0.9131264697009523,2.6942452604761904
5.411228167,-0.8517354287857143,2.1775329341428566,0.8058826593009524,2.6846252560000003
5.4161504,-0.8798789986095239,2.157153646285714,0.6739903755390476,2.681973030190476
5.421072874,-0.8522754262857143,2.1344530243333333,0.5344194240628571,2.6895892486666666
5.42599503,-0.7720089051857142,2.103694166571428,0.40511513992,2.6970496674285718
5.43091749,-0.6459073347095239,2.0591520725095234,0.29920680849142856,2.699727387952381
5.435839902,-0.470394620647619,2.0010361701,0.21352466329619044,2.7214193952857144
5.440762058,-0.2604568154095238,1.9277447903047618,0.16310671142,2.7540738596190475
5.445684289,-0.06426234264761906,1.848383644590476,0.1553758073247619,2.7719014383809526
5.450606672,0.10454660578095237,1.7631374087476188,0.1832253339438095,2.774171825238095
5.455528904,0.2476795137809524,1.6771728397142855,0.24121751980095235,2.781402852809524
5.460451302,0.37243370425714284,1.5821685962238092,0.3238113695152381,2.8089722860952384
5.465373535,0.4830740881619048,1.476513646968095,0.4313825172771428,2.8608334242380957
5.470295923,0.5872671795904763,1.3712487945080951,0.5349965183247618,2.9098099074761903
5.475218155,0.6782421292238096,1.2645653706938094,0.6454054658961904,2.9573678574761906
5.480140615,0.7484718440523809,1.1552457575747617,0.7695492309914287,3.0056376233809523
5.485062771,0.801522367052381,1.0427584293938092,0.9132543776438095,3.053909540571429
5.489985153,0.8412385096814287,0.9263373855033331,1.0660148592104761,3.0948743123333338
5.494907615,0.8737013691290476,0.8109131469842855,1.2275715278047619,3.130086189
5.499829785,0.8950144630814285,0.6982159064652379,1.3990186729095238,3.1630152356190475
5.504752016,0.9000453675814286,0.5911030035080951,1.5748062892619048,3.1932131968571427
5.509674398,0.8933336064242858,0.49390090435571415,1.7578527721190478,3.214166101857143
5.514596631,0.878469892557619,0.40693499715238074,1.9461748166904764,3.224046486857143
5.519519014,0.85363165431,0.3235570947980951,2.1350625774523806,3.2156007206666666
5.524441159,0.8077239390623809,0.2396079014361903,2.3117398612619047,3.1883517896190474
5.529363388,0.7427999418170477,0.1628664260123808,2.459612763357143,3.145700281714286
5.53428585,0.6617531334741905,0.10131690296476174,2.5626761935,3.0891818924761907
5.539208229,0.5578325630170478,0.05654609451714268,2.6332946696857142,3.0072097298571427
5.544130462,0.4436096135551429,0.023279428126666495,2.658318383390476,2.909090347095238
5.54905285,0.3517004746408572,-0.0071750478400001705,2.6338023373571424,2.820117873428571
5.553975083,0.28803047521704767,-0.03984238172095255,2.5653191465,2.7353428024190474
5.558897465,0.24167123423133335,-0.07766447642095255,2.449004864852381,2.6293572580047617
5.563819698,0.195182189898,-0.11203142752095256,2.289400202932857,2.4876474735571428
5.568742081,0.14325876023085715,-0.13590737928904778,2.096040626217619,2.31110078642381
5.573664313,0.08390604724514288,-0.15626609361000016,1.9023670050671426,2.129881035042857
5.578586687,0.026964809054666684,-0.1751932363433335,1.713726199415714,1.9537345033285713
5.58350892,-0.01865204900723808,-0.19021442710047637,1.5370678621061906,1.7898102581857143
5.588431292,-0.05052385814057141,-0.20078523670142875,1.3710103832919047,1.6355789424190479
5.593353525,-0.07204633292676188,-0.21228128388238113,1.223836711782381,1.4995505833714287
5.598275908,-0.08344766690295236,-0.2265422358442859,1.0911500428490475,1.3771686365809523
5.603198184,-0.08030609624104759,-0.24335004496333348,0.9702156132061903,1.2632368487238095
5.608120566,-0.06196443006485713,-0.2605396640490478,0.8633721416728571,1.1577013494857142
5.613042785,-0.0350691922410476,-0.27981894995857165,0.7771220891157142,1.0692558853904761
5.617965168,-0.005671430970571408,-0.29771647354095254,0.7181395692585714,1.0082453713904762
5.622887629,0.020728949929428593,-0.3095650931914287,0.6897532374966667,0.980355947057143
5.627809842,0.04527518785800002,-0.3142325207580954,0.6931399052585714,0.9850559413904763
5.632732225,0.061181806831904786,-0.3147972818628573,0.73039771283,1.0230549499142856
5.63765438,0.07094394921761905,-0.30922242537714306,0.7980986665442857,1.0896414939142858
5.642576591,0.07702952100809526,-0.29696261634380966,0.8845666223157144,1.1701398203904763
5.647498975,0.08144171226047621,-0.2762201875457145,0.986805098582381,1.2582125501047619
5.652421098,0.09188461917476191,-0.25167061619095255,1.0925405737109524,1.3471860094380954
5.657343557,0.11477966583666668,-0.21795985404333348,1.1916456735680954,1.4300825274
5.66226579,0.1549685261557143,-0.17554656966238114,1.2775100993585713,1.5083166477666667
5.667188177,0.22096157263190477,-0.12431538122904778,1.3530516684209524,1.5932649717857141
5.672110409,0.31172804934666665,-0.07064252541952397,1.4214814764219046,1.6894971230619045
5.677032783,0.416134193284762,-0.016676428948095408,1.4882511435723809,1.7948615598238096
5.681955016,0.5307022465561906,0.04102518923761888,1.5539813361285713,1.9051706041571428
5.686877475,0.6537875339228572,0.0964419520661903,1.6207471461999998,2.0177584623952383
5.691799635,0.7733685804990477,0.1522169022766665,1.6950670992047616,2.1326175766380953
5.696722018,0.8815240552704761,0.21566442882428555,1.7708109617619048,2.238424272257143
5.701644479,0.9601752933228572,0.29135885782904747,1.8562361995999999,2.3394647553809524
5.706566396,0.9861814851123809,0.37782218999095224,1.9507331082428567,2.4437331594761904
5.711488778,0.977473391264762,0.47299076208142843,2.049727158966667,2.561532857904762
5.716411001,0.9475061527599999,0.5708008559052379,2.1529264904761907,2.6880258849999996
5.721333384,0.890331199337143,0.6777947610242856,2.240284965190476,2.8092872956666666
5.726255616,0.8118524351371429,0.7873435241719046,2.2974019164761907,2.908757474
5.731178004,0.7313669109514286,0.8898480500528569,2.3189917746666664,2.9718764063809524
5.736100237,0.6642800042704762,0.9801573350576189,2.3022520656666665,2.990600969571428
5.741022619,0.6043360047085715,1.055878762157619,2.260728347952381,2.9766027265714285
5.745944876,0.5512776231180953,1.1132649539814286,2.205392724095238,2.936468244285714
5.750867336,0.49850176612285724,1.157922857392857,2.1354659626666668,2.874957143952381
5.755789722,0.44488343152,1.196458332590476,2.0691532976190476,2.8112441576666667
5.760711924,0.3968514329676191,1.2194056198666665,2.0110146262380955,2.7480510193809526
5.765634307,0.3613932882866667,1.224481145533333,1.9585957726619045,2.688785279809524
5.770556453,0.33122042938190477,1.1976869559787142,1.9033726795047616,2.6300798507619048
5.775478682,0.30096471433428573,1.1258031952310952,1.844178871804762,2.586590751666667
5.780401057,0.2721364737628572,0.9852384753977617,1.785729014509524,2.587212971857143
5.78532329,0.24836789547714289,0.7644145204263333,1.7276736789523808,2.6491443214761907
5.790245672,0.2453905582866667,0.4757558560929998,1.6787059655333334,2.775101396666667
5.795167924,0.2781415167628572,0.13580161609299982,1.665333918914286,2.9571099132380954
5.800090307,0.367618709572381,-0.24253300833557162,1.6727968631999999,3.193107093857143
5.80501254,0.53772799862,-0.6445947772403335,1.6652236219142857,3.4629618665714283
5.809934903,0.8115781375019049,-1.0481778156212858,1.6035839042476188,3.743778253
5.814857365,1.17416243324,-1.4471288749070002,1.455069614290476,4.037432263904762
5.819779598,1.6104186035161905,-1.8306169225736668,1.1885084694333332,4.368078597428571
5.824701965,2.089335078278095,-2.189761871335572,0.8277653781952381,4.725612390238095
5.829624198,2.5541491565161905,-2.495972150811762,0.41686884986190476,5.072828379761905
5.834546338,2.970136438087619,-2.7308224382879525,0.012821655909523819,5.389811621285714
5.83946872,3.299977450135238,-2.887752010716524,-0.33780191766190476,5.6459047056190474
5.844390953,3.5417159369876194,-2.9743401521927146,-0.6378169130428571,5.8350510202857135
5.849313336,3.7096789408161905,-2.992700440559381,-0.9041010041857144,5.985408808809524
5.854235569,3.833650896925714,-2.955181294964143,-1.137870000947619,6.122764594809523
5.859157984,3.9388195631,-2.8818732415022383,-1.3399678142333333,6.249676950095239
5.864080217,4.032687993271429,-2.7864164852022384,-1.4903786253761904,6.375028134
5.8690026,4.124795947761905,-2.6823391999450954,-1.5915349594666668,6.508589538380953
5.873924847,4.223378953476191,-2.558207199614286,-1.6584971505000001,6.653628553190477
5.878847307,4.329843623285715,-2.400725960652381,-1.7070068639380953,6.788243743190476
5.883769694,4.442791524380953,-2.194083480509524,-1.7582007214142858,6.878510153809525
5.888691914,4.556569474095238,-1.9339045228428575,-1.8257447190476193,6.904054580619047
5.893614297,4.646876619,-1.6342246190809526,-1.9256811475809523,6.853691021285714
5.898536424,4.70339414052381,-1.3127540434,-2.0790250521523808,6.734244448857143
5.903458653,4.708925326666667,-0.9776656130047621,-2.2482803825809525,6.542783721666666
5.908381042,4.6633662269047615,-0.6395660826142859,-2.3937084270523807,6.305483098285714
5.913303275,4.563239801476191,-0.31249532914857164,-2.476784857252381,6.045609555380952
5.918225658,4.399885313809524,-0.0009175559871430966,-2.452780715057143,5.756973796666666
5.923147906,4.170455716857143,0.2986961122515236,-2.2976915211857145,5.417532171047619
5.928070288,3.9026843365714283,0.5732552034943806,-2.030976335185714,5.038443334095239
5.932992521,3.6479104472857142,0.8003422442515236,-1.6944697584238095,4.666618240857143
5.93791498,3.427817265142857,0.9693102902705714,-1.3486106111857143,4.334526473095238
5.942837367,3.2675946326190477,1.0792157687562856,-1.0437047992809525,4.078035207238095
5.947759598,3.181622811714286,1.1261409587086664,-0.7974611379380954,3.901902222190476
5.952681967,3.152383089047619,1.1144975319515236,-0.5968501390857144,3.777715219857143
5.957604199,3.155016138428571,1.0468482923515237,-0.4301831901666668,3.6760938200952378
5.962526606,3.167659804904762,0.9428441923943807,-0.2931229499961905,3.5862415680476194
5.967448839,3.1763314746190474,0.8218421015610473,-0.1882522339533334,3.510023916904762
5.972370988,3.165325618857143,0.7021686245086665,-0.10496809147238101,3.4369283079999997
5.97729337,3.128450473095238,0.5901548615943808,-0.027372519796190528,3.3545757935714287
5.982215832,3.0658855210952383,0.49177771753723787,0.0469900505323809,3.258132589952381
5.98713807,2.973069338523809,0.4138144788419998,0.1238810016419047,3.1420865009523813
5.992060223,2.844420103761905,0.35918028526580936,0.21507414117523807,3.0017168754761903
5.996982596,2.7069524356190477,0.3292594262610474,0.3180909491038095,2.8568317287619047
6.001904829,2.565921431495238,0.32316890161342837,0.42803827858476184,2.7147089392857144
6.006827288,2.4298851007380953,0.33866904549438076,0.52221818418,2.588570124238095
6.011749678,2.2907479121523813,0.369438093132476,0.5881710415133332,2.4692928284761906
6.016671911,2.147074055095238,0.40984314163342833,0.6296507099609523,2.3527614938095236
6.021594293,1.9998035317380953,0.45767128341009505,0.6397179018228571,2.2374139834285716
6.026516223,1.8500076248523807,0.5046692370047617,0.6267213304180953,2.124247307142857
6.031438606,1.7038433885285715,0.5455346164285713,0.5981405229133333,2.016979529952381
6.036361106,1.5575890590857142,0.5798770444809522,0.5635271888990476,1.919749092095238
6.041283338,1.4048219600095238,0.6103964235095235,0.5290821883561905,1.8371247022380952
6.046205721,1.2493380585095237,0.6363598974047617,0.4976939481704762,1.7748004356190474
6.051127959,1.0794603931285713,0.6653649934523808,0.47531461617047616,1.7266502073809522
6.056050341,0.8997360631285714,0.6956433270523807,0.45786199726571425,1.689239275666667
6.060972574,0.7136071062238095,0.7306568494619045,0.4364062355133333,1.661665887095238
6.065895024,0.5224438672238095,0.7664536116857141,0.4004638077857143,1.6425719564285712
6.07081718,0.3262418616047619,0.8021570394190475,0.3444195705428571,1.6303391743809523
6.075739639,0.12400828598571428,0.8322249437809522,0.2678149970619047,1.6234867755714286
6.080661991,-0.08081381153809526,0.8541853243095238,0.17744161719523807,1.6191062672380951
6.085584147,-0.2786713390619048,0.8642928486476189,0.08379395267142854,1.6184293565238095
6.090506301,-0.4583612459190476,0.8611768980523807,-0.0058493781428571685,1.6306193396190476
6.095428529,-0.6090922474904762,0.8444701376142855,-0.09090927920000003,1.6590574712380952
6.100350991,-0.7459335333,0.8218233279952378,-0.169671895652381,1.689703787142857
6.10527339,-0.8705926287952381,0.790862519085714,-0.24924803601428577,1.719471701952381
6.110195545,-0.9819305318,0.7495530900190474,-0.3309338941333334,1.743856245142857
6.115117776,-1.0749587706428572,0.6960782323238093,-0.4109557012809524,1.7626646725714283
6.120040236,-1.1372355796285714,0.625885566042857,-0.49252908257619055,1.7750579552857142
6.124962392,-1.1689271989571428,0.5401444718619046,-0.5693297979142857,1.7862352378571429
6.129884774,-1.1726528653285715,0.44574327976190453,-0.6424585606142857,1.7984915254285712
6.134807241,-1.1547269607095239,0.3505022809333332,-0.7096553214714285,1.8103609344761904
6.139729474,-1.1121764848857143,0.25720328089047595,-0.7705067506619047,1.8193288146666664
6.144651856,-1.0421443906666668,0.17302957032380933,-0.8202600830857143,1.8200775603333332
6.149574098,-0.9513163437380951,0.10841033355714268,-0.8521860352333335,1.8080482364285713
6.154496481,-0.8416864856428571,0.058614571876190284,-0.8614248445809525,1.7904882415238095
6.159418646,-0.7192140064047619,0.027583760857142668,-0.8468887973142858,1.7722446320952383
6.164341106,-0.5941098629285714,0.013927905328571239,-0.8107717970761905,1.7503273305714284
6.169263358,-0.4688101480714287,0.013528522985714095,-0.758983130657143,1.7234591247142856
6.17418574,-0.33803633697619045,0.02031571522857124,-0.6978417986666667,1.6922787892380948
6.179107896,-0.19814357721428572,0.03287928725238077,-0.6293537486095239,1.6564001556666663
6.184030135,-0.046302192166666686,0.048891433590476006,-0.5601579870190476,1.621600420857143
6.188952597,0.11557147769047618,0.06535414849047601,-0.4934925128476191,1.5930627384285714
6.193874981,0.2880751931190476,0.08189214831428553,-0.4299110851857143,1.5737582616666665
6.198797204,0.4694327187380952,0.09984624380476172,-0.37431513520380955,1.5667582317619047
6.203719587,0.657109954547619,0.11589443465238078,-0.33151123318000003,1.575036156761905
6.208641819,0.8466559605952382,0.13356081497142838,-0.30439090125619056,1.5956870108571428
6.213564216,1.0300087659285713,0.15467067199047602,-0.28885413882761907,1.6278026301428572
6.218486449,1.1990253428809523,0.17946486311428553,-0.28108528359428575,1.6690775089523808
6.223408812,1.3396689594,0.21375838572904743,-0.2772583815942858,1.717834718285714
6.228330968,1.4500183903238093,0.2560364809229998,-0.2780290469752381,1.764853477238095
6.233253197,1.5331587252476189,0.30531481470823796,-0.279039376932381,1.8024593157142856
6.238175582,1.5942067277142857,0.3561110527915713,-0.2765815198038095,1.829581038952381
6.243098043,1.6345813955714286,0.4067389102391903,-0.26675180561809525,1.8454088100952382
6.248020271,1.6610357761428571,0.45208938521061887,-0.2484358063371429,1.8587528702380953
6.252942654,1.6777098235714287,0.48051171886299976,-0.22802342584190483,1.875125104952381
6.257864886,1.6854245832857142,0.501100384353476,-0.2061761873419048,1.8894820583809524
6.262787284,1.685172625952381,0.5101966718963331,-0.1879905668371429,1.8967677163809524
6.267709517,1.6896951482380953,0.5062672442010951,-0.17643332981333337,1.9017714901428573
6.272631899,1.6870113866428569,0.4933346257439522,-0.17123085476571434,1.8935161403333332
6.277554132,1.6620881954571431,0.4715190050391903,-0.17084432999904767,1.8621355742285712
6.282476515,1.6216441974523812,0.44283090919633317,-0.17340371087047624,1.8150877656571427
6.287398757,1.5717966712190479,0.4095742876296665,-0.17360971090857147,1.7577218982428573
6.29232091,1.511463859204762,0.3765578585677617,-0.16915833030857147,1.6927600261
6.29724337,1.4402510480952382,0.3465796201677617,-0.15671847408952386,1.6252244721095241
6.30216576,1.3599806683142857,0.3214669529106189,-0.12446952152857146,1.5657081765666667
6.307087992,1.2773970053190475,0.30426838071061885,-0.06571871188571433,1.516743843995238
6.312010146,1.2006502861142858,0.2986877624439522,0.013922286833333292,1.4728916379952381
6.316932539,1.1247640507571428,0.30048285779157125,0.11062718992857137,1.4304135236619047
6.321855,1.0558997137190478,0.3095052866677617,0.22705918969523803,1.3997141314714285
6.326777233,0.9960109534809524,0.3264075728720474,0.36079247926666663,1.3816431173285715
6.331699606,0.9441429972904761,0.35037966852571406,0.5099971024095238,1.3801576382333332
6.336621839,0.9070862332904761,0.37524581167857124,0.6629232408857143,1.3968768308047619
6.341543993,0.8779614227190476,0.40137785991904745,0.8059820064047619,1.4249316361380953
6.34646637,0.8451246108476191,0.4262883368666665,0.9079781046619047,1.4379775396142858
6.351388603,0.8070350402952381,0.4467065266857141,0.9505057717761906,1.422771375185714
6.3563109,0.7653128987142856,0.46369376388095224,0.9681775335428572,1.4010293401857143
6.361233132,0.741006851204762,0.47234305065238075,1.0206771017142855,1.4166749732809523
6.366155515,0.7444789977285714,0.47546795471904746,1.0938860525190477,1.4661417837571429
6.371077757,0.7522690920619047,0.470726669190476,1.1681105784714285,1.517172014709524
6.376000139,0.7696699046095238,0.4602694316285712,1.2484998695142855,1.5789885697571429
6.380922362,0.8062829517476191,0.45293243193809507,1.333691349242857,1.6583284554333333
6.385844822,0.8514327591809524,0.4479656222999998,1.4088737303904761,1.7351161342428572
6.390767208,0.8975828559857144,0.4429697653333332,1.4675333045047618,1.8025386831809525
6.395689415,0.9448331409999999,0.43987981229523787,1.5135417792571428,1.864753729657143
6.400611798,0.9976039003952382,0.43420690723333316,1.5549886367571428,1.928660175980952
6.405533954,1.0562487102714286,0.42881143092714274,1.5927142528333333,1.9922336515238095
6.410456203,1.1149419006952381,0.4240786690854284,1.6343818221190474,2.0587361486666667
6.415378587,1.1699736600904762,0.41642633563590464,1.6933942067857144,2.1377244375238096
6.420300781,1.2251803250666666,0.4080527643416188,1.7708602518809522,2.231688682238095
6.425223163,1.2719895130095238,0.40047419270352363,1.8522728681190477,2.3244654985238093
6.430145396,1.3064928480571427,0.39269228691780933,1.9310225815952378,2.4086486458571432
6.435067813,1.3377231842,0.3851679526701903,1.9963379076428571,2.479204996047619
6.439990046,1.3423739473428573,0.38088480972733313,2.0507485242142858,2.529196538
6.444912428,1.3284996606380952,0.37686147633685696,2.10012504597619,2.5683580215714286
6.449834689,1.3171598996761904,0.36985823711304744,2.169708802547619,2.6258449506190478
6.454757149,1.3057041849761906,0.36622090340352365,2.2748149462619045,2.7100542944285713
6.459679507,1.299698327304762,0.36624709538447603,2.3857174202857143,2.7991846675238095
6.464601738,1.2724333760619047,0.3698318577987617,2.4413020383333333,2.8428896867619047
6.469523858,1.2181143753904762,0.3748436661035236,2.4706224146190476,2.8547797226190474
6.47444624,1.1524240904490477,0.38160347427971414,2.4984725997619046,2.863589001761905
6.479368458,1.0815526124014287,0.39213352317495215,2.5262535526666667,2.8755602374761904
6.484290841,1.0010325657776191,0.40170514357495224,2.5616731643809523,2.896995083142857
6.489212997,0.9092773288680953,0.4124958095178094,2.6195183594761904,2.942528996761905
6.494135461,0.8069792309395237,0.4231451897511427,2.702187980904762,3.0116657593333334
6.499057617,0.6943878507966668,0.4332036183130475,2.803611312571429,3.098574827523809
6.503979848,0.570161712082381,0.4458632379178094,2.904469365142857,3.1843207292857145
6.508902317,0.43285937584428574,0.4559920475001903,2.982991649952381,3.248959384047619
6.513824702,0.2857187593680952,0.4640434763990474,3.032801173904762,3.285069372761905
6.518746935,0.12867309413,0.46830428569142835,3.0463523636666667,3.286133614761905
6.523669318,-0.03150666848904762,0.47526928569523785,3.0249648888095235,3.255631053047619
6.52859155,-0.18736542925095237,0.4792354284285713,2.9791446526190475,3.2048039253809524
6.533513704,-0.3286922370604762,0.473596714790476,2.916957934619048,3.13883608947619
6.538436164,-0.46360371182238097,0.46088109626571416,2.854634035142857,3.0705708931428575
6.543358548,-0.5716040470795238,0.4397413341247618,2.7977550823809527,3.0110063505238096
6.548280713,-0.6523351892128572,0.41796642870190454,2.7398085139523807,2.9524037474761906
6.553202944,-0.711123332665238,0.39445938178857126,2.6938808077142857,2.9034650016666665
6.558125414,-0.7480370937366667,0.3639078590399998,2.6469509487619045,2.8517315697142855
6.563047875,-0.7673667125785715,0.3278405246824284,2.6082228535238094,2.8065291092857145
6.567970031,-0.7638544279928571,0.2917659051176665,2.574242762095238,2.7678267247619046
6.572892491,-0.7377197617642857,0.2564013344000474,2.5407706214285715,2.7346616357142857
6.577814723,-0.6874870956323809,0.2242810489352855,2.5005073887142855,2.7039307739047618
6.582737106,-0.613164667632381,0.18437014280671413,2.4581334306190477,2.6799807055238096
6.587659315,-0.5099882881514286,0.14489561789242839,2.4110403854761904,2.6613756542380953
6.592581697,-0.38173876214666674,0.10793100057814267,2.350789092761905,2.637133251
6.597503944,-0.23403047955142858,0.07851304867338076,2.2901221853333333,2.615086369857143
6.602426098,-0.06943400140857145,0.05585085821719028,2.2229678573333334,2.589352695333333
6.607348548,0.10807651559142856,0.03572447677338076,2.1543982312380954,2.5650324548095234
6.612270932,0.2939174742580952,0.022451429046714096,2.090280090047619,2.546554463619048
6.617193204,0.48755071273428574,0.012459714405285524,2.0341106653333334,2.5407339704761904
6.622115587,0.6870249055438096,0.005466524154333144,1.984502423380952,2.5464052322857142
6.627037819,0.8893191927819049,-0.0005390472028097136,1.9441990909047622,2.5641362049523813
6.631960173,1.0829331477342858,-0.005075714240904951,1.9083405676190477,2.582064814952381
6.636882406,1.2647265252580953,0.000636904897190288,1.8655919517619048,2.600771059904762
6.641804788,1.437301192972381,0.009514713745761716,1.8120295206428574,2.614389876
6.646727235,1.6060706263723812,0.022897999996237907,1.7349824791523807,2.627398383952381
6.651649391,1.7677897669247618,0.027305857495285527,1.6484733315809526,2.6489307263809527
6.656571622,1.9118045767342855,0.013359047913380764,1.5648420403238095,2.665849619190476
6.661494004,2.0313308153914287,-0.005406047042809712,1.4823978500380952,2.6818740905238094
6.66641616,2.1144576753904762,-0.01683418994238114,1.3731768528476191,2.675041819809524
6.67133838,2.155536577795238,-0.0233839041642859,1.251577805885714,2.647781147809524
6.676260841,2.1462699117952377,-0.031644475694285905,1.1053806174571428,2.607639940809524
6.68118325,2.080834103480952,-0.05199423707714305,0.9196614679809524,2.6072235221904765
6.686105406,1.9655517212428573,-0.082284427029524,0.7185680384095238,2.624945696142857
6.691027865,1.8187034854333333,-0.13541119007238114,0.5075895587904762,2.6527460132857144
6.695950006,1.660896629147619,-0.22003380945809545,0.28691003721904756,2.7054434553809523
6.700872237,1.5013171591,-0.33599085953904784,0.04932769993333327,2.769672708238095
6.705794697,1.3387752530523809,-0.47565742891619067,-0.1992369180666667,2.8463261692857142
6.710717072,1.1752218306238096,-0.623613568529524,-0.4588833451619048,2.928535615190476
6.715639305,1.0194994452571429,-0.7763787608219049,-0.710629199304762,3.0091450005238096
6.720561688,0.8664948727571429,-0.9304570961185716,-0.9936415724000001,3.1064585599523813
6.725483844,0.725823586195238,-1.084474623934286,-1.3688924341619046,3.2828591709999997
6.730406068,0.5950832530133333,-1.2239322850533336,-1.785823768161905,3.488845470238095
6.735328452,0.4858671078942857,-1.3445096700628574,-2.0888845779238094,3.5959236502857146
6.740250665,0.40704349035619053,-1.4434243855676192,-2.223804862780953,3.582348751761905
6.745173047,0.3653442511657143,-1.5186867192485718,-2.2692645778080953,3.5534109770952376
6.75009528,0.3499235304514286,-1.588174481134286,-2.3009619596271427,3.5480216722380957
6.755017653,0.35946934488000004,-1.646245052791429,-2.347672911322381,3.570655075285715
6.759939886,0.39010463368952386,-1.689824292710476,-2.449915242017619,3.6305737743809523
6.764862263,0.4454380664038095,-1.7403878622819051,-2.63476214349381,3.7694672167142858
6.769784725,0.5168385384990477,-1.8043319110866667,-2.819303097874762,3.945996956142857
6.774706957,0.5979091149276191,-1.8720219124380952,-2.9802097731985717,4.127363950666667
6.779629355,0.6991558806085715,-1.934463865657143,-3.085521535912857,4.282020610571428
6.784551588,0.8346462654466668,-1.9768106255666669,-3.057444194627143,4.333924682095238
6.789473756,1.0064227474466665,-1.9923371019523812,-2.9085988115509522,4.344288337809523
6.794396138,1.1906867942561905,-1.9816789115714286,-2.6644259545985713,4.373533739238095
6.799318385,1.3639606074466666,-1.9449436720952382,-2.298334612360476,4.45464096004762
6.804240768,1.5150540790657143,-1.8693426222761904,-1.8662305697414285,4.5570463746190475
6.809162987,1.6447493185895237,-1.7519585773761905,-1.419374229931905,4.63818180947619
6.814085369,1.751170411732381,-1.600740580540048,-0.9625615643604762,4.702864216047619
6.819007602,1.838784885575238,-1.415455483440048,-0.5166470915033333,4.762494744714285
6.823929985,1.9085845046371428,-1.1888118132495715,-0.06102796069380954,4.784959153095238
6.828852217,1.9649627436038097,-0.9249567646781429,0.46056181806809515,4.711570709476191
6.833774672,2.0155986008333335,-0.6509592421543335,1.0008390947823809,4.601668283285714
6.838697059,2.0553886464761906,-0.3749202435352859,1.4158747626395238,4.601112315476191
6.843619289,2.0698947878238094,-0.11067700977338116,1.6665047099252381,4.7338054208095235
6.848541667,2.0559817864904764,0.13843680541709502,1.836590851404762,4.895781708619047
