Time (s),Linear Acceleration x (m/s^2),Linear Acceleration y (m/s^2),Linear Acceleration z (m/s^2),Absolute acceleration (m/s^2)
0.121744947,0.8553843299190476,0.8402197587904762,1.4614311956304762,2.3141633321428574
0.126667179,0.892860804247619,0.9803358053809523,1.4189955296923809,2.3901829752857147
0.131589543,0.9339270449571428,1.129139518447619,1.357395006344762,2.4715126614285716
0.136511776,0.9770439522380953,1.2884893708,1.2783386724019048,2.561501134952381
0.141434158,1.0243892357095237,1.4551764641047618,1.1828433866542856,2.6599531199047624
0.146356266,1.0901404221333333,1.6215169876476192,1.0671680053876191,2.768878888
0.151278495,1.1846952749857143,1.771471229285714,0.9592752905780954,2.880554584047619
0.156200847,1.2932862724095238,1.895848368542857,0.8911306242685714,2.983713752047619
0.161123079,1.4101033692619047,1.9930299860380951,0.8724696247923811,3.0879621839047617
0.166045462,1.531500657352381,2.060519084247619,0.8887319062685715,3.19752167447619
0.170967631,1.6671472815857142,2.101651133457143,0.9176527610780951,3.317408824380952
0.175890091,1.829144858152381,2.1114958474333334,0.9564639565066665,3.459996362047619
0.180812246,2.0311360387190476,2.091090943061905,0.9962065284590474,3.637525779095238
0.185734454,2.2616952373333334,2.0462637535904764,1.0266815772209523,3.8389354982380954
0.190656914,2.5022137703761906,1.9864623248000002,1.039583666744762,4.0453903429523805
0.195579298,2.751412011276191,1.9117663253904762,1.0271447620780951,4.25565363347619
0.200501531,3.001210249557143,1.8116174226476192,0.9897431426495238,4.468099325238096
0.205423914,3.2678926728380953,1.5575978102666665,1.0337930002780953,4.645552328523809
0.210346054,3.5421419171285713,1.2617862366,1.0295120480714286,4.840000669047619
0.215268283,3.8201281115238093,0.9237425696,0.990417619847619,5.049663128523809
0.220190667,4.0870214983809525,0.5550609003619048,0.9021331926380953,5.275223323571429
0.225112891,4.35193287752381,0.16824980288571428,0.7781993834952381,5.522247639
0.230035273,4.616935746952381,-0.228865870447619,0.6506839511000001,5.782288260809524
0.234957506,4.882413500761905,-0.6284126299238094,0.5513782334,6.035041068809524
0.239879908,5.154732965238095,-1.0149084925904763,0.48902895081904757,6.270679023809524
0.244802141,5.427578914714285,-1.3716332089238095,0.461536285,6.481872226238096
0.249724537,5.633805910761905,-1.7045381608285715,0.48738876120333335,6.627395974761906
0.25464677,5.769681919238095,-2.020581072257143,0.5581820010604762,6.737452298285715
0.259569153,5.868819974761904,-2.2956362082571427,0.6231899530366667,6.836738503428571
0.264491294,5.933948937,-2.5158182978285715,0.6601357615128571,6.908195507142857
0.269413523,5.968318507857142,-2.672844730638095,0.6925179091795238,6.954741198238096
0.274335674,5.955483220952381,-2.777075730590476,0.7389353839414285,6.975548259238095
0.279258134,5.8794957456666666,-2.8324638264238096,0.7985500423223809,6.964460174809524
0.284180537,5.7344516573333335,-2.850192302719048,0.862585855322381,6.907190489142858
0.28910277,5.547833885571428,-2.8435372085523807,0.9284642352271428,6.813836454571428
0.294025153,5.33890963747619,-2.8278667784714284,0.9984127154652381,6.699412819571429
0.298947319,5.102138967857142,-2.8049339680428567,1.0745041922747618,6.558828499904761
0.303869547,4.839057874228571,-2.7686808733761903,1.150813237417619,6.391102831380953
0.308791932,4.5478620702552375,-2.7184857810904766,1.2231948076271428,6.195886241809523
0.313714179,4.202554064459999,-2.6503949732333334,1.2884665701319047,5.967633091904762
0.318636561,3.8096821566980954,-2.5605678784714287,1.350416283022381,5.728796082904762
0.323558794,3.3775641949838096,-2.4444968813285715,1.4191943309795239,5.485769674476191
0.328481158,2.9076884278409523,-2.3067601634714285,1.4935419474828573,5.2373436153809525
0.333403391,2.4038417030314285,-2.152535586090476,1.5527046167352383,4.99421143652381
0.338325529,1.861815569269524,-1.9959247792809525,1.5681763816876189,4.785737522619048
0.343247912,1.2662845824600002,-1.8522858164714286,1.5084954316399999,4.640457384857143
0.348170141,0.6013910687933335,-1.7314320007095236,1.3427396602066668,4.605222829190477
0.353092523,-0.0337430605399999,-1.6269418568047616,1.0419652899366665,4.701297980619048
0.35801476,-0.6035776788733332,-1.5211462803285716,0.6254928095080952,4.8595869080476195
0.362937143,-1.1126726437780952,-1.4362997610428572,0.18546771836523804,5.006544710380952
0.367859376,-1.6221072756828572,-1.380423381138095,-0.23525318811095244,5.165568335904761
0.372781535,-2.1577075519209523,-1.3774090436619046,-0.6338470453014287,5.350168454095238
0.377703994,-2.651559701825714,-1.4316863274714284,-0.9974958572538096,5.516067949238095
0.382626379,-3.10124336801619,-1.5355202327380955,-1.3297087141109525,5.671175808190476
0.387548625,-3.491956707778095,-1.6778245169571429,-1.6235589997776192,5.8110570550952385
0.392471008,-3.7927615612066665,-1.849261905347619,-1.8824450021109522,5.913044802857143
0.397393241,-4.004365134587619,-2.044956471095238,-2.1146837148728572,6.003608486904762
0.402315391,-4.1346858028257145,-2.2594586041904763,-2.319445333491905,6.113881340142858
0.407237773,-4.182475946997143,-2.477393558952381,-2.500548807110952,6.254186116523809
0.412160006,-4.15379042282381,-2.678196362,-2.652764327634762,6.413849617238095
0.417082389,-4.060023520647619,-2.8356579314285715,-2.765079187634762,6.555511871
0.422004545,-3.9310335686952387,-2.9330777837619046,-2.842004567525238,6.632645116047619
0.426927004,-3.792081185709524,-2.964527022190476,-2.8860346165442854,6.621509897761905
0.43184916,-3.6406571807857144,-2.9387939316190477,-2.8959313786809524,6.530013390714285
0.436771391,-3.492521417966666,-2.8780807397809522,-2.8586801886190476,6.380821084533333
0.441693744,-3.337629421814286,-2.785479595204762,-2.763080046252381,6.2143289492
0.446616206,-3.149144758766667,-2.672086118190476,-2.5896447158714286,6.024658121866667
0.451538439,-2.910769571814286,-2.552609408142857,-2.3168788013,5.766851687057143
0.456460802,-2.6634262416238093,-2.4195780285238095,-1.9286926190142857,5.457889858771428
0.461383035,-2.433191771957143,-2.2727671733333334,-1.4664816118238098,5.132261365914286
0.466305189,-2.233688333147619,-2.110475794095238,-1.009476474347619,4.84383243115238
0.471227572,-1.9949727129095236,-1.9454287502380954,-0.6016208557761905,4.561002272104762
0.476149804,-1.707982723147619,-1.758888419095238,-0.2574784755380953,4.268450638819048
0.481072206,-1.4347728617666666,-1.5460904708095238,0.008895913747619031,4.000059099533333
0.485994362,-1.1713482949571428,-1.3070207592380954,0.21149496236666665,3.744090715152381
0.490916591,-0.9404391404333333,-1.0435429967142857,0.36111762410952375,3.50698401267619
0.495838989,-0.7975879978142858,-0.7539251800952381,0.4718285316571429,3.3202101982000003
0.500761222,-0.737189805195238,-0.43340357000000007,0.5473078645380952,3.1605028868666665
0.505683605,-0.7431964206714285,-0.08752544004761909,0.5810636721666667,3.0065441450571426
0.510606076,-0.8162046116809524,0.2700150368571428,0.5948299098523809,2.8571533817238093
0.515528309,-0.9393735655,0.6134619841428571,0.5981974814714286,2.7104030731523814
0.520450463,-1.0875177084523808,0.9240526032857143,0.5911048636619048,2.5888381286761906
0.525372831,-1.2144653271190475,1.1749282693333334,0.5706466734714286,2.4998241946761905
0.530295063,-1.3117921365809524,1.3544133179047617,0.5386567669619048,2.4665965148190474
0.535217446,-1.3819652809333334,1.4785957465714286,0.502675719242857,2.4760544036761907
0.540139612,-1.407782424,1.568661983685714,0.45471010183333327,2.5117867738571427
0.545061841,-1.387936232990476,1.6225771281095238,0.3886635772190476,2.5256095425238096
0.549984225,-1.3558741849761904,1.6582577968095236,0.3095586697666666,2.5163781471904763
0.554906701,-1.3184924252809522,1.687540798095238,0.2308549065428571,2.495123874
0.559828857,-1.2761275696904761,1.7106597481428574,0.14566090406380952,2.4637763049999997
0.564751087,-1.2410323775523808,1.7390243667619045,0.045003566206666665,2.4397885495714284
0.569673509,-1.2289052846476192,1.760042803714286,-0.062169147183809524,2.4167477498571426
0.574595742,-1.257296617457143,1.7895270416666667,-0.15785366844333334,2.423592774238095
0.579518124,-1.2908804288380953,1.8265502794285713,-0.24999366822904762,2.4474977341904762
0.584440352,-1.3153654776476191,1.8754530861904761,-0.34294866996714285,2.4875225906190477
0.589362735,-1.3337361911714285,1.9249844210952378,-0.4495461445861905,2.5342101936190473
0.594284872,-1.3444821933619049,1.9713128919047618,-0.5646807130433333,2.584348015952381
0.599207331,-1.3322629573142857,2.001047134428571,-0.6892233779719048,2.6242654693809526
0.604129487,-1.2985671459952381,2.006281421333333,-0.8025444282814285,2.649280948714286
0.609051947,-1.2360781955761904,1.9824456147142855,-0.8728253775766666,2.6393296163333337
0.613974107,-1.1574736719619048,1.9197717579,-0.8498997580100001,2.538753790219048
0.61889626,-1.0696010042904764,1.8289082802666665,-0.7014937576766668,2.504362218980952
0.623818489,-0.9746447638252381,1.7018545653142856,-0.3744349031528571,2.6461028741238093
0.628740894,-0.8749120029585714,1.5658892350285716,-0.0028838550100000284,2.8469043722666667
0.633663127,-0.7485903352442856,1.4395272858857144,0.3000099027995238,3.0018862229333334
0.638585586,-0.595399949482381,1.3310329019333333,0.5117242386280952,3.1157515573142858
0.643507976,-0.43634285452047616,1.2461497144285714,0.6568770941042856,3.2062619005523807
0.648430209,-0.2643785681585714,1.1856142843285713,0.7695817628280953,3.3102502712666664
0.653352591,-0.07038604422047619,1.143132376547619,0.8571774314233332,3.422388078314286
0.658274747,0.14544490913190475,1.1113242329761905,0.9293227195995238,3.5361702523142857
0.663196976,0.37301067168428564,1.080845999595238,0.9929501948404762,3.645899182314286
0.66811936,0.5880320492128571,1.0401793796428573,1.0680490496500001,3.729829451219048
0.673041516,0.8150596187366665,1.0087154670714287,1.160921814040476,3.813986035838095
0.677963745,1.0743864286414284,0.974284327452381,1.2690079558238094,3.891953112790476
0.68288613,1.3486914827842855,0.9346504743571428,1.399697378847619,3.969913396219048
0.687808363,1.608492155308095,0.8903277679761905,1.5481254301095237,4.035407353266668
0.692730745,1.87093186607,0.8515334321190476,1.710491905490476,4.102430696790476
0.697652978,2.150963967165238,0.8156135728333334,1.8792659483000003,4.183719315790476
0.702575361,2.4220660265938094,0.7870974732619048,2.0440718998714282,4.263858274457142
0.707497593,2.668415406703333,0.7737048545476191,2.192451901252381,4.340883569409524
0.712419942,2.8724713091890477,0.7840535662142857,2.2964856126857143,4.426006526266667
0.717342175,3.063629454860476,0.8304828980285714,2.3053807551333336,4.58298974147619
0.722264557,3.2285204558557146,0.9054991354714285,2.1808309916047617,4.654048794714286
0.727186694,3.3629094121523813,1.0072746596285715,1.877496565309524,4.524925687285714
0.732108923,3.4519928353809526,1.115685704947619,1.5406675160857144,4.328826135380953
0.737031308,3.4895436878095234,1.2134464660380953,1.2781004756238095,4.169799419809524
0.74195354,3.486901873714286,1.2838975156,1.1019853779,4.0662486408095235
0.746875923,3.4660078685238096,1.3144015142442858,0.9941260928071427,3.9994300750476195
0.751798098,3.408157104571429,1.3117678474471428,0.9382362819738094,3.9240574181428576
0.756720327,3.3230444363333334,1.2745781807328571,0.9217373756880953,3.8377838379999996
0.761642788,3.2185473385238095,1.2142193729376192,0.9404842285928572,3.749905375904762
0.766565173,3.109445288047619,1.1409900852319046,0.9815080847357143,3.6683655082380953
0.771487406,3.001693816380952,1.0588909915761906,1.0418857506404762,3.6076254800952383
0.776409788,2.8863701990000004,0.9673545656538094,1.1150430838309524,3.560833082095238
0.781331997,2.7487254851666667,0.8751416111966667,1.192818993640476,3.516200300571429
0.786254151,2.595233670228571,0.7874665123538096,1.270415056307143,3.4711518703333333
0.79117652,2.4610186161761907,0.7049066997109524,1.3631082489261903,3.4503373802857142
0.796098752,2.326837428890476,0.6303068489776191,1.473710877545238,3.4399647974761907
0.80102092,2.172642091842857,0.5738045692014286,1.5949749378785714,3.421198323619048
0.80594338,2.019370081842857,0.5466854719633334,1.7272758881166665,3.4055017696190477
0.810865764,1.8858535601761903,0.5413254249157143,1.867574555545238,3.397816947285714
0.81578791,1.7860649455095239,0.5479298069157144,2.027280742207143,3.408425607761904
0.820710141,1.691180657747619,0.5652580465347619,2.196458649792857,3.417851249
0.825632524,1.5999003223190473,0.595797428582381,2.376338882845238,3.4347573156666664
0.830554985,1.5102436514190476,0.6432851898538094,2.5611666505214283,3.4696085934761904
0.835477218,1.4265055145476189,0.7082896181061905,2.7432449325547617,3.5299043008095237
0.840399601,1.3505284232666666,0.787395853872857,2.9205511730642857,3.6147412172857143
0.845321823,1.269148328442857,0.8795232792157142,3.088941463454762,3.705611688666667
0.850243977,1.1827518102190475,0.9859705653142857,3.2441507918809527,3.79763446147619
0.855166126,1.1138054770809522,1.0956879946876188,3.3728203149523814,3.8906227863809524
0.860088586,1.0678240500476188,1.201397897992381,3.476613743,3.9760984191428577
0.86501077,1.0401072430952378,1.299701947930476,3.540550549857143,4.0410865717619044
0.86993323,1.0065711949523808,1.3962394219219048,3.5783190273333325,4.084317461285714
0.874855615,0.9742823853333332,1.5031671369109523,3.5768467471904763,4.106551526380953
0.879777851,0.9329284330285713,1.6182605616428571,3.532870031571429,4.100684548619047
0.884700234,0.9034217184571428,1.746294136480952,3.4432908864761904,4.077747687285714
0.889622467,0.9137368131333332,1.8896874642761903,3.332975302476191,4.064291995714286
0.894544849,0.9247315256619046,2.036851230061905,3.204320198047619,4.044116833714286
0.899467082,0.951551856042857,2.1938851333190477,3.0663703339523813,4.035351316333333
0.904389236,0.9920929486142857,2.3535086029523806,2.936823941428572,4.045396883714285
0.90931159,1.0345095609000001,2.5117173308095238,2.8320862736190477,4.083189408428571
0.914233823,1.0746707448047619,2.6685146206666666,2.7570570367142855,4.148541751238095
0.919156205,1.0944188365190475,2.8234520412380952,2.7015776578095236,4.222489700285714
0.924078438,1.1064084527571427,2.9750667923809524,2.660519128809524,4.304313658333332
0.929000841,1.1187968353761906,3.119205781380952,2.6343287002857148,4.392247860857143
0.933922996,1.1442945046571427,3.248076058571429,2.607254317857143,4.4728703282857145
0.938845456,1.181716835242857,3.352828099571428,2.573055613619048,4.5328037611904755
0.943767626,1.2363637402380951,3.426976482047619,2.5201530854285714,4.562125628666666
0.948689857,1.3073833102523809,3.465247103095238,2.456640033523809,4.563700006238095
0.95361201,1.3910575991904761,3.4584634814285713,2.392322182714286,4.540166662285714
0.95853446,1.4686024132333333,3.406292478190476,2.3339203256190477,4.5010364957619045
0.963456845,1.5275075066952382,3.3049616704828573,2.281799992,4.457446966809523
0.968379077,1.5792477500285713,3.143421622054286,2.238253951142857,4.438931823
0.973301226,1.6544543192666668,2.8990451045780956,2.188114472857143,4.478344313428572
0.978223609,1.761781607361905,2.5528630647685713,2.130573329571429,4.5976425141904755
0.983145847,1.9156103247619047,2.0838596031019048,2.0313797097238093,4.825799837
0.988068229,2.131381557119048,1.4554358215304763,1.8442872294857142,5.212716609476191
0.9929904,2.3653136946190476,0.6510707998638094,1.5927629513904762,5.746103041476191
0.99791286,2.6103187459047623,-0.3135906052314285,1.3132070516285717,6.417116988190476
1.002835092,2.839604548095238,-1.4403858405171428,0.9970847127714286,7.208334492285714
1.007757246,3.0318100622857145,-2.6772018835647615,0.6235047565333334,8.074766868428572
1.012679706,3.1675472997619045,-3.9844612617076187,0.15232822305714297,8.985468884095237
1.017601862,3.2184917302380955,-5.274540015231429,-0.41123308022857136,9.868390282761904
1.022524316,3.2223956414761905,-6.441150392374285,-1.0341417744190475,10.652022195666667
1.027446701,3.239269358761905,-7.428989909564761,-1.6526765436571427,11.282689478285715
1.032368934,3.204387309995238,-8.206149577755237,-2.2119786125619045,11.709024111047619
1.037291006,3.0929066396666665,-8.789662905755236,-2.7234721364666665,11.984139903333332
1.042213465,2.957634783904762,-9.22259771218381,-3.2251692453238094,12.198447596
1.047135626,2.8175482125238096,-9.528214476993334,-3.7127411773714285,12.396642595666666
1.052057855,2.6892293578,-9.735827473993334,-4.1883319059428565,12.597063386285717
1.056980316,2.581848068590476,-9.853324947926668,-4.650565472038095,12.798314594904763
1.061902472,2.543000781114286,-9.908905707250952,-5.119801857323809,13.023080397714285
1.066824855,2.5823625872571427,-9.905861945352953,-5.560530953133333,13.243936429333333
1.071747088,2.674366250638095,-9.848567089857713,-5.957395662561905,13.434354770761905
1.07666947,2.784415396209524,-9.721414093433904,-6.341812225704762,13.59440748842857
1.081591703,2.881541096780952,-9.487040863843427,-6.628552313038095,13.629673312142856
1.086514163,2.9433051781142856,-9.110219255057714,-6.787655307809523,13.512995431809523
1.091436309,2.931556478161905,-8.565245858962475,-6.777057783619047,13.201058302761904
1.096358769,2.8499428239714284,-7.84278430629581,-6.66781893195238,12.69916216157143
1.101280925,2.720900970542857,-6.942494237295809,-6.4833052197333325,12.030812554190476
1.106203074,2.5638132130666667,-5.870168337676763,-6.196661027780952,11.226712395761904
1.111125533,2.4085047961619046,-4.672847002105333,-5.8119954477333335,10.351578427904762
1.116047712,2.269947850257143,-3.3932334843910477,-5.300148337685714,9.437283462190477
1.120970095,2.153279327914286,-2.1132870663434287,-4.6688916097333335,8.564231785714286
1.125892328,2.0442452756838096,-0.9208577282005715,-3.9774635844,7.818897116857142
1.13081472,1.8716855148266667,0.13841338037085707,-3.3211595315904763,7.258789662714285
1.135736953,1.7225971860219045,1.0243490502756192,-2.7681145084952385,6.934219652285715
1.140659336,1.6215950009219047,1.7460919981803809,-2.281185750352381,6.796151588523809
1.145581554,1.5124883807790475,2.327270958513714,-1.784021739352381,6.747815787380952
1.150504014,1.415286670112381,2.7805892024660954,-1.2645325645428571,6.7191909543333335
1.155426401,1.3467169531695238,3.1216507775613334,-0.7384788861619048,6.658383851047619
1.160348535,1.2755637175695238,3.363608290208953,-0.24914489325714287,6.557321309285713
1.165270689,1.1330149520933332,3.5537401432475235,0.18558163450476192,6.394983964523809
1.170192909,0.9038459579980951,3.7195191404857146,0.5136495885904762,6.216668277238096
1.175115294,0.5917857153790476,3.875879421847619,0.7265415816857144,6.063094368761905
1.180037759,0.22625885756952377,4.030382656661905,0.8649869590190475,5.925698995857143
1.184959915,-0.14900174528761914,4.150278420690476,0.8812823239238095,5.862638967952381
1.189882146,-0.5661020158590477,4.237976800857143,0.8224614632095237,5.878417094238095
1.194804533,-0.9993889779066668,4.30328689304762,0.6919831265428571,5.9628340074285715
1.199726689,-1.4181027973352383,4.333573840952381,0.5341647410190477,6.069598074333333
1.204648918,-1.7977653337638098,4.325251840476191,0.3447323172761904,6.173846960523809
1.209571366,-2.125776664859048,4.271246654714285,0.09127335756190473,6.2449913206190475
1.21449375,-2.4057216183352383,4.169873464714286,-0.19493450005714288,6.256767690238095
1.219415983,-2.610655761192381,4.027606884666667,-0.5187633562,6.215080392523809
1.224338351,-2.7177765674685714,3.8351874067952383,-0.8776264488190477,6.117990212285714
1.229260507,-2.759165851857143,3.5919511204857137,-1.2337054482,5.97407864647619
1.234182731,-2.7294221861142858,3.2922577304761904,-1.5403850603428573,5.778157840857143
1.239105115,-2.649596904009524,2.9603116909952383,-1.6244139146238095,5.4471606354
1.244027339,-2.5378728594333335,2.6216254617714285,-1.7591168184904764,5.102526094257143
1.248949493,-2.3991743354714288,2.3154083135809524,-2.0790560117285715,4.911044804733334
1.253871875,-2.2666349581428573,2.0463734510571427,-2.338561828585714,4.665959411733334
1.258794108,-2.1392140984714287,1.8133357777476191,-2.530200542347619,4.402029095685714
1.263716491,-2.016760672838095,1.6230990276380952,-2.6742777795190475,4.192027413495238
1.268638723,-1.9018574810904763,1.4767928421285714,-2.758998206595238,4.0369155784
1.273561183,-1.7821265288571428,1.3685652712714287,-2.7773278255380953,3.920896141971429
1.27848357,-1.6435020508857143,1.3008453689857145,-2.7212239205,3.8047448079238095
1.2834058,-1.4913640007904763,1.2677149389380953,-2.5817058752619046,3.6667233453523806
1.288327925,-1.3323587193428572,1.2718865034142857,-2.3923376308190476,3.5254167101142855
1.293250308,-1.1146911993142858,1.298838599795238,-2.2000662513428573,3.3766582121142856
1.298172473,-0.8531764845190476,1.339377455747619,-2.0046187695523807,3.218079271304762
1.303094702,-0.5695524826142858,1.3994006499857143,-1.8119925260285714,3.072851635447619
1.308017086,-0.28311199661428577,1.4756177904142858,-1.6233942451666667,2.958696519114286
1.312939319,-0.008926566185714344,1.5767883586523812,-1.4285078069780954,2.884836589638095
1.317861678,0.25582262019523805,1.695272929557143,-1.218963999787619,2.855836100780952
1.32278391,0.5104949544809523,1.8087534067,-0.9659824335495237,2.869764719304762
1.327706293,0.7446521421,1.9104014024761906,-0.6620097692161904,2.92574778992381
1.332628531,0.9756503771952381,1.9856833574047619,-0.32617604940666667,3.0162436496857143
1.337550913,1.2098043688333333,2.0395868335095235,-0.005029197882857119,3.133020271304762
1.342473146,1.4492085646809525,2.064041451295238,0.12985704139809529,3.3622463321904763
1.347395529,1.7010086164380955,2.052128070842857,0.3391810890742858,3.589134928523809
1.352317762,1.9658050976666666,1.9947682632952382,0.727754951312381,3.6633922982857143
1.357239905,2.230062435052381,1.908040837133333,1.0193564275028573,3.813585789238095
1.362162288,2.454626382809524,1.8094285995857144,1.2080108559314287,4.03278087652381
1.367084521,2.661626522033333,1.6897624545999999,1.3482902894838094,4.261514374047619
1.372006903,2.859620955714286,1.5336278378238095,1.455223051607619,4.476526993619048
1.376929136,3.041814754385714,1.3312954547285716,1.5313724301314287,4.667802523380952
1.381851519,3.212737950509524,1.0792033657285713,1.5750347624838095,4.846796477428571
1.386773752,3.3766114768428577,0.7824318847761903,1.5866470961961905,5.0181658549523815
1.391696134,3.534410002680952,0.4601265460619048,1.5791172392914288,5.173357812333334
1.396618367,3.682840568652381,0.1333102143,1.57654019132,5.293444961142858
1.401540516,3.817244995190476,-0.17153839989047617,1.5882096191866668,5.361077884095238
1.406462975,3.938858043571428,-0.4304464502714286,1.5993135714009523,5.385356107333333
1.41138536,4.041473229714286,-0.6685416429380953,1.634498238624762,5.385725952380953
1.416307598,4.145741939523809,-0.9129733088904762,1.7110333805314288,5.400959541619048
1.421229752,4.22002766247619,-1.1416450242761904,1.7771454276742857,5.40066193247619
1.426152134,4.237028473904762,-1.3266058337857143,1.7909933804838094,5.3560022528571425
1.431074372,4.205118803761905,-1.456748972596524,1.7462964307219049,5.2676459420476185
1.435996755,4.1254909946666665,-1.5408353552536664,1.6654990933885716,5.1383946075714295
1.440919007,4.006115714714285,-1.6059557361465235,1.584390619769524,4.989008673761905
1.44584116,3.8544194698095233,-1.6646496872322383,1.5063279037695239,4.828170815
1.45076362,3.6672925608238094,-1.7362887851274764,1.4121920005790476,4.655215567523809
1.455685791,3.4520556997619045,-1.8264029713417618,1.28638889896,4.485342435095238
1.460608173,3.2148018862233334,-1.9475005927989049,1.162324283169524,4.357803430571428
1.465530635,2.9706009856580957,-2.0888248234179523,1.0447014762552382,4.272649500523809
1.470452868,2.711648084881905,-2.2335461043703333,0.9305920897914287,4.216204498619048
1.47537525,2.436151269967619,-2.373921491465571,0.828246851662857,4.2008503720476185
1.480297406,2.1448983730628575,-2.4993454905131904,0.7441281873771428,4.220667212857142
1.485219631,1.824840084062857,-2.605069007798905,0.6515313328914287,4.272661755285714
1.490142015,1.418895520967619,-2.6919770984655718,0.4790193373219049,4.399773857952381
1.49506418,0.9700637470152381,-2.778772383084619,0.23316108811714292,4.593886482714286
1.499986639,0.4888419349200001,-2.8716731361322383,-0.06171162229238086,4.839935124380952
1.504908872,-0.07413867155619049,-2.9570055184179527,-0.35125996190190467,5.141882465238096
1.509831254,-0.663239316270476,-3.033668847894143,-0.5763018722114285,5.434115733095238
1.514753487,-1.2706464206514285,-3.065514462894143,-0.7774182978685713,5.714636325380953
1.51967588,-1.9517184058419046,-3.0378410821703334,-0.978362301487619,5.993414350619048
1.524598036,-2.5807488037942856,-2.9867998913498575,-1.1457896369638094,6.224235649809525
1.529520495,-3.0472039454609523,-2.958687796326048,-1.2616683978019045,6.344084406
1.534442665,-3.3870852293657143,-2.972023986305714,-1.3464301589495238,6.388680599380952
1.539364896,-3.6264771806990477,-3.0220048920961906,-1.4245835378733334,6.389584561476191
1.544287279,-3.767825798127619,-3.094823606679524,-1.5160741560438094,6.365482769142856
1.549209415,-3.8294157968823805,-3.1794574197080956,-1.6174543942723811,6.364732716904761
1.554131875,-3.8277819399014286,-3.262811796279524,-1.708903158262857,6.4111229595238095
1.559054103,-3.7918117501633333,-3.3367162310890475,-1.779297918353333,6.477463983619048
1.563976257,-3.7462194165723806,-3.3807717156604764,-1.837365013062857,6.52091090947619
1.56889841,-3.709061320807143,-3.388250202565238,-1.8795275846961903,6.530623726619048
1.573821116,-3.674946130502381,-3.359504960041429,-1.9021933469942855,6.503795487095237
1.578743272,-3.6195549863166665,-3.2959209048033338,-1.9051222525371427,6.437715744857142
1.583665502,-3.5345759367976193,-3.2006724213271434,-1.8855014905514285,6.330435990619048
1.588587889,-3.4066117953495243,-3.0694171465652382,-1.8233340163466663,6.164875513857143
1.593510122,-3.194080425306667,-2.899961947565238,-1.6515299731714284,5.881041903666667
1.598432504,-2.960699179478095,-2.6918115550890476,-1.3874472958680952,5.49705105395238
1.603354723,-2.7195032680019047,-2.460708946565238,-1.0764052520733334,5.060852508190476
1.608277106,-2.414054514478095,-2.249096849722381,-0.7749906739638094,4.6037857020476185
1.613199329,-2.099375919287619,-2.079274376131429,-0.5367990970109523,4.197462233095238
1.618121482,-1.7747116217638097,-1.9633260439409526,-0.3549074339138095,3.830169510142857
1.62304387,-1.408087629906667,-1.8908944228409523,-0.22768885776428563,3.451776620333333
1.627966103,-1.0923678097161904,-1.840915515942381,-0.15024228437999995,3.1407370581428573
1.632888496,-0.917646523335238,-1.7854430852185716,-0.11216209517999995,2.978703903047619
1.637810651,-0.8508878111923809,-1.7037270373328572,-0.0914856189180952,2.9285788008571427
1.642733111,-0.8603525746209525,-1.5899625611233335,-0.07345728442761901,2.9507779232857145
1.647655262,-0.9370986637161907,-1.4408236109804762,-0.048547474133333296,3.009407893238095
1.652577721,-1.0604778120090477,-1.2591663193614286,-0.015993759476190434,3.042195563285714
1.657499954,-1.206731236051905,-1.04569608179,0.016137764833333377,3.019887445952381
1.662422337,-1.3486790475852382,-0.80409069779,0.04327043066190481,2.9486152528095237
1.66734457,-1.4733916652090475,-0.5369908291233334,0.06033543107047623,2.8498122029523807
1.672266723,-1.5768207584566665,-0.25888001274238104,0.06594133589904766,2.7418951444761905
1.677188886,-1.6560142327471428,0.025352791019523754,0.05118490755619052,2.644682844047619
1.682111269,-1.7187923309709523,0.31390240720999996,0.009969527513333375,2.5771606571904764
1.687033493,-1.7698362820566669,0.594017455305238,-0.04528742390095234,2.535862306
1.691955952,-1.8169721400095238,0.8605881255433332,-0.11452470720095236,2.534184503047619
1.696878108,-1.8656486612904766,1.106788403257619,-0.1930491842809523,2.5809953136190478
1.701800495,-1.9135243750238098,1.336258355400476,-0.2780740421080952,2.6789641016190475
1.706722727,-1.9443768517857147,1.5462508833528572,-0.3768853297123809,2.8096819655238097
1.711645187,-1.9559431387857142,1.7347034024623809,-0.4879307104885714,2.9480242826190475
1.716567348,-1.9634323261666666,1.9046945018714285,-0.6104630959176189,3.088571775952381
1.721489731,-1.9679927513095237,2.0588555506809523,-0.7427077115861904,3.225270107952381
1.726411963,-1.9604177956904763,2.1844210681904763,-0.8748113254976191,3.340729042
1.731334327,-1.9356566979285712,2.2765749750476187,-1.0158506563580953,3.429604169714285
1.73625656,-1.8849972741190475,2.3456177825714284,-1.1584158890057143,3.488841397714286
1.741178942,-1.8181710327857143,2.3895516907142857,-1.288967511024762,3.509046383
1.746101084,-1.7310854111190477,2.409585737095238,-1.3905831329723808,3.4799645688095238
1.751023544,-1.6282576067047618,2.411736074,-1.4463659435342857,3.4117989514285716
1.755945704,-1.5151871251000002,2.3968051218095234,-1.452628944162857,3.3260831324285713
1.760867934,-1.389553463852381,2.3623185016190473,-1.4021440853390477,3.272273878952381
1.765790317,-1.2576299359333334,2.2978640237938093,-1.2545727557914286,3.3211560598095238
1.770712555,-1.1099342242666668,2.1884877380319048,-0.9538340440809524,3.526717421476191
1.775634937,-0.9450038919809526,2.050871926746191,-0.5958034722666666,3.788854617238095
1.78055717,-0.7706365152190477,1.8975845897938093,-0.2540231787333333,4.0191646624285715
1.785479553,-0.5931894119333334,1.7435587796985712,0.04576810055238104,4.171506705285715
1.790401786,-0.409181693509524,1.6011656788461903,0.29764457398095245,4.269179052619047
1.795324168,-0.20532483076666677,1.4707335797461905,0.5075795238380953,4.327820421285715
1.800246387,0.026255551519047512,1.3472865837271428,0.6779747165047619,4.362218194285714
1.805168541,0.2877182683285713,1.221931534450952,0.8278914789333334,4.374533705285715
1.810091,0.5591602218523809,1.094295672308095,0.9801841959809526,4.367294169666666
1.81501316,0.8339258893285714,0.9733415816795237,1.1414707203142858,4.351397347380953
1.819935543,1.116571126233333,0.8562812893461904,1.3174220081714285,4.32095062395238
1.824857776,1.410784409852381,0.7460311001557142,1.5116658138857144,4.287644915380953
1.829780173,1.7097917915666667,0.6573797268699999,1.7130440458857146,4.267451998857143
1.834702329,1.9979365049,0.5975959615842856,1.9156486121714285,4.259952603
1.839624558,2.264222792852381,0.56437115187,2.103860751409524,4.275708130190476
1.844546952,2.501383225757143,0.5634769118699999,2.252513898166667,4.306101960047619
1.849469413,2.696064745328571,0.6013448212509522,2.333233233279048,4.366094551142857
1.854391646,2.8333375971523806,0.6637414384414284,2.364913519299048,4.449916533666667
1.859314015,2.9124387403095233,0.7502023353461903,2.356050424284762,4.548695435714286
1.864236247,2.9788274083476187,0.8644704821557141,2.306815612522857,4.639050603857143
1.86915862,3.0220960264761905,1.007968484552381,2.1781119502085717,4.640215918619047
1.874080776,3.015298264333333,1.1913219114571427,1.927926574065714,4.48963598252381
1.879003,2.953065216495238,1.4053840005047618,1.6640351439704761,4.298724435047619
1.883925384,2.847002694942857,1.6298704310285714,1.4563342783990478,4.14616548852381
1.888847545,2.7280030228761905,1.8394191938857143,1.3187789062561905,4.052927020285715
1.893769774,2.606174016966667,2.018087147928571,1.2488806187800001,4.0015877241428575
1.898692158,2.4432133930704762,2.1570783377904763,1.237705860541905,3.9673811489523807
1.903614391,2.269833008230952,2.269684338809524,1.2740771937800002,3.942005913666667
1.908536774,2.089374387347143,2.359228769895238,1.3323119592085715,3.910894641285714
1.913459235,1.917881958328095,2.4294266785619048,1.3977980100180953,3.874824652428572
1.918381468,1.7418904330566665,2.475801059142857,1.4611292961609526,3.825245587095238
1.923303622,1.5767996720328572,2.5029854433333334,1.5105832472085714,3.7607666630476198
1.928226005,1.4187319574423807,2.512528203714286,1.550690054684762,3.685515938904762
1.933148228,1.2185236177899998,2.496621773285714,1.597251488827619,3.5984296015238093
1.938070611,1.0537277138804761,2.4677225804761904,1.6676700169704763,3.529604939047619
1.942992762,0.9250184260233332,2.4173144867666667,1.7693389254942855,3.484738619095238
1.947914991,0.850840899737619,2.3418111999190474,1.906624586641905,3.480238786619048
1.952837404,0.8336636698804762,2.240793863890476,2.083302159577143,3.509544847142857
1.957759637,0.8441465374042856,2.1227819606761904,2.266333448852381,3.5536618516190477
1.96268202,0.8750952954995237,1.9944785378714283,2.4363129750190478,3.5991975573809523
1.967604267,0.8825877242614284,1.8614497723523808,2.5865947804,3.6238199259523807
1.972526649,0.8771795337376189,1.7357575311238094,2.718941966809524,3.6388875184285716
1.977448882,0.8838989640233331,1.6139795325761905,2.8250851121428573,3.6495842114285715
1.982371265,0.9107327735757141,1.4917742041809523,2.902024689285714,3.6478093100000004
1.987293497,0.9606003936519046,1.3799533474333334,2.9603556906190476,3.6385892090476193
1.99221588,1.0053028703376188,1.293280252338095,3.017803782571429,3.6352560346190472
1.997138031,1.0232226817995236,1.2503710615761903,3.0692820209047618,3.6478826655238095
2.00206026,1.048043348205238,1.2544774469571427,3.1050073079047618,3.6779673348571427
2.006982654,1.0578092059495237,1.291652591433333,3.1233079206666665,3.717748250095238
2.011904887,1.0657788252142857,1.365409059147619,3.1256882009047615,3.775402970047619
2.01682727,1.0683573973619047,1.4618274398619047,3.1187980061428573,3.8455512759047616
2.021749526,1.0844152079761902,1.592630667290476,3.1084769566666663,3.9446299097619053
2.02667168,1.1053517779714284,1.7454016122904763,3.104230676380953,4.068203681666667
2.03159414,1.1171730138999998,1.9181822395761903,3.092176057047619,4.202744514380952
2.036516291,1.1644476793666665,2.113100991290476,3.0670427197619046,4.345400470238095
2.04143875,1.1734767726095239,2.316048142385714,3.0141677175714285,4.471774952571429
2.046361135,1.134989153742857,2.5341142471904763,2.9280104750952383,4.573082803809523
2.051283378,1.0518041054142857,2.765696780942857,2.8145294813809523,4.6474365845714285
2.056205532,0.937365433995238,2.9982760207333334,2.686619525857143,4.69369365752381
2.061127685,0.8292234284666665,3.2293171995666667,2.552241331047619,4.732269625333333
2.066050145,0.7422528607761902,3.445431910752381,2.425614232095238,4.764700101619048
2.07097253,0.6752873361190475,3.6346794706999996,2.3096201419523807,4.78244642952381
2.075894762,0.6365920972142856,3.7806691824999996,2.2150277637142857,4.781454129809523
2.080817145,0.6229493376904761,3.8742683302380954,2.140317281095238,4.758928578142857
2.085739301,0.6356053338333332,3.8968696139666665,2.0835294723333333,4.7218350794761905
2.090661539,0.6796273319761904,3.8271095667142854,2.023971375952381,4.693993333809523
2.095583923,0.7674118096428569,3.6396411344761908,1.9522400924285714,4.71914433404762
2.100506156,0.9130929496142857,3.317565097666667,1.8609677610000002,4.823045511619047
2.105428539,1.1137264357238095,2.8365363818571425,1.7599183264285716,5.039820341095238
2.110350771,1.3985476664857142,2.1737647938095237,1.6034794265523808,5.41557522104762
2.115273154,1.7505034265809523,1.3138274097619047,1.3958524764095237,5.962946478190476
2.120195387,2.1643596987857143,0.2673806548571427,1.1412316177904762,6.691750116285714
2.125117541,2.6102144421095237,-0.9540085252857143,0.8016131052190476,7.568991187666668
2.130039918,3.0409812119476194,-2.2907929786666665,0.3713600082190477,8.550668529333333
2.13496238,3.4214056547047615,-3.672110298952381,-0.1409149780190475,9.56237894095238
2.139884613,3.7158757463666667,-4.990512725285714,-0.6988366260666665,10.499625356666666
2.144807019,3.944141593842857,-6.1690609249047625,-1.258673643638095,11.29332127895238
2.149729175,4.155684492519048,-7.167321536285714,-1.8018988752571428,11.92157421352381
2.154651405,4.290085110038095,-7.975341605904761,-2.322932542638095,12.372972074857143
2.159573813,4.328852920409524,-8.594797079666668,-2.7376040544952382,12.616964047428572
2.164496045,4.337843301857142,-9.058771010571428,-3.0667674923047614,12.716677026190476
2.169418428,4.281615064366666,-9.388959103285714,-3.392059211066666,12.777296923333333
2.174340652,4.159442159499999,-9.606512853690477,-3.7415385344000005,12.88072098704762
2.179263034,4.046836445833334,-9.748682326409526,-4.155520778161905,13.056263987476191
2.184185267,3.9489184916904763,-9.819442045733334,-4.644486982019048,13.31741603814286
2.189107635,3.9022888272523812,-9.823566567942857,-5.168558686780953,13.610008778952379
2.194029868,3.893583347490476,-9.768574854352382,-5.653667800257143,13.862736497904761
2.198952031,3.9104469206333325,-9.62286352037619,-6.023269810638095,13.981466314999999
2.203874414,3.8987121625380947,-9.366087721142858,-6.255802765971429,13.922228155380955
2.20879657,3.8266344908714283,-8.968255531838096,-6.354768430666667,13.667187980714285
2.213719033,3.665863540966666,-8.412898518647618,-6.313171238890476,13.227724776047618
2.218641189,3.4210068768714286,-7.680928225409524,-6.151727046080952,12.61110408057143
2.22356342,3.099376081061904,-6.748143043552382,-5.882258000604762,11.841927520380953
2.228485789,2.7097064299666664,-5.632087180314286,-5.484654681795239,10.935074923857142
2.23340825,2.3076386153952377,-4.386844630266667,-4.947148782652381,9.956973775380952
2.238330483,1.9495209838714282,-3.0897634096,-4.298330130842857,8.967251457238095
2.243252837,1.6462633709142855,-1.8234575998857145,-3.5985523914619044,8.066558214
2.248175069,1.3401007155619045,-0.6552866029809524,-2.9213571832238094,7.320828687380953
2.253097223,1.0276770095142858,0.35117824149523796,-2.2945300454142856,6.741315828523809
2.258019606,0.8025171543714285,1.1546833898285713,-1.7138294321761904,6.315469876142858
2.262941839,0.6597181061809523,1.751360806638095,-1.2413080589857142,6.084356234666667
2.267863964,0.5529283937857142,2.1940551754476187,-0.849695767652381,6.000004818333333
2.272786346,0.5037955386333332,2.5055566557333333,-0.47970966493809525,5.953474883666667
2.277708579,0.508788012347619,2.7121199454238094,-0.11559796331904765,5.864562338428572
2.282630976,0.49105682263333317,2.8583798975714285,0.25871480645714284,5.703144121714286
2.287553208,0.440620632442857,2.961438465657143,0.6484737736571429,5.467789719952381
2.292475591,0.30803144264285703,3.049406372342857,0.9771528073238094,5.2364635816666665
2.297398053,0.10074410835714274,3.1513069442285717,1.204541825038095,5.069959231142857
2.302320285,-0.18308117559523823,3.2557170447761905,1.3095216920857145,4.997868015714285
2.307242439,-0.5058175637857144,3.35336462087619,1.2869929869428571,5.032163345428571
2.312164818,-0.8347080009761906,3.4458758092857145,1.1424391751619047,5.162809961952381
2.317087051,-1.1627083307380954,3.5359882343333333,0.9245383171190478,5.3174005879047614
2.322009174,-1.4799502378809526,3.628886427190476,0.651049988547619,5.476404066714285
2.326931557,-1.7920186775476192,3.696389709190476,0.3268179438809523,5.6042193167142855
2.331853795,-2.0689960974047623,3.734199660190476,-0.038189422547619145,5.701664126523809
2.336776178,-2.3036557635,3.7344453789047614,-0.4351406551666668,5.726677133619047
2.34169841,-2.494003429309524,3.699686368333333,-0.8358250799761906,5.684627688
2.346620797,-2.6089114774000004,3.6023567063809527,-1.2100547381666669,5.5722269438095235
2.35154303,-2.6261005742380954,3.437805947857142,-1.4867816425476192,5.380839358047619
2.356465412,-2.586898576647619,3.2405222257619046,-1.5716320730238094,5.167693904142857
2.36138764,-2.5612090996,3.054682328666666,-1.8193700256904761,5.027756139761905
2.366310023,-2.52950733612381,2.8996064323333335,-2.0763721182142856,4.927874537761904
2.371232256,-2.4897213379333336,2.754871340095238,-2.266176019404762,4.784876739904762
2.376154643,-2.423080055480953,2.6235051950476187,-2.391755450347619,4.624797768047618
2.381076799,-2.3409618153619047,2.508842286666667,-2.4697786384952383,4.478366810761905
2.385999023,-2.2580436738,2.420214522523809,-2.5074236875333336,4.363634065904762
2.390921407,-2.1662041988666667,2.3601572854761903,-2.5053478294761904,4.274814556666667
2.395843645,-2.0630736276571433,2.3247405234285714,-2.4216162590428576,4.178183980190476
2.400766028,-1.9576564793000002,2.3058156626666664,-2.265928543708571,4.055833488714287
2.405688184,-1.8364647225928572,2.2977136543809524,-2.0814732596704766,3.924593433666667
2.410610402,-1.6877944320214286,2.300235839142857,-1.882554550937143,3.786763024285714
2.415532864,-1.501880332802381,2.3091704164761904,-1.6869418830038094,3.639830349952381
2.42045502,-1.2891144276928572,2.328374374523809,-1.5012343117490476,3.4966430470476193
2.425377484,-1.0530259502595238,2.3460182803333334,-1.3140552238538095,3.3543544862380954
2.430299869,-0.798383032259524,2.3643498988571428,-1.1181403657080953,3.2145252438095238
2.435222102,-0.5341613696880954,2.376573801047619,-0.8821078996319048,3.0831375231428573
2.440144513,-0.2727051299261906,2.3893826575714283,-0.611260039822381,2.996599107476191
2.445066746,-0.015241175211904854,2.3912645181428567,-0.3379723234414286,2.9599651768095234
2.449989129,0.22877701616904753,2.3860439459523812,-0.0870169007271429,2.980020616428572
2.454911304,0.47112144669285705,2.368302140904762,0.09401681274904758,3.067224265047619
2.459833533,0.695238544102381,2.3317609060142854,0.13099323532047613,3.1718273091904763
2.464755688,0.933489543292857,2.268679237042857,0.37377157060619043,3.228531818857143
2.4696781,1.1958707790547618,2.1681839511142855,0.6389109459871428,3.2808466834761907
2.474600333,1.4633660592928568,2.0348320461142855,0.834546327225238,3.4039288513809525
2.479522792,1.719659114840476,1.8772686605904763,0.9692767060252381,3.5781359197619045
2.4844449,1.977459771959524,1.6973970900666668,1.0688770878395237,3.780632600761905
2.489367437,2.242528589683333,1.4874282336380948,1.1486884664347616,3.996922590523809
2.494289823,2.5102195863690477,1.2464078095904763,1.2079612765442858,4.219400443761905
2.499212054,2.7850451103976193,0.9775740928761903,1.2409371815395236,4.442558453428571
2.504134208,3.0540985819928568,0.6985120942571426,1.2462313244514285,4.645021536714286
2.509056586,3.3098404794285705,0.4252035219714284,1.2272184198609524,4.818173729761905
2.513978818,3.5030411893333335,0.18047170968571416,1.200053753437143,4.904501511238095
2.518900982,3.6665653827333333,-0.050582482838095376,1.2175910389657143,4.948285764333333
2.523823365,3.8230554744809524,-0.29061829488571445,1.283151417472857,4.994252725190476
2.528745598,3.9453844739523807,-0.5352781557904764,1.3622892259585715,5.015542140619048
2.533668,4.016545903047619,-0.7658118691714287,1.4307401770985715,4.99042031047619
2.538590233,4.023998044714285,-0.9632000129428574,1.4593468899271427,4.909782549904762
2.543512387,3.975363518452381,-1.1107978687000002,1.4444143142604762,4.791538068333334
2.548434874,3.882433513757143,-1.1940322469904765,1.4258226945938095,4.684494167380952
2.553357259,3.7674464639809524,-1.2168198633238096,1.438248367022381,4.617681244380952
2.558279492,3.6383546562190476,-1.1995518641333336,1.4897912735461905,4.5831344303809525
2.563201875,3.501859795447619,-1.1746290107190478,1.5529827101176188,4.554836479333334
2.568124107,3.3563928433666668,-1.1572158671190478,1.6010588515938093,4.507943093
2.573046233,3.1837377008666667,-1.1516423914761906,1.6242448086414285,4.420511573285714
2.577968616,2.9868061826047616,-1.164346008857143,1.621916094879524,4.301676196190477
2.582890834,2.7877425551190473,-1.194835430857143,1.5995220507842856,4.176965388571428
2.587813216,2.575003706257143,-1.258553624904762,1.5754641458795238,4.080072394761904
2.592735464,2.346724126985714,-1.3484910052857142,1.5731981475938095,4.020270840047619
2.597657618,2.08510555882,-1.4648771577142858,1.6044897204176187,3.9942755776666665
2.602580077,1.7802485119676188,-1.6135593092380953,1.6505191490366664,4.001488735285714
2.607502246,1.4619241844914286,-1.8154029342857143,1.6802186716857144,4.063800604047619
2.612424629,1.1146100992057142,-2.0843970045238094,1.6549462419857142,4.2030665798571425
2.61734709,0.7345771057295236,-2.4225464612380954,1.4524367138666665,4.515275448190476
2.622269338,0.2751208663009523,-2.7893480410476195,1.0342615189285713,4.987684619142858
2.627191721,-0.30341562146095247,-3.1098442085238096,0.5180009460714287,5.509189188000001
2.632113877,-0.8946414158419048,-3.3368942461428577,0.056966937642857186,5.970465423857143
2.637036026,-1.4636348934609524,-3.4591915330952387,-0.2938562149761904,6.373007180428571
2.641958485,-1.9836820244609523,-3.5055990112761903,-0.540690362547619,6.749710691238096
2.646880708,-2.42949471810381,-3.5147706303360957,-0.7097802645476191,7.076974797999999
2.651802862,-2.7869311877419047,-3.5305764878599057,-0.8363801695857143,7.297471179761906
2.656725239,-3.057204606394286,-3.595942440269429,-0.9681502226619048,7.374919355142856
2.661647472,-3.2515378985847625,-3.7194345364075243,-1.1265925570585715,7.340018987190477
2.666569855,-3.3883847560038096,-3.873878203455143,-1.3019533686633333,7.281193257857142
2.671492065,-3.4805535639704765,-4.037754966845619,-1.4691412690871428,7.255048437714286
2.676414447,-3.535078993260952,-4.195758728512286,-1.6094333210795237,7.281619867142857
2.68133668,-3.5648520412514286,-4.333278780655143,-1.7141452254842857,7.351026248619048
2.686259063,-3.5921039926457143,-4.444653158893239,-1.7837275117985716,7.4320368495714275
2.691181295,-3.612360086926667,-4.503918920036095,-1.8327054658414283,7.4770362715714285
2.696103678,-3.6242903255599996,-4.499553339607523,-1.8758247516319049,7.462862153190476
2.701025834,-3.6319382776228575,-4.429598671845619,-1.9165958982509526,7.385583159190476
2.705948063,-3.647956466770476,-4.288455565559905,-1.9404187564461903,7.247523261857142
2.710870447,-3.677842655722857,-4.059257552512286,-1.9255564688366664,7.042612785666667
2.71579268,-3.68720018758,-3.7362449053694284,-1.8470657546033333,6.758703423761904
2.720715063,-3.6355352334371425,-3.3463772079408574,-1.6007715598557142,6.379140521190477
2.725637285,-3.5142850467704765,-2.9198778681218096,-1.177885508979524,5.885131409666666
2.730559668,-3.292074605437143,-2.515437318764667,-0.7006005056033333,5.337075234761905
2.735481824,-3.044329091484762,-2.1920653279694284,-0.2991724489747619,4.866747122190477
2.740404278,-2.783894282294286,-1.9795428496599048,-0.01478367618904766,4.498432749
2.745326511,-2.5290108681038097,-1.866267753145619,0.1661159960962666,4.206021742857143
2.750248894,-2.30314979558,-1.824199325161905,0.25642223342007614,3.9731310059047615
2.755171122,-2.145151131532381,-1.8122855629523809,0.28696013672959997,3.816938613619048
2.760093504,-2.0792269979609523,-1.7779728017,0.30007161329483806,3.756828722095238
2.765015722,-2.0920465151990477,-1.6920111362761905,0.32058647085340947,3.7721676467142853
2.769938105,-2.138927083960952,-1.5522721337523813,0.3523117568724571,3.7924047440476194
2.774860337,-2.213480414722857,-1.3729342292047622,0.3821218048010285,3.788410345
2.779782506,-2.2934992189323813,-1.1589306095,0.40058380495055235,3.735814124285714
2.784704889,-2.3659846460133336,-0.9137147990285716,0.4007564235505524,3.6310179415238095
2.789627045,-2.424886743990476,-0.6450750926000001,0.38668228052959985,3.485169998142857
2.794549278,-2.4729125528619047,-0.3590791380285716,0.3403607579105523,3.3325480907619047
2.799471662,-2.5074727904761906,-0.0696564329333335,0.2718614255295999,3.197436578857143
2.804394124,-2.508780790990476,0.21779062225714269,0.19145175962959993,3.088223724238095
2.809316343,-2.459988460164286,0.4958895687809522,0.10486599951055234,3.005544426857143
2.814238725,-2.373372701007619,0.7501071821142855,0.018331141762933274,2.9550172193809523
2.819160958,-2.2531628864695237,0.9769864155428569,-0.07126990664659053,2.943354386571429
2.824083331,-2.0861200804457143,1.1763523663047617,-0.16116371601325719,2.944491228095238
2.829005486,-1.8912348889790476,1.350505982342857,-0.2602925725561144,2.9432853421904763
2.83392771,-1.6929584571885716,1.5046731702238094,-0.3686195227894477,2.943647069714286
2.838850095,-1.4945958427790478,1.642944262190476,-0.49615286070373343,2.954378584285714
2.843772271,-1.297272034417143,1.7688368843095237,-0.6360374837275429,2.973362637428571
2.8486945,-1.1029220337552383,1.8885018371761904,-0.7821572894414286,2.9980756267619046
2.853616884,-0.9306443187019049,2.0087839791047615,-0.9303637171461906,3.0468049576190475
2.858539126,-0.770907750499524,2.1271923553761902,-1.0892876269414287,3.112547507428571
2.863461509,-0.6243987502661905,2.2395258347714284,-1.2521147215257142,3.171363184333333
2.868383746,-0.4850362291566668,2.3403389255809524,-1.4151378173066667,3.2158013846190476
2.873306206,-0.3634112783138096,2.4284105897238093,-1.5654721045780955,3.2541877504761905
2.878228593,-0.2439052832233334,2.5019632606523805,-1.664734484035238,3.2566466972857144
2.883150741,-0.12652747834238104,2.5351018309952376,-1.6118725295733334,3.2450234706666663
2.888072972,0.0023261379385713455,2.510314021823809,-1.306617202387619,3.4677326121904763
2.892995107,0.11878114227190469,2.428436690904762,-0.8548876161476192,3.8485688323809524
2.89791749,0.22147575871476183,2.3306087852,-0.48795204510476187,4.119229212380953
2.902839722,0.3213757091861904,2.241375453442857,-0.22897772283809528,4.264383601047619
2.907762105,0.42125171207190465,2.161982594885714,-0.054850530128571516,4.327057990190475
2.912684338,0.5288627071028571,2.0864995509095237,0.06307432475714277,4.3522179464285715
2.917606725,0.6398288068033333,2.010849026371428,0.1461477052047618,4.359004000285714
2.922528958,0.7391746199795237,1.9297567453666666,0.22275727982380944,4.348104953333333
2.927451355,0.8193240491461903,1.8440776513666663,0.3051628994809523,4.3177738225714295
2.932373588,0.906422483012857,1.7486059399857141,0.4029524226238094,4.279151671190476
2.93729597,0.9959573418890476,1.6498862296047616,0.5216388488666666,4.227987287333333
2.942218203,1.0818174324795238,1.5519757118428568,0.6815010436238095,4.1596492405714285
2.947140586,1.1684301927842857,1.455420898938095,0.8730113803380952,4.081067987095238
2.952062818,1.2518721917890476,1.357817611938095,1.0835885220047619,3.9926108291904763
2.956984953,1.3032134779738094,1.2582553756999997,1.3033988545761903,3.8673836724285713
2.961907336,1.3408350979523809,1.1672443794142855,1.5178399071,3.7236365308571426
2.966829578,1.3928718119380952,1.0905330937,1.6987858584238094,3.5897951689523815
2.971751732,1.4536546205714285,1.0281556692238094,1.8395742872857141,3.4774679427142856
2.976674191,1.5203008572999999,0.9711077174619046,1.9437801936904764,3.3885274732857145
2.981596576,1.5964701898761906,0.9270994284142854,1.9877766214238095,3.352613250666667
2.986518809,1.650572382185714,0.9225707128904761,1.8811750000238097,3.347843524476191
2.991440962,1.6564492866190474,0.9768269023523808,1.5370706731285713,3.124976901285714
2.996363345,1.6316429517761906,1.0874159950333333,1.0660958957238094,2.7581165087142856
3.001285807,1.5875563819333334,1.2053182342142856,0.7171097050142857,2.494435953619048
3.006208039,1.5098006220316667,1.310885469542857,0.5057999541238095,2.350999670857143
3.011130418,1.391070428950714,1.402435609338095,0.4132626191476191,2.2993959069047616
3.016052651,1.248395435055476,1.4873167504095237,0.4075219992904762,2.300557249952381
3.020974809,1.0875274317935715,1.563853033995238,0.4788803280857143,2.3417745206190475
3.025896962,0.8871737639840473,1.6326145104285712,0.601575044657143,2.4237076905238095
3.030819321,0.6789344811269047,1.7094077440000002,0.7652946121904762,2.548698617095238
3.035741554,0.4630613305078571,1.7965316489047616,0.9588358579999999,2.6985667124285713
3.040663937,0.27278666050785705,1.8865109796190473,1.1703825629,2.8665559312857147
3.045586151,0.11492842503166659,1.9771018766666664,1.3813684107619049,3.0429242844761903
3.050508534,-0.014616667544523895,2.0699164470476186,1.5882250361904762,3.2208418155238094
3.055430767,-0.10010419010166675,2.165063114428571,1.783911087,3.3971532807142855
3.060352916,-0.10247376424452388,2.2579472576190476,1.9622353833809525,3.585615843904762
3.065275606,-0.04531743418738103,2.3423353036666663,2.126970822666667,3.7714531338095245
3.070197839,0.04318880178404753,2.418214020333333,2.285786015009524,3.9492408032380952
3.075120216,0.1522949507554761,2.502309731142857,2.4514452964809528,4.132098827476191
3.080042372,0.2653708599459523,2.5786274445238093,2.5881690050285715,4.2894585641428575
3.084964603,0.34943133589833325,2.643548585190476,2.7144038117238094,4.411350984333334
3.089886972,0.4138229488983332,2.6918614876666664,2.8548051892666666,4.515091225761905
3.094809204,0.47325175999357133,2.7247573024285714,3.012438099352381,4.620157067952381
3.099731358,0.5375725229316666,2.7510906855714286,3.1766611487095235,4.735253121095238
3.10465376,0.598151380060238,2.782894492190476,3.3439327251809527,4.860810755047619
3.109575916,0.6532637611523808,2.8229620684285712,3.5025695789761904,4.988046960190476
3.114498375,0.7081673790761903,2.8710094066666665,3.629107481,5.101217778809524
3.119420608,0.7491282352142855,2.9228854066666665,3.717112336904762,5.192381783142857
3.124342991,0.7850844242476188,2.984598648095238,3.7544514792857147,5.256518428142857
3.129265223,0.8547596597476189,3.0557836920000003,3.7517339956666667,5.287027060285714
3.134187611,0.943349989342857,3.121133407095238,3.706679003619048,5.280623911047619
3.139109844,1.041811469367619,3.1845793498095234,3.620294570952381,5.245432144809524
3.144032197,1.1215158990319045,3.2572960173333336,3.504563104571429,5.204028930380953
3.148954353,1.174144329602857,3.337567159238095,3.3760558764761903,5.164876589238095
3.153876507,1.1922677576314284,3.422468446666666,3.236922105238095,5.127417035952381
3.158798967,1.1640764714457141,3.5080752146666665,3.092726809714286,5.09280918952381
3.163721127,1.0817497583980953,3.595039118,2.9660505113809523,5.07278314252381
3.168643357,0.942327807202857,3.6831263134285708,2.879647027952381,5.072930311761904
3.17356574,0.7626492365361905,3.763132776619048,2.8423744043333334,5.08456936252381
3.178487978,0.5559214706790476,3.8174459253809525,2.842139176,5.085935725761905
3.183410437,0.3513557526123809,3.8559468247142856,2.898547320190476,5.094692365952381
3.188332593,0.17671851583619042,3.8718457335714285,2.9755071799523813,5.101662077952381
3.193255058,0.04971890113809515,3.851485786,3.0341323217619047,5.089542092714285
3.198177442,-0.02452014567619055,3.7722744487952378,3.0544085503333336,5.0442717387142855
3.203099675,-0.04362086281904768,3.6001460666047613,3.0136698882380952,4.988266039761904
3.208021839,0.011860372371428488,3.2971198672714284,2.9083725044285713,5.022014000666667
3.212944222,0.16511408094285707,2.822438637414286,2.6787911256666668,5.218331493523809
3.217866376,0.42937555657619036,2.1432544164142855,2.326537223142857,5.635014515857143
3.222788836,0.8265635991904761,1.2534476350333332,1.9284681252380953,6.276146913809524
3.227710992,1.337400910942857,0.13911559465238066,1.4999098891428573,7.142602143142858
3.232633223,1.9327824375380953,-1.147389196157143,1.0414724577142858,8.18344487104762
3.237555605,2.5355848588952377,-2.5331754796333334,0.5536680675714286,9.313486482666667
3.242478081,3.0549294159657143,-3.9404088539190476,0.014654182238095257,10.43766355952381
3.247400237,3.4715883536347616,-5.293166126252381,-0.5508297284761904,11.465935425380952
3.252322467,3.7955428748257143,-6.5027505893,-1.0867089544285713,12.310438609523809
3.25724485,4.069695959801905,-7.542419376204761,-1.597456705047619,12.968453444333333
3.262167083,4.245601767878095,-8.391343740347619,-2.1249295984285714,13.449585400761904
3.267089466,4.351439243544762,-9.065657603442858,-2.708657332857143,13.821774180714288
3.272011693,4.4379581499542855,-9.611277885919048,-3.3157816388095234,14.117512669714287
3.276933847,4.484019912697143,-10.048806927585714,-3.929666053761905,14.349107013380953
3.281856303,4.51178210151619,-10.384811695680952,-4.541975407428572,14.535367573714288
3.286778459,4.553148483617143,-10.615890306204761,-5.124933333714286,14.683805535809524
3.291700854,4.587017721745714,-10.761956784504761,-5.684523684714286,14.83616847147619
3.296623087,4.62744300624381,-10.829588358414286,-6.219140166428572,15.014885985761904
3.30154547,4.67148424534381,-10.818204643285716,-6.68354706547619,15.188421832380952
3.306467612,4.713140960915238,-10.713652357252382,-7.0736246450476195,15.35619682395238
3.311390072,4.730295200391429,-10.489705964733334,-7.3989905630952375,15.431215762904763
3.316312228,4.694120108343809,-10.119149594580952,-7.56110694304762,15.307426122571428
3.321234687,4.588396488867619,-9.565913137128572,-7.574282805238095,14.945794111571429
3.32615692,4.391637787153333,-8.813613686557142,-7.469587655428572,14.326343248476192
3.331079303,4.097587343200952,-7.842517264347619,-7.265576748761904,13.447997207476188
3.336001521,3.721091437058095,-6.692290801966666,-6.962734265833334,12.376712359809522
3.340923903,3.318782587010476,-5.4331676073,-6.570698545942856,11.21158769852381
3.345846069,2.964026368153333,-4.133833365204762,-6.056179944371428,10.060941642142858
3.350768298,2.688716101581905,-2.8771125156809525,-5.455822650276191,9.026562501571428
3.355690682,2.4769390048676194,-1.7473139559666666,-4.845185530466667,8.193630513333332
3.360612915,2.281633061391428,-0.7539433550619049,-4.2597101538,7.550847911714286
3.365535069,2.132671110787619,0.08769085012857132,-3.6738547833238093,7.0929034565714275
3.370457452,2.0107316333590477,0.7797186232714285,-3.094969477847619,6.737235584285715
3.375379685,1.905136964287619,1.3558642267952379,-2.552813939514286,6.452417875714286
3.380302067,1.8319629673542857,1.8458147474619049,-2.0481001884904764,6.241706936666667
3.385224534,1.7728879212019046,2.242052790652381,-1.5546213652190475,6.074419672571429
3.390146766,1.6984620158819046,2.529601227652381,-1.100950863495238,5.928165275428571
3.395069149,1.6546768255819044,2.739578122142857,-0.6828528934571428,5.766840117666667
3.399991295,1.5686661112104763,2.892211879957143,-0.3025730735619047,5.5860571968095245
3.404913526,1.4518051084009522,3.022924309652381,-0.008975407990476171,5.433275702571429
3.409835884,1.269565871115238,3.1272667873333337,0.21178892815238096,5.285102739714286
3.41475804,1.038372828210476,3.2242565523857145,0.3752974115333333,5.154764553904762
3.419680269,0.7603253119723808,3.327604462709524,0.432156598247619,5.10538606304762
3.424602659,0.429910029067619,3.416837468019047,0.43294960115238096,5.099624293904761
3.42952512,0.043478073924761836,3.4992459927333335,0.3715849844857142,5.139793432666666
3.434447353,-0.3830746077419049,3.5756177561428566,0.24855231243809522,5.234472802
3.439369741,-0.82720514198,3.6396292334285714,0.057860793795238064,5.357946486857143
3.444291973,-1.2774190965514285,3.6859342824761905,-0.18119534780952384,5.494040250428571
3.449214127,-1.6950744283133332,3.703957183,-0.4724587805238096,5.60951468
3.454136495,-2.0577318617895237,3.6838439872857145,-0.8190962111904762,5.666668990952381
3.459058728,-2.3538323306466666,3.6223976100952378,-1.1943406242857142,5.660968925
3.46398111,-2.5699470390276193,3.5011847984285716,-1.554768582904762,5.608088277428571
3.468903266,-2.6967903233285715,3.3170441900000003,-1.862308534142857,5.503975310619047
3.473825495,-2.7563107439,3.0906109469476184,-2.0777302448095236,5.3742298307142855
3.478747866,-2.794210885185714,2.8442874324047613,-2.2121324347619047,5.21895321404762
3.483670098,-2.807816746614286,2.584389391428571,-2.273375957495238,5.0192903905238095
3.488592486,-2.821680315852381,2.3497513987142855,-2.2722380508999995,4.838363392809524
3.493514719,-2.8651785538047623,2.1609157721428565,-2.387982624623809,4.723965114190476
3.498437101,-2.9590903633809527,2.0128954025238093,-2.517383385995238,4.674951014238095
3.503359262,-3.02554321852381,1.9022768849999998,-2.5697944348904764,4.623780330761905
3.508281722,-3.062883501904762,1.8060309773809524,-2.5514570545709523,4.552728098095238
3.513203955,-3.055399979809524,1.7392977362857138,-2.4767333879566666,4.476630683238095
3.518126332,-3.0277244590000003,1.6878503504285713,-2.3592489078328573,4.381723806142857
3.523048565,-2.963654654304762,1.6391646294285713,-2.1904957135095238,4.2322191160000004
3.527970719,-2.848836654657143,1.6112080074761903,-1.9992037589619045,4.0485076169523815
3.532893082,-2.6815330882333335,1.588191055142857,-1.8140972387999998,3.845681303761905
3.537815315,-2.461870607311429,1.563150383238095,-1.625888136538095,3.6148368471428576
3.542737464,-2.2068240736209526,1.5333101919999998,-1.4297182843885714,3.368563295809524
3.547659847,-1.9180836913066668,1.5025107576666665,-1.2310178577933333,3.1148970584761906
3.552582079,-1.6182885064828574,1.465925665095238,-1.0358562384504761,2.8726021343809522
3.557504467,-1.3282285085780952,1.4329153299047617,-0.8261414766409525,2.668575168809524
3.5624267,-1.0481669854352382,1.4069915214761903,-0.6091300050457142,2.5198058186666668
3.567349083,-0.7875790888161905,1.393826615190476,-0.3865823376647619,2.4269910067142857
3.572271314,-0.5342148096257142,1.3983941361428571,-0.1764019074742857,2.400558142047619
3.577193774,-0.2679669127209524,1.4063914701476188,0.024417516716190506,2.431044186571429
3.58211616,0.015538754088571395,1.3982958991714283,0.2110746672876191,2.5102114745714283
3.58703831,0.30345566413619046,1.363801136195238,0.3649498139019048,2.6386198549523807
3.591960541,0.6064443296123808,1.2914090429047618,0.44273609489238097,2.7581724716666667
3.596882656,0.93297695466,1.1935363287238094,0.6140875674161905,2.8409256425714284
3.601805039,1.278431624802857,1.0791494721428572,0.7837290905590476,2.897121957
3.606727271,1.6259546669457141,0.9553501878571427,0.8730336143685714,3.001899220809524
3.611649654,1.949337180802857,0.827969425095238,0.91025256683,3.1542282003333333
3.616571887,2.261286371421905,0.6957620484761903,0.9221378053728573,3.3306145221904764
3.621494041,2.5791325617552383,0.5537240039999999,0.9226042337157142,3.515772908
3.6264165,2.8935130372028572,0.39734505361904754,0.9102157102257145,3.7121344941428576
3.631338885,3.1911564546028575,0.22690504961904748,0.8753582348923811,3.9128339137142856
3.636261118,3.4429809768933333,0.052400570809523664,0.8137050423495238,4.093960806285715
3.6411835,3.6549936348761904,-0.12015090219047635,0.7480793293733333,4.249709689
3.646105962,3.831430585661905,-0.2871468589523811,0.6821844258428571,4.380958256333333
3.651028108,3.9808970576809526,-0.4502127636190478,0.6158549026285715,4.494163586238095
3.655950262,4.09694467847619,-0.6057036672380954,0.555879901557143,4.586169923095238
3.6608725,4.165486057666667,-0.7488657133809526,0.4997052826952381,4.641594014809524
3.665794885,4.185283059238095,-0.8725454761428573,0.4517644256980952,4.648656047857143
3.670717104,4.1694831565238095,-0.9778295255238098,0.42206314168857145,4.620423231714286
3.675639486,4.120967257666666,-1.066247188961905,0.4097055717838095,4.569244702761905
3.680561719,4.041631738428571,-1.1277077605904762,0.410061383164762,4.505142999238096
3.685483887,3.940868167714286,-1.1543119986,0.42160037692666663,4.439028845380953
3.69040627,3.834063257571428,-1.1543346174952382,0.44381471011714285,4.379443283761905
3.695328502,3.716815114095238,-1.1426245697761905,0.4836608579266667,4.323920854619048
3.700250885,3.588251539714286,-1.1286273797190478,0.5360518193552382,4.262405365714286
3.705173347,3.433620106666667,-1.120462715609524,0.5969493910695237,4.179858450380952
3.710095579,3.244400254357142,-1.1228917184190477,0.66461757926,4.068885691809524
3.715017943,3.0434565970238094,-1.1367932416095239,0.7311027202885715,3.940957706333333
3.719940099,2.816922264480952,-1.1712792458952381,0.7872633845600001,3.7980638922380954
3.72486233,2.5561107411714286,-1.2305675318952383,0.8473888114266667,3.6626507568095237
3.729784711,2.2650035989238093,-1.303309108514286,0.9280931456409525,3.5443474658095235
3.734706867,1.9516184188619046,-1.3922908731809527,1.0388412379504763,3.4532080075714284
3.739629096,1.6428045177190478,-1.5073327819428575,1.1707540994742858,3.4139768441428577
3.744551505,1.3212801020047618,-1.6522722953714288,1.2777683354599998,3.434908098809524
3.749473967,0.9865464795761906,-1.8338621542285714,1.331342762717143,3.5180147947619043
3.7543962,0.6338815774809523,-2.0523607191333335,1.297787192621905,3.6710827502380954
3.759318378,0.207539862147619,-2.2970098058,1.0804310983504761,3.980396846666667
3.76424076,-0.31461593361428575,-2.5493155178476195,0.7177250303552382,4.461560607285715
3.769162993,-0.8319369412333334,-2.798284669704762,0.2921104842809523,4.9997231200000005
3.774085371,-1.3763356293761906,-3.005618864609524,-0.13940719051904768,5.543041185857143
3.779007603,-1.9126126964714287,-3.1460791031714286,-0.5322001476619048,6.019661238095239
3.783929741,-2.3969880370904764,-3.2251110985428575,-0.8749514349476192,6.38327412452381
3.788852124,-2.8076753133761905,-3.2649471930333336,-1.1684490087095238,6.615129334952382
3.793774348,-3.1586869359,-3.281645288095238,-1.4332532470904762,6.733293522095238
3.79869673,-3.4556457059476187,-3.2861093836380957,-1.6814587271857147,6.779261368428572
3.803619001,-3.7057038460428577,-3.28603305137619,-1.9037745381380955,6.791247384238095
3.808541384,-3.906287939757143,-3.285653812566667,-2.099353158709524,6.795542076857143
3.813463617,-4.058630460780953,-3.2851868129952386,-2.269810062042857,6.7897054864761905
3.818386004,-4.185261936400001,-3.2885558094238094,-2.4107355830095236,6.773337535476191
3.823308237,-4.273547269047619,-3.2840631405666665,-2.5129066293952382,6.756216407000001
3.82823062,-4.325992412504762,-3.265285997185715,-2.590204579457143,6.729777925095238
3.833152866,-4.348134651066667,-3.233582377471428,-2.6532110567776193,6.690050528714285
3.838075249,-4.3517270797666665,-3.1831777039476186,-2.7074239121966666,6.631920330190476
3.842997482,-4.336536223004762,-3.1052494106142863,-2.7434340100680954,6.547754365952381
3.847919636,-4.2848292731,-2.9978915680428573,-2.7460784382490475,6.429803469523811
3.852842018,-4.198105269957144,-2.8519655693761905,-2.6939356294157144,6.265405121809525
3.857764242,-4.08337450314762,-2.654688477566667,-2.556877677906191,6.032540006047618
3.862686625,-3.884068361385714,-2.413107105709524,-2.247272439944286,5.651856719238095
3.867608781,-3.5762375111,-2.1540308680428573,-1.8081287538966664,5.1249139661428575
3.872531013,-3.246498650052381,-1.901580333804762,-1.3360241136871427,4.562998768380952
3.877453398,-2.8818236731476192,-1.6956747089952384,-0.8949903898871427,4.015947953190476
3.882375631,-2.5175647990999996,-1.561120566961905,-0.5237128617442857,3.5365124325238098
3.887298028,-2.2103973598619047,-1.4920399530476192,-0.23498081273952381,3.1610164776666663
3.892220261,-1.9810954644333334,-1.4589902404714288,-0.03429452542999999,2.89206460152381
3.897142721,-1.8234133181,-1.4431142882428574,0.08958775622714286,2.709011981095238
3.902065107,-1.713873695766667,-1.4250233834214288,0.16213894989857144,2.5824169012380955
3.906987338,-1.6379118448142858,-1.3901150490071432,0.20049728060333333,2.4975202596190478
3.911909492,-1.580183225004762,-1.3311680960738097,0.22140928073190475,2.436676755095238
3.916831631,-1.5509606060047618,-1.2429262379452384,0.23052494830809525,2.404507797380952
3.921754013,-1.5450500334809523,-1.120146953754762,0.22782732723666665,2.3911525745238094
3.926676485,-1.5510259838142861,-0.9657429549928573,0.2161053273604762,2.381690746904762
3.931598641,-1.5589392667619049,-0.7816442911833337,0.1936657070366667,2.3668357218571425
3.936520872,-1.5609194096952383,-0.5745998089452383,0.16393542076666667,2.341112068333333
3.941443259,-1.5432017417142858,-0.3556189572785716,0.13018018361904762,2.3015343182857144
3.946365492,-1.5175677906714287,-0.12917572332619068,0.09318604142857144,2.2621677904761905
3.951287875,-1.487969506352381,0.09790814134047603,0.0568411846952381,2.224449182761905
3.956210121,-1.454532410409524,0.3201179582452379,0.015665614180000006,2.195809305142857
3.961132581,-1.4171386034380955,0.5310148589595237,-0.033968291819999996,2.186551138190476
3.966054737,-1.3748969846904762,0.726659805292857,-0.08239581577761904,2.1928713497142858
3.97097708,-1.333330178504762,0.9197614668642855,-0.1287477196263333,2.2140000515238096
3.975899236,-1.3081244641714287,1.1188231331023808,-0.1701489565191905,2.2603885873809526
3.980821456,-1.2806688958857144,1.3214027960071428,-0.2093983383677619,2.317659949904762
3.985743841,-1.249932324647619,1.5218250773071427,-0.2606667201010952,2.381538869857143
3.990666083,-1.2037022809809526,1.7114097866785714,-0.3254740527963333,2.4410182393333333
3.995588465,-1.1443423757238098,1.878987125740476,-0.40416071872490483,2.499818262190476
4.000510698,-1.0671168012904764,2.021611744135714,-0.4877990511439524,2.553089159904762
4.005433115,-0.9795650840476191,2.136020314190476,-0.5750392929582381,2.607387570095238
4.010355347,-0.8826933688333334,2.2235229299714283,-0.6712126304725238,2.6718615263809524
4.01527773,-0.7837542282142859,2.2897635954142856,-0.7650973937439522,2.7436390682857144
4.020199963,-0.6754867080761906,2.3342350267619048,-0.8429232919391906,2.7988980781428574
4.025122345,-0.5578826624190478,2.3501731214285715,-0.8987137219487141,2.828774907904762
4.030044578,-0.438321665704762,2.336304834904762,-0.9329040048772858,2.838026248095238
4.034966727,-0.3177643802285715,2.294339645447619,-0.9318204321725237,2.8218126720476193
4.039889187,-0.20114519062857156,2.2286353579333333,-0.8841934798439524,2.801219617809524
4.044811342,-0.09020485913333344,2.135972122483333,-0.7591564809915715,2.834061100047619
4.049733482,0.028687853109523702,2.014939982392857,-0.526384613215381,2.968320892714286
4.054655942,0.16598375488571418,1.884213835140476,-0.22951894347728571,3.175101479238095
4.05957833,0.32358023232380945,1.7502361664976187,0.07218062466176191,3.3957055361904764
4.064500563,0.5022836099714285,1.618991122502381,0.3241028233903333,3.5731561841904758
4.069422946,0.6924766556999999,1.5018610326271427,0.5019686312431905,3.695160657095238
4.074345189,0.9034131821333333,1.396976513160476,0.6151199202823809,3.7721617006190473
4.079267571,1.1333598011333332,1.2972569887699998,0.678724301727619,3.8179485491428578
4.084189804,1.381147469752381,1.2060392779128568,0.7031823482,3.8555816784285715
4.089111963,1.6309076604190476,1.1227299964842856,0.708199776727619,3.890268150238095
4.094034422,1.8698481832285714,1.044762999865238,0.7171313014228572,3.9228054629999995
4.098956578,2.092361322495238,0.9759333782938093,0.7458262546657143,3.9547866617142855
4.103878727,2.2976192690142856,0.9200339512461901,0.8030358244371427,3.990103208190477
4.10880111,2.463966172390476,0.8794482403414283,0.8889184938323809,4.006004250809523
4.113723338,2.599866693938095,0.8448810034366665,1.0040441655561905,3.997235869809524
4.11864572,2.7083151255571427,0.8099015294842855,1.1271279769942857,3.9722327652857143
4.123567953,2.7938976060857144,0.7727689086699998,1.2331688279657143,3.9475910270476184
4.128490365,2.8495263201904764,0.7321901459985712,1.3085468769419049,3.925877774
4.133412597,2.8666726520952377,0.693014861260476,1.3433676350990478,3.9046667600952376
4.13833498,2.868679841380952,0.6620040507985712,1.328390492175238,3.90549905552381
4.143257218,2.8555245115714283,0.6395969073795236,1.2554548258180953,3.905862422476191
4.148179677,2.8175289404,0.6343182886390475,1.1183667314038095,3.8298115125714283
4.153102064,2.7506670370238093,0.6477668598057141,0.8853040539847619,3.6211846715142855
4.158024218,2.6772621827714285,0.6695940026676188,0.5935757650335238,3.344279123280953
4.162946449,2.580281991357143,0.6919077642342855,0.3035623396049524,3.0537397903190477
4.167868602,2.454553900747619,0.7108013354033808,0.08570047433352383,2.80323038452381
4.172790946,2.3211941392619044,0.7191578595452855,-0.04231785662361903,2.619682862
4.177713179,2.1804284240714287,0.7097725732024284,-0.0880945757664762,2.4869489834285714
4.182635586,2.0193099947523807,0.6985006224595713,-0.05414777209980953,2.3968269175714285
4.187557818,1.8328449460290472,0.6825457646976665,0.05894289914304762,2.342210059952381
4.192480201,1.6390175195166665,0.659207861221476,0.2279989453487619,2.310861405428571
4.197402372,1.448614757345238,0.6391869107929046,0.4264070821059048,2.3004484565714285
4.202324601,1.25120009375,0.6305698616024283,0.6470139881963809,2.3160742533333334
4.207247062,1.0490205256119045,0.6396524344119522,0.8736537883297143,2.3479966341904763
4.212169452,0.8657929553119046,0.6706304782690952,1.0923270346011429,2.4063333997619045
4.217091685,0.6978653382071428,0.7265183874595713,1.2980007930678095,2.4803894056666667
4.222014067,0.5419807175023809,0.8017885293167142,1.4920355582487619,2.5658951242857144
4.226936267,0.3993800960214285,0.8978531990833809,1.6810575103249523,2.66255341447619
4.231858421,0.278013334045238,1.017848577373857,1.8641717948725716,2.7725011644285718
4.236780565,0.2007726697195237,1.1543383902071904,2.0437760385249524,2.893156225904762
4.241702947,0.15663500166238084,1.2948959187929046,2.213124272748762,3.0011446702380953
4.246625175,0.13000885751952374,1.4351662560595713,2.371446607034476,3.099254040380952
4.251547558,0.132676716005238,1.5758726320119525,2.495369369448762,3.2115475799047615
4.25646979,0.16596228985761896,1.7155461041738567,2.584567034915428,3.3424994180571432
4.261392188,0.1885420023957142,1.848836487231,2.6640839420571427,3.465971806004762
4.266314421,0.1948718113147618,1.978420388831,2.7494504167714284,3.5885700140142855
4.271236804,0.18924614328619038,2.0988220536571425,2.820955177138095,3.7050147793809525
4.276159045,0.17111890623857132,2.197622865390476,2.885338647,3.802030746333333
4.281081428,0.1431886671099999,2.27336072067619,2.9421855040952383,3.8783593680000004
4.286003661,0.11386104817666658,2.327014576809524,2.9712059838571427,3.926641555142857
4.290926033,0.08351009448095228,2.370533103,2.960058882142857,3.9385541230476186
4.295848189,0.04680176117428562,2.4152650605714285,2.9194002606190472,3.928351288952381
4.300770409,0.007572333045714189,2.4654772508571425,2.8556755498095234,3.904954447666666
4.305692794,-0.01729485673523819,2.5136018196666665,2.7689412094761905,3.863743544190476
4.310615026,-0.02960047406380962,2.559009336285714,2.667279357047619,3.8124075066190475
4.315537409,-0.04017528320666676,2.600447291428571,2.5701509657619046,3.7682019499523807
4.320459632,-0.04336295096380961,2.6454148179047614,2.484837395857143,3.7399346144761902
4.325382014,-0.04533147666857152,2.6902286325238096,2.4113933018571427,3.7234730599047614
4.330304247,-0.0630018100542858,2.7351616337142857,2.340024255619048,3.7155974397142857
4.335226391,-0.09454557012571436,2.7839665526666666,2.274451971095238,3.721499323904762
4.340148851,-0.14791876075238103,2.8303317796666665,2.215904440238095,3.735133272857143
4.345071235,-0.2310691390285715,2.8788717815238094,2.1698329221904764,3.759418512190476
4.349993468,-0.31678966107619055,2.9262657279523805,2.136857112285714,3.7879097931428576
4.354915851,-0.40040075772857153,2.9672478267619047,2.116648157476191,3.8124877226666674
4.359838083,-0.47535014006190485,2.993013064095238,2.1081610180476194,3.8229131938095238
4.364760452,-0.519514662847619,2.9971111048095236,2.082830922952381,3.804917018380952
4.369682608,-0.5045269954476191,2.9660241093333335,2.0354719729904764,3.762375498666666
4.374604786,-0.42999218757142865,2.8834397310571425,1.9656404512428571,3.7148649726666667
4.379527245,-0.30990718656190486,2.7405173949190473,1.8524004568947618,3.700042664476191
4.384449478,-0.14877075876666676,2.524391486538095,1.6912368883947617,3.759860830619047
4.389371866,0.08196647396190467,2.200972159680952,1.4427115072995238,3.951823747952381
4.394294022,0.38313619580952374,1.7520980210619048,1.1384951791566666,4.277813319619048
4.39921625,0.7467092048666666,1.1786400420619048,0.819097048442381,4.720247602380953
4.404138712,1.1557720048333333,0.4678741127761903,0.4918099081090476,5.281501707047619
4.409061097,1.6034989584476191,-0.3908834398904764,0.1492189175852381,5.977825635190476
4.413983313,2.0495401848190475,-1.3774219637000003,-0.22529640012904764,6.783607997190477
4.418905696,2.4776965379761906,-2.457821102319048,-0.6600883965100001,7.6593574358095236
4.423827621,2.8624444405523812,-3.58700521222381,-1.1406590988433334,8.548420461666666
4.428750081,3.1871390030571427,-4.7018025320809524,-1.6455800810338095,9.398553753238096
4.433672236,3.4785891884952376,-5.724299561652382,-2.1134852731766665,10.128879745761905
4.438594619,3.7111224220190477,-6.5956438327,-2.5346592203671428,10.677059769380953
4.443516852,3.8604195174952385,-7.297514773890477,-2.9892400382719044,11.09148369009524
4.448439258,3.9740519921142856,-7.858498068414285,-3.491014599081429,11.438641957285714
4.453361491,4.062362750371428,-8.31238412322381,-4.041746087938571,11.78008899847619
4.458283889,4.122865560504762,-8.670391974319049,-4.611952605081429,12.121848974
4.463206045,4.197394366790475,-8.947365255890476,-5.161176641319524,12.453216595904761
4.468128581,4.277409369052381,-9.144638487557144,-5.672515755129048,12.78439082752381
4.473050722,4.346282604195237,-9.26102520484762,-6.151425173833809,13.117533376857144
4.477973105,4.393302744338095,-9.292277586904763,-6.586922784181429,13.43898868052381
4.482895337,4.421378938909523,-9.243295872090476,-6.9555794514047635,13.704737209428572
4.487817506,4.431738510004761,-9.109554247785715,-7.283979416142857,13.897588457142858
4.492739889,4.402951510195238,-8.864256539800001,-7.4761473227142865,13.917352257380953
4.497662126,4.324664022242857,-8.496716450661905,-7.570680981857142,13.766543077095237
4.502584508,4.208043776814286,-8.005731238809524,-7.612686134761904,13.474392447857142
4.507506741,4.060999685814285,-7.376521499157143,-7.583753517952381,13.027343805952379
4.512429129,3.8477998659571426,-6.594823326133333,-7.465301479857142,12.383708837047617
4.517351285,3.6061402587666667,-5.685885985371429,-7.233494299066667,11.58227159252381
4.522273513,3.371299286719047,-4.688365322847619,-6.8905207758571425,10.687204976761906
4.527195913,3.1376493857190475,-3.649767216752381,-6.454442641809524,9.752165688190477
4.532118375,2.931540730480952,-2.6197402811809525,-5.943651714714285,8.863461928142858
4.537040607,2.7494084466238093,-1.6675898795142854,-5.435641860904762,8.111127149714287
4.541962999,2.594494640823809,-0.8354339026571428,-4.957757012,7.558105176380952
4.546885232,2.4865746413047622,-0.12905685032380954,-4.447314664238095,7.168269698714286
4.551807396,2.387697594504762,0.47489710153333337,-3.904812578904762,6.872650492238095
4.556729778,2.2809438308190475,1.0073152163428571,-3.3416145174761906,6.611535696476191
4.56165202,2.161825398595238,1.4617390753428572,-2.7808281908571426,6.371980627761904
4.566574403,2.0158154481666664,1.8377937369619048,-2.2577703467571433,6.143779444333334
4.571496635,1.844935448357143,2.138538122914286,-1.7744306169857142,5.918942952380952
4.576418799,1.6492238299761903,2.366922450252381,-1.3240248177714284,5.683911570190476
4.581341182,1.4459239272619047,2.5377682149666665,-0.9225521130157142,5.438206912523809
4.586263415,1.2213156365,2.6727572154809525,-0.5871179231442857,5.196698930666667
4.591185797,0.9796342083095239,2.7901401207952383,-0.3026768153347619,4.951975602333333
4.596108259,0.7093673574999999,2.904246783714286,-0.12850628719190477,4.785163753809523
4.601030415,0.40825831602380946,3.006531644480952,-0.04900590719190477,4.695515852809524
4.605952627,0.05381693440476181,3.077122549247619,-0.038879430001428586,4.664255725476191
4.610875009,-0.32851615126190487,3.116792261642857,-0.07186143881095236,4.658297632333333
4.615797179,-0.7025702425952381,3.123542308857143,-0.15775281047761902,4.706525000571428
4.620719408,-1.0541219569761904,3.113325448333333,-0.2989450934109523,4.7884043114761905
4.625641792,-1.396386291357143,3.088694112704762,-0.4751909488585714,4.875141524428572
4.630564025,-1.710010185166667,3.0497218257523806,-0.6934869942395238,4.971937817857143
4.635486427,-1.9855885193571428,2.9908119185285713,-0.9624502290014286,5.046476118428571
4.64040866,-2.218954900928572,2.896182351209524,-1.2569223216680954,5.080397618238096
4.645330813,-2.383721138795238,2.746104825152381,-1.5665994570490478,5.073744295380952
4.650253263,-2.483262087657143,2.5443549128266665,-1.8648085111919048,5.024005540285715
4.655175419,-2.528945133857143,2.299063249050476,-2.1297396109538096,4.927615914904762
4.660097878,-2.533128942809524,2.0250929530647617,-2.344381755334762,4.789201373142857
4.665020249,-2.501724413476191,1.7528563272633333,-2.4588491831919046,4.5803488046666665
4.669942482,-2.4732808896666665,1.509882666120476,-2.45312994723,4.385491393571429
4.674864864,-2.466911605428572,1.3003952790014286,-2.6170241350490477,4.296028211571429
4.679787097,-2.4611436014761905,1.1287111444061904,-2.7342242797395238,4.2020537963809526
4.684709251,-2.430141312704762,0.98516042773,-2.7679841830809524,4.073157610952381
4.689631405,-2.3695063601442863,0.8772410923538094,-2.7580054686380953,3.9564869574761907
4.694553788,-2.307902025996667,0.8084937592585714,-2.7157078981761904,3.8626403072380953
4.699476249,-2.2424131227061905,0.7587380497347619,-2.6333908524142857,3.754238451285714
4.704398467,-2.1493747425490475,0.7293719992585713,-2.5109080019857144,3.6167884332857136
4.709320621,-2.0161280766585716,0.7360402376871429,-2.3426649060333333,3.444125247095238
4.714243004,-1.8609888908109524,0.7703030537823808,-2.1814716600809523,3.283458616761904
4.719165237,-1.6866035056490478,0.8284181046871427,-2.038716094890476,3.13377148052381
4.724087697,-1.4975721729366667,0.8956538696871429,-1.9166200502238093,3.0000862504285712
4.729010083,-1.2911186480461905,0.9680915364109524,-1.8068465278904762,2.8732212626190474
4.733932237,-1.0670656597223809,1.040365630934762,-1.6955486281142857,2.7442498758571428
4.738854468,-0.840149707031905,1.1150374358252382,-1.5687800107238095,2.6176733920476187
4.743776832,-0.6234777519842858,1.2046778218585714,-1.4288177703857141,2.5124316233333333
4.748698987,-0.42319118193666677,1.3162233406300001,-1.2685364880458094,2.434170762
4.753621192,-0.2345661357461906,1.4351649173366665,-1.0902719609315237,2.380675169904762
4.758543577,-0.06488504079380963,1.535407820874762,-0.8946035303600952,2.341225177142857
4.76346581,0.09998501130142849,1.5937682995747617,-0.6987152438362857,2.315650668809524
4.768388197,0.2789017267299999,1.6022983469857142,-0.5752758637410476,2.363588099047619
4.77331043,0.4919850166347618,1.5651957286,-0.5473096227077142,2.455044946952381
4.778232813,0.7513479640157141,1.4905054434333334,-0.32649948185057137,2.5088227182380956
4.783155032,1.0235386881109523,1.380782346647619,-0.13792805146961906,2.626776511142857
4.788077414,1.2762318189585713,1.2471526300857143,-0.01796185955057143,2.8307853403809524
4.792999647,1.5111259651123807,1.0923604405095237,0.07685052513514286,3.0532194625238094
4.797922034,1.7517086877742858,0.9029941055095237,0.15866290687800003,3.2624648975714283
4.802844266,1.998654594007619,0.6788619650333333,0.22534328929704758,3.4513149338571427
4.80776644,2.235584689040952,0.42559949060476193,0.2786187155446666,3.6277818660952375
4.8126889,2.4719353559600004,0.14867172427142858,0.3014271907208571,3.807626964523809
4.817611045,2.7081133446838095,-0.14242294215714285,0.30404624148276194,3.9876858411428566
4.822533427,2.9585130967123807,-0.42987093968095236,0.30011876653038094,4.167739233952381
4.827455674,3.2073784811428565,-0.7016545186333334,0.2925266731494286,4.343742330428571
4.832378057,3.4039460988714283,-0.9413308465857144,0.27545848010180957,4.475003652619047
4.837300289,3.5552965261190472,-1.167475705347619,0.2711030977541905,4.572527641714285
4.842222658,3.688813958904762,-1.3926968396809525,0.27447633747800004,4.663953961571428
4.847144814,3.7906817255238088,-1.6217596580142857,0.2788273374684762,4.733586041428571
4.852067273,3.904086726142857,-1.8475315620142856,0.2650539569571429,4.805017250380952
4.856989501,3.978747294142857,-2.0613690947761905,0.25340881443333335,4.842326961666667
4.861911884,4.0702795245238095,-2.229991474966667,0.23737490954761908,4.901601433619048
4.866834117,4.169824475428571,-2.337367477109524,0.2371653396428572,4.988153677904762
4.871756485,4.221501804619048,-2.3987411458619046,0.2969721065952381,5.071577759904762
4.876678641,4.186165276142857,-2.4313199065238096,0.4062473852142857,5.125879531809524
4.881600865,4.063700375190477,-2.451683668809524,0.5260250419761905,5.139114861428571
4.88652325,3.888879174357143,-2.4656489519523808,0.6228990860238096,5.109688660142857
4.891445482,3.6692377095571427,-2.4850502865714286,0.6913542712142858,5.040719826857143
4.896367636,3.4097854687619042,-2.5245432342857144,0.7316246054047619,4.962308531142857
4.901290019,3.111785223857143,-2.5752644254761905,0.7638704145333334,4.893890467047619
4.906212281,2.799003844523809,-2.627989944904762,0.800393652352381,4.840043924190476
4.91113474,2.4663477448095237,-2.676284909190476,0.8490816042619048,4.804027397476191
4.916057125,2.110056178238095,-2.717170141952381,0.907637986404762,4.776012499857143
4.920979358,1.7295975734761904,-2.7463382822857145,0.9635914621142857,4.743322124809524
4.92590174,1.2958598186666666,-2.765136678952381,1.0029049388380953,4.712733060142857
4.930823896,0.8180983910952381,-2.7801297675714287,1.0027320796952381,4.699035463380953
4.935746125,0.3225477812857142,-2.802251299190476,0.9382336551714284,4.787190046714286
4.940668281,-0.16269321176190485,-2.816818538142857,0.7617096064095239,4.966913542428571
4.945590667,-0.6613084085238096,-2.8111459698095236,0.4911943149619049,5.209968739904762
4.950513129,-1.1905991641428573,-2.776880440285714,0.16981688291904767,5.526571822619048
4.955435285,-1.7737255728571428,-2.735488341,-0.13793711429047617,5.845047163095238
4.960357544,-2.3461741216666665,-2.6890584798571426,-0.4243269349285714,6.174506175238095
4.965279698,-2.924326607904762,-2.649926384352381,-0.6773648304238096,6.445396234666666
4.970202389,-3.502953286047619,-2.6199574329047617,-0.9155275466619047,6.660632731238095
4.975124319,-4.018499710095238,-2.595155287414286,-1.1737000246619047,6.818956984428572
4.980046778,-4.445007523714286,-2.5781258118238095,-1.4514827316619048,6.92295543295238
4.984969177,-4.787109523380953,-2.572557290442857,-1.7311024821857142,6.993717331714286
4.98989141,-5.060788433547619,-2.583622393204762,-1.9912762911380955,7.0544673140952385
4.994813792,-5.275841576795238,-2.6049671570619046,-2.222930906757143,7.126469730380953
4.999735939,-5.420995666952381,-2.630915443157143,-2.423355623328572,7.199966557142856
5.004658168,-5.491729191428572,-2.657993765157143,-2.593643817138095,7.2576801799999995
5.00958063,-5.508475905428571,-2.6875871647761906,-2.7406699075190475,7.30494090447619
5.014503014,-5.470487469761904,-2.719227876061905,-2.8685310496761907,7.3353300257619045
5.01942517,-5.388137857190476,-2.757402868585714,-2.9820268125190474,7.355229365904762
5.02434741,-5.272126623609524,-2.808531687442857,-3.062933715990476,7.369529547142856
5.029269564,-5.11429528684762,-2.8728343362523807,-3.0964937607142855,7.361883899714286
5.034191946,-4.920565196490476,-2.9340026663,-3.0618263312523815,7.308394642095239
5.039114408,-4.668673538047619,-2.979730180395238,-2.940038905252381,7.159086414761904
5.044036641,-4.406968065695239,-3.0003490845857144,-2.716718710955238,6.91525721447619
5.048959023,-4.127266969042857,-3.0038223210142854,-2.419765229395238,6.584970463571428
5.053881242,-3.8017077446142857,-2.998917942966667,-2.0806249880666665,6.170508998142857
5.058803625,-3.4484514792809526,-2.9748687517285717,-1.7440813726714284,5.717368305142857
5.063725766,-3.0729754538904763,-2.9334817997142855,-1.452711457657143,5.258214257333334
5.068647995,-2.7077689625238097,-2.877368609119048,-1.2244921337142858,4.8401392785285715
5.073570156,-2.3590921419047617,-2.8080774659285717,-1.0483528481904762,4.472440167528571
5.078492539,-2.047551143733333,-2.7197138922761903,-0.9144820875714286,4.168503213385715
5.083414781,-1.7739044228952383,-2.605218226009524,-0.8177101845947619,3.9228759177666666
5.088337163,-1.5304254690666665,-2.449668892819047,-0.7440951384828571,3.7231668318619042
5.093259396,-1.3280120349904763,-2.2449639382952378,-0.6741933740919047,3.5606202128619047
5.098181779,-1.1571904165190476,-1.9917312661999997,-0.5959418987166666,3.4148116208142856
5.103104011,-1.022590231304762,-1.6895873632,-0.5084599952009524,3.276974682338095
5.108026394,-0.9261123736619048,-1.3493155610571428,-0.4134311833442857,3.1440118646238098
5.112948613,-0.8588666149285715,-0.983892029295238,-0.3099222833885714,3.003782610480952
5.117871072,-0.8148286172095237,-0.6029893529142857,-0.21007552154095238,2.8576763926714284
5.122793228,-0.7843165681142856,-0.21254626629523807,-0.11090494885523809,2.7051503812904762
5.127715391,-0.7641966626428571,0.1809404491809524,-0.024892996964761903,2.5551697458142857
5.132637774,-0.7549135684666667,0.5693601567523809,0.04091738115904761,2.421482815528571
5.137559992,-0.7547414728285714,0.9364970552285715,0.08296114228761906,2.3227108413380955
5.142482375,-0.7501964256619048,1.2646089989904763,0.09932314289714286,2.2624206078142857
5.147404608,-0.7289443313809524,1.5550485252285715,0.11261033342380952,2.247543499338095
5.152326995,-0.6916428080333333,1.8139511430857143,0.11498500021095237,2.2689002328142855
5.157249151,-0.6265296141190476,2.031412712038095,0.08955238160619047,2.3148918463380954
5.16217138,-0.5464103278666667,2.213936280514286,0.03787285696809524,2.3921912646238095
5.167093751,-0.4739483736809524,2.3692671811666663,-0.032907664379523804,2.503415702147619
5.172016212,-0.43238904007952383,2.501399610638095,-0.1263554255604762,2.6330773673809524
5.176938445,-0.42271094591761904,2.6133165131428573,-0.24966966889380954,2.771976070095238
5.181860818,-0.4378949936128571,2.7154435088571427,-0.4000642902271429,2.9248420606190475
5.18678305,-0.4532690438795238,2.8118736970000002,-0.5790451502038095,3.093411900380952
5.191705199,-0.46151123659857135,2.8905040762857146,-0.7700389193633332,3.2582738224761907
5.196627582,-0.44977480956523813,2.9449420315238095,-0.9607799162304761,3.40053389847619
5.201549729,-0.41868547530809525,2.969378789190476,-1.1317657227961906,3.503826718380952
5.206471958,-0.37260071368904757,2.955399933238095,-1.2568059662166666,3.5448160875714287
5.211394342,-0.3137671429795238,2.897136977666667,-1.3323646313590476,3.5175770248095235
5.216316574,-0.2500743319890476,2.7676886471014286,-1.2662214383147619,3.46328603
5.221238957,-0.16682371004142857,2.563159645482381,-0.9378204475433333,3.678698065904762
5.226161189,-0.05853176051761905,2.3053899359585714,-0.4908920159433333,4.031191703380952
5.231083572,0.062350568953809526,2.051467598387143,-0.1492882628338095,4.292235953571429
5.236006034,0.20542638420619047,1.8314437903871428,0.04269596632809521,4.413288214428571
5.240928189,0.36377261711571435,1.6506846953966667,0.1378957258328571,4.4478547956190475
5.24585042,0.5221406199347619,1.5041947459395237,0.18570453708047618,4.454051948238096
5.250772803,0.6725642815395239,1.3981013165585714,0.1866244418185714,4.446693486857143
5.255694969,0.8145709455871428,1.3193083187966668,0.17482353674761902,4.451222308047619
5.260617197,0.9498940882919048,1.264012226987143,0.17846715591428572,4.481645638714285
5.265539582,1.0684217050871427,1.21858370113,0.20740782362380952,4.506421030285714
5.270461815,1.182391993272857,1.17576780013,0.273601107647619,4.5208687180952385
5.275384198,1.3257283794476191,1.1341477045585715,0.39121948679999996,4.531294060333333
5.280306439,1.4827629979523809,1.088240139034762,0.5557398242571429,4.507834255666666
5.285228822,1.665263757714286,1.0341982311300002,0.7516939199714285,4.458588017333334
5.290151055,1.8569696204285715,0.9668880000347622,0.9721573519904761,4.385517135666667
5.295073205,2.0441313357,0.8913626253680953,1.1899492640666667,4.298866320809524
5.299995664,2.2233720506380954,0.8159811476538097,1.362136403642857,4.222860224952381
5.304918049,2.3623212376714284,0.7491802922252381,1.4757309697380951,4.1632961154285715
5.309840267,2.4653420476,0.7027553357014286,1.5302719728809522,4.14357408247619
5.314762649,2.5396513824857143,0.6832246704157144,1.536256449547619,4.168822497190477
5.319684805,2.5921966177619047,0.7242485738333334,1.4226994940238096,4.196251732571429
5.324607029,2.613598993809524,0.831610381552381,1.0712298367952382,3.936007979238095
5.32952949,2.600557139904762,0.9869848517619049,0.6247665953238095,3.5326931965238098
5.334451646,2.567367809142857,1.1348829992761904,0.30417831882857144,3.2231823346190476
5.33937402,2.5200109936190476,1.244927949804762,0.15641951701904766,3.0629549812857144
5.344296176,2.441061474047619,1.3004938079761903,0.12432632701904767,2.979978929095238
5.349218404,2.34318628197619,1.3155246170785713,0.17041971144761908,2.9402007711428575
5.35414088,2.238433287238095,1.2878714749785716,0.2692433737428572,2.9192418205238093
5.359063265,2.124186290142857,1.231175710002381,0.4021753214666667,2.8964235922857147
5.363985497,1.985985242185714,1.1609826619880952,0.5469201803380953,2.8575137922380955
5.36890789,1.8464926722271429,1.0856771419357145,0.6967474719190476,2.828674985857143
5.373830123,1.7103389540595237,1.015933571107143,0.8486117578952381,2.8177921098095235
5.378752505,1.568806425114762,0.9565981406309525,0.9858683347904761,2.809015319857143
5.383674416,1.4452003783714287,0.9165882787261905,1.112403812904762,2.821231785857143
5.388596798,1.3180455220899998,0.8915611910119048,1.2345132941904762,2.8378095667142857
5.393519036,1.1926149934614287,0.8823275686785714,1.3608124398857144,2.854004398238095
5.398441419,1.0766942312233334,0.8886666645833333,1.5079463437142857,2.879420302
5.403363651,0.9501261834471428,0.9116151397261903,1.6943094915666668,2.900467311142857
5.408286024,0.8451939490423809,0.9522468994404762,1.9086405394238095,2.929808707238095
5.413208257,0.7665346161280953,1.0079319427738096,2.1254695384714286,2.9693601860000003
5.418130639,0.7187468986995237,1.0767493766309524,2.325209494185714,3.022782393904762
5.423052887,0.7012820906519048,1.1563802340642857,2.485532918185714,3.0991178605238097
5.427975347,0.69869990389,1.2505955675357143,2.6097498649857145,3.194177922047619
5.432897503,0.6985440916995238,1.354216039945238,2.7045791036000004,3.2969904238095236
5.43781988,0.7012855193185714,1.4516796065738096,2.7799801542857145,3.393175730047619
5.442742113,0.6987570902709523,1.5234436556642856,2.8351615894761903,3.460191026619048
5.447664261,0.7093928522709524,1.5816482767214286,2.877263069190476,3.517829615809524
5.452586643,0.71914823379,1.6357960375047618,2.9009094465714287,3.555339647761905
5.457508871,0.7213253757519047,1.6899989900809522,2.916828496190476,3.5845189694761905
5.462431254,0.7112576616376189,1.7556708455809524,2.924649692761905,3.610355936428571
5.46735341,0.6979795185995238,1.8356418936904761,2.9331584544761906,3.646144605285714
5.472275874,0.6907360900428572,1.9280972708857143,2.9353477841428575,3.6856987025238097
5.477198107,0.7013191860057143,2.0244153625714287,2.919687645809524,3.717293112095238
5.48212049,0.7308939946266667,2.1193868888095238,2.8959742614761903,3.749264863761905
5.487042736,0.78691871137,2.2080373197619045,2.87255378,3.788101193571429
5.491965119,0.8714303782228571,2.298626984952381,2.8490067323333332,3.840579911142857
5.496887352,0.9392396151371427,2.387301938952381,2.805487155904762,3.8822632723333337
5.501809721,0.9851411889942857,2.477382359142857,2.7392336754761906,3.911527806761905
5.506731953,1.0274796198657141,2.5667168357142858,2.6593246232857144,3.9373743544761908
5.511654025,1.062785381032381,2.6478961366666667,2.573024579476191,3.9588703082857144
5.516576485,1.089346428375238,2.7187414794761904,2.4853580111904763,3.9760154493809523
5.521498651,1.1012524278038096,2.777498761904762,2.397969387857143,3.985707619
5.526420879,1.10176533428,2.8181848583333338,2.3164242988809525,3.9832626949047616
5.531343341,1.1060288545180952,2.8316577673333336,2.236578637690476,3.9647013130952384
5.536265501,1.12679333028,2.809711053285714,2.1426498755380954,3.92626629
5.541187883,1.1615990936609524,2.7574483894285713,2.0249915854285714,3.8763305066666667
5.546110116,1.2084472828990476,2.6867736265714286,1.8926185334428574,3.834565969
5.55103248,1.2639977559942857,2.5874721975714285,1.7510121968952383,3.8082759040952374
5.555954941,1.3399810844514286,2.4371376293333333,1.5867497658809526,3.8267068820952383
5.560877174,1.4421012738942856,2.205505777,1.3968023877857145,3.908010555952381
5.565799314,1.5798882242942855,1.8556925427619047,1.145959714357143,4.0897087649047625
5.570721697,1.754406699527619,1.3623093735714285,0.8201771882619047,4.39535500052381
5.575643834,1.9600549866142858,0.714024961047619,0.47528509516666667,4.818446775190476
5.580566062,2.178488328438095,-0.10704558514285707,0.12682398945238094,5.379578757
5.585488447,2.3967263756190476,-1.0990685195714287,-0.22793787216666664,6.0793387441428575
5.59041068,2.5929557142380952,-2.2310298197142857,-0.5957625742142857,6.887549175809524
5.595333062,2.764860227047619,-3.474541712333333,-1.023419349642857,7.780285039666666
5.600255218,2.9331080346190475,-4.732108834095238,-1.5029875358809524,8.704075721142857
5.605177678,3.069216308142857,-5.923809156333332,-2.0206618230714284,9.580851220904762
5.610099911,3.122880776714286,-6.969054576952382,-2.5531583321666664,10.329597316095239
5.615022293,3.0945773011,-7.8312883065714285,-3.065274469166667,10.922131503476189
5.619944526,2.9696304457190474,-8.501238394285716,-3.5140298583571425,11.34306807047619
5.624866909,2.7762535469571428,-8.999979964238095,-3.9344210489761906,11.660515584761905
5.629789141,2.5308537312428574,-9.349556392047619,-4.3594057453333335,11.946940217571429
5.634711524,2.241896390909524,-9.577297871904761,-4.789931996238095,12.246331062571429
5.639633671,1.943817734719048,-9.698935439061906,-5.194623199228571,12.54655598590476
5.6445559,1.6947670266714288,-9.742516866604763,-5.606777029357143,12.864513231761904
5.649478288,1.5345836963142858,-9.740237628980953,-5.990589601609524,13.152367359619047
5.654400521,1.4727232711714286,-9.710084392231906,-6.338429019538095,13.406870504380953
5.659322675,1.4614683702190476,-9.624180727812856,-6.603866917714286,13.57613944004762
5.664245068,1.460199699552381,-9.449472352215238,-6.784071070761906,13.627572094666666
5.669167529,1.4411334111714287,-9.162211926277143,-6.858814023714286,13.525854153380951
5.674089762,1.410276506647619,-8.738060948458095,-6.803074405238094,13.245818920095237
5.679012144,1.3760798914095238,-8.155230056791428,-6.7001896471428575,12.839484233333334
5.683934377,1.3159557438857143,-7.3818788416485726,-6.543818689476191,12.280429088142858
5.68885676,1.2495599843142857,-6.421036243600954,-6.3037112581952375,11.59235605947619
5.693778902,1.1897496410761905,-5.305332660934285,-6.003410359195239,10.814570153904763
5.698701361,1.1169215525999998,-4.065726007839048,-5.614212305719048,9.951750871285714
5.7036233,1.0232913182190475,-2.7957349279819046,-5.129774261052381,9.073612624761903
5.708545683,0.8975854232666666,-1.5667782286961904,-4.572131347052381,8.249901984190476
5.71346793,0.7718733810580952,-0.4409186727438095,-4.00469788762381,7.57795391995238
5.718390312,0.6885171879104762,0.5366111482085715,-3.457257517719048,7.099889796428572
5.723312545,0.677685184767619,1.3401468138276191,-2.9825183181000003,6.813850979523809
5.728234933,0.714858563767619,1.984674339922857,-2.560909032766667,6.642414858380953
5.733157166,0.7800849029580952,2.486984150494286,-2.189028957014286,6.509390344238095
5.738079319,0.8696849096723809,2.8399146168276195,-1.828940231109524,6.3400625620952376
5.743001779,0.9874177127199999,3.0659488564609525,-1.4757195526190476,6.128171377714286
5.747924164,1.0717547087676191,3.2086966148609526,-1.0798268161619047,5.860318093
5.752846396,1.074369374367619,3.313431854475238,-0.7045321961047619,5.591221653857143
5.757768789,0.9616284206057143,3.4216860411071433,-0.39268268143809526,5.351684287761905
5.762691022,0.7561109015104762,3.5278215201642857,-0.1810059702952381,5.192210279238095
5.7676132,0.4986849120819048,3.6172516614714283,-0.07158972386666666,5.125386777666667
5.772535582,0.21148282632,3.6986538539619054,-0.04243290277142855,5.14010109847619
5.777457805,-0.1088201710133333,3.7653311859047625,-0.0959415251047619,5.2193519982380945
5.782380188,-0.4734832156323809,3.8075430449047625,-0.1939466269142857,5.310475691190477
5.787302421,-0.8486702720133333,3.8088985680476193,-0.34154443939047613,5.406827178666667
5.792224588,-1.2322234590609522,3.764728568761905,-0.5562446245285714,5.4670611489047625
5.797146971,-1.607598264441905,3.6736817586190478,-0.8191060069095237,5.472379614333334
5.802069204,-1.941245027394286,3.527866996376191,-1.0967335318142857,5.423976907761904
5.806991586,-2.2163888323942857,3.3399458917047617,-1.3741993861476192,5.331658470095238
5.811914048,-2.387790594203809,3.1157525676128572,-1.5663824833380953,5.148529723047619
5.816836281,-2.473410118138095,2.851579149350952,-1.791729389195238,4.988551360714286
5.821758658,-2.5238686401857144,2.565947333765238,-2.0633571445761905,4.858109251285715
5.826680891,-2.540612544280952,2.273310133208095,-2.2884066175761903,4.691385648761905
5.831603045,-2.510657259328571,1.9782689836509524,-2.4294280026714286,4.470082249095238
5.836525199,-2.4505581628047617,1.695802552174762,-2.4844569052809526,4.230131413952381
5.841447663,-2.3877900157095238,1.4722853698414284,-2.5102620465190477,4.0349523680952375
5.846369819,-2.363748590090476,1.3138054636033334,-2.539515234152381,3.9104567697142856
5.851292202,-2.364814497090476,1.214754039174762,-2.5802407122761903,3.8437375942857144
5.856214435,-2.379594496238095,1.168006133317619,-2.6057466154761904,3.8189476592380953
5.861136817,-2.379712780238095,1.15358123027,-2.570276092895238,3.7954266323333337
5.86605905,-2.324019403604762,1.1619297065557144,-2.4965673344476196,3.7434215724761906
5.870981515,-2.212188646833334,1.1941228564128572,-2.3893427621952377,3.663992245380952
5.875903901,-2.0592557467809525,1.2371623826985714,-2.260207863104762,3.5580834185238097
5.880826055,-1.8772992247933336,1.2910174839366666,-2.1181591437095237,3.4359907651428574
5.885748286,-1.667140565907619,1.35214457327,-1.9642589943857143,3.3017058769523806
5.890670669,-1.4361251334790477,1.422863906222381,-1.7991554197761903,3.1685442891904763
5.895592833,-1.1830844734790478,1.5012385247938096,-1.616100948187619,3.0468918822857143
5.900515062,-0.9033998617171429,1.573278390079524,-1.3506019978066668,2.96550724047619
5.905437447,-0.6018212831933334,1.6463892004176193,-1.0700601350447618,2.953478034666667
5.91035968,-0.30047062152666665,1.710669438612857,-0.8190392834733332,2.985895955333333
5.915282062,-0.024109672669523838,1.7560257727571429,-0.6776882364733333,3.104959125238095
5.920204286,0.2450851857590476,1.766935200957143,-0.4744948557590476,3.1723891914761904
5.925126669,0.5223431845209523,1.7350622955238095,-0.19530180637809524,3.185557799666667
5.930048901,0.7989577086161904,1.665416056242857,0.07037780281238099,3.2377007386190475
5.934971055,1.068002329282857,1.5614806300380952,0.28982104457428576,3.370143934761905
5.939893515,1.3451283747114284,1.4234426277523808,0.4772173324790477,3.5530007847619047
5.944815899,1.6424135057590474,1.2426791021333332,0.6383416186695239,3.748128465380952
5.949738132,1.9513904227590477,1.0110335747523809,0.7650573298600001,3.951336833
5.954660286,2.2633669407114287,0.7268436749904761,0.8514970926742856,4.176323073142857
5.959582664,2.569587035092381,0.4009360529428571,0.890286328064762,4.413340272761904
5.964505125,2.8626533777590475,0.05808825156190476,0.870246996717143,4.645893817476191
5.969427348,3.1084258076495237,-0.2815548408190476,0.829894666412381,4.8462665552380955
5.974349502,3.2863872365923807,-0.5986817507238096,0.7871634267314287,4.977059720571428
5.979271685,3.458055282873333,-0.9071707101047618,0.7933316644838095,5.0765648143333335
5.984194144,3.630170423409524,-1.2108300924380953,0.8362866157447619,5.162040396857143
5.989116529,3.776498664047619,-1.4985159976285714,0.878292520294143,5.215708217095238
5.994038762,3.8700836216190475,-1.7645709458190477,0.8988024728846191,5.220259518
5.998961144,3.905836241619048,-1.9942903235333334,0.8919575681674763,5.183808306428571
6.003883377,3.8836780559523807,-2.166636234247619,0.8336712362103333,5.102592650714286
6.008805545,3.8351175728095237,-2.2848715200285716,0.7927304292579526,5.018396674095238
6.013727928,3.7764992884285715,-2.3498563773666667,0.8167682445436666,4.975262923380952
6.018650389,3.7071824357619043,-2.377575330090476,0.9007924297817619,4.973581128952381
6.023572305,3.6312201988095234,-2.374326664076191,0.986370144781762,4.979217973047619
6.028494688,3.53994144147619,-2.3475975216952385,1.0252796141150953,4.9427110347619045
6.033417144,3.4159987767619047,-2.3076288545890478,1.0087427652579524,4.839192061095239
6.0383393,3.239186059847619,-2.2611910461319047,0.9526291474960477,4.666136196047619
6.043261531,3.012032821367619,-2.215826280274762,0.8718616663865238,4.4595881036666665
6.048183937,2.752061069324762,-2.1762564709414285,0.7887508080960478,4.268215934666666
6.053106169,2.474990297262857,-2.1174968042747615,0.7151799520627142,4.082438221714286
6.058028552,2.166026544310476,-2.0473729047509526,0.6656722376103333,3.9075924367619046
6.062950791,1.8323857361676192,-1.9777580402271429,0.649501049029381,3.755039279333334
6.067873173,1.476726398881905,-1.9222163886557144,0.6565163340674762,3.6438893135238097
6.072795406,1.1052547781200002,-1.9069040575604763,0.6691171874008096,3.6053400719047617
6.077717774,0.7296681095009525,-1.95932029137,0.6612235683055715,3.6806902267619046
6.08263993,0.2872082083104763,-2.056570582655714,0.5728579538912858,3.843871156047619
6.087562145,-0.25105859807047615,-2.180877159227143,0.3583098162350953,4.1159662367619045
6.0924843,-0.860944937784762,-2.3206470539890476,0.044275485361904836,4.5195464609047615
6.09740675,-1.5003318073561904,-2.4460433397033334,-0.29923864769523806,5.023877472619048
6.102328906,-2.1363290913085713,-2.537139059703333,-0.6312437433285714,5.567837148571429
6.107251274,-2.7354404382609525,-2.5976708689414285,-0.9520046065142858,6.079630404333334
6.112173736,-3.297380063737143,-2.6487017730176188,-1.2517859971333334,6.467276657857143
6.117095892,-3.78812354188,-2.7139930563938095,-1.535831000847619,6.692308400333334
6.122018128,-4.199904932403809,-2.8001911053414283,-1.8229669424666666,6.794241280666666
6.126940587,-4.531503702451428,-2.9182541493414282,-2.089659132371428,6.842162285476191
6.131862972,-4.784547513022856,-3.069881955322381,-2.3144596566571427,6.895695733809524
6.136785205,-4.961911232260952,-3.244127188495238,-2.4914171844666666,6.996384084857143
6.141707587,-5.071689994108572,-3.4261122942857143,-2.6259346611333334,7.153311554380952
6.146629521,-5.1223061849619045,-3.6013544458095237,-2.7199597535952384,7.332233608571429
6.151551904,-5.132499708866667,-3.7553918759999996,-2.7768529908761908,7.490335719476191
6.156474137,-5.120724947533334,-3.899988816,-2.7963889922190477,7.633274392333332
6.161396519,-5.0765878067,-4.016455043000001,-2.791021849404762,7.7384309695714295
6.166318752,-5.0071579024999995,-4.091637617142857,-2.7718988507761906,7.792577265285714
6.171241135,-4.907365336871429,-4.116653130238095,-2.7376591367866667,7.7803049540952385
6.176163373,-4.781221478319047,-4.078321757857142,-2.681374754221429,7.685443787857143
6.181085755,-4.632419669080953,-3.966538139809524,-2.5964873234309525,7.499126878095237
6.186007988,-4.457713334890476,-3.784063225714285,-2.4686956135833333,7.230016398809524
6.190930371,-4.233293672938095,-3.551614698904762,-2.2431261908309525,6.870678028571429
6.195852832,-3.94628161817619,-3.295616369847619,-1.9162740508642857,6.421106118095238
6.200774988,-3.6094245604619046,-3.0562037052028574,-1.557990965745238,5.9321947227619045
6.205697219,-3.2559353205095234,-2.864510796602857,-1.2130692512428571,5.459620781428571
6.210619373,-2.9306816976523806,-2.7199667003838095,-0.9138467691204761,5.048986552
6.215541755,-2.66217107217619,-2.6002447966742857,-0.6898503335161904,4.7275589490000005
6.220463973,-2.4764069751761904,-2.483858229864762,-0.5490768569352381,4.5150306162380955
6.225386356,-2.3609843970809523,-2.35680851696,-0.4665179099971428,4.384584438809524
6.230308617,-2.302438909842857,-2.199484662626667,-0.4169221453066666,4.307974284047619
6.235230771,-2.2985944783666667,-1.9968592857695235,-0.37577923883047615,4.259670542714286
6.240153231,-2.3247749500809523,-1.7511665785314283,-0.3339297618828571,4.19916546
6.245075397,-2.3599105655571426,-1.4658343756266667,-0.2881689060923809,4.103581399190476
6.249997779,-2.4154028985571427,-1.152968652864762,-0.23936647921142853,3.985991157619048
6.254920318,-2.4833165642285713,-0.8181861262457142,-0.18569771803523805,3.8520701640952373
6.259842474,-2.5503605157857145,-0.46971675538857144,-0.13258333645904757,3.705009387238095
6.264764856,-2.6174089895238093,-0.11965633786476189,-0.08583409800190471,3.5580078210952384
6.269687089,-2.672911417009524,0.22271089680190476,-0.04651876432095233,3.4258134888571425
6.274609227,-2.7110458443047616,0.5437583731352381,-0.01813614403428566,3.3244210963809526
6.27953161,-2.7254405136190476,0.83754975804,-0.010715191556666614,3.268201425
6.284453833,-2.695453655238095,1.0996334247066666,-0.023130001047142808,3.2537492364761906
6.289376216,-2.606738896690476,1.3288564773257143,-0.06504395177571423,3.265611138904762
6.294298372,-2.4702868451923807,1.5324921869447619,-0.12436923667571423,3.276700837190476
6.299220601,-2.3104958967833333,1.7178564773161906,-0.20342352416619044,3.289393554571429
6.304143062,-2.141831518002381,1.8885173768142856,-0.2878018088566667,3.300196912
6.309065466,-1.9705251874785712,2.0449649917380954,-0.3831435204066666,3.305980299333334
6.313987699,-1.7964063195214284,2.1899860840428573,-0.49621847162428573,3.317232914142857
6.318909852,-1.6247615055785714,2.3227335610476194,-0.6312650452285714,3.349216469904762
6.323832326,-1.4548362203261904,2.4411425589047617,-0.7832859069523809,3.4004206173333333
6.328754482,-1.2841899324585715,2.5504356508095234,-0.9442440466047618,3.466657290952381
6.333676864,-1.0997727953728569,2.641250315047619,-1.1041422766285713,3.532250517857143
6.338599011,-0.8960039431490475,2.7014968393809524,-1.2494174663904762,3.577797144428571
6.34352124,-0.702826515577619,2.7308514117142857,-1.370404802242857,3.6037218204761903
6.348443625,-0.5438299023014285,2.7259479306190477,-1.4247988515571428,3.5764190739999995
6.353365857,-0.3997449491823809,2.683052693004762,-1.3583631398190477,3.5208490726190473
6.358288244,-0.2548028528490475,2.596786885647619,-1.1192877526619047,3.6438359422380957
6.363210477,-0.10137209013476182,2.476405888004762,-0.7791924696238094,3.888397004666667
6.36813286,0.07449862362714295,2.3410238885285715,-0.4601366668761905,4.129423996142857
6.37305503,0.2645594321985715,2.2096522229809525,-0.23966089670952376,4.288380758904762
6.377977259,0.4619322831033334,2.093374316847619,-0.09834999482857139,4.383373243666666
6.382899721,0.6641109941033334,1.987873365457143,-0.0019469452523809114,4.439558428238095
6.387822105,0.8568383271509525,1.8920572186809523,0.07356205444761908,4.479545896952381
6.392744338,1.0336878967461904,1.8060397860142858,0.14456600522380955,4.510437278047619
6.397666721,1.2033316611052383,1.7271774538238096,0.22035838596666674,4.535065255904762
6.40258893,1.371704847410476,1.6526991170619045,0.2990292452904762,4.546492267380952
6.407511083,1.5432898935342858,1.575272456442857,0.3814054347971429,4.5416909265714285
6.412433451,1.7179026043914287,1.502048979157143,0.4757174321147619,4.527639892523809
6.417355684,1.8868018935771431,1.4308559766333335,0.5892331930304762,4.500114669857143
6.422278066,2.0439897059676193,1.3547611675857143,0.7261226239290477,4.446506477047619
6.427200222,2.1836187478104763,1.275828076204762,0.8777393917052382,4.365245073380952
6.432122451,2.305397842657143,1.1949912237761904,1.0338751012004763,4.262433629761905
6.437044822,2.3840200333809527,1.1171629867761905,1.1803929512957143,4.144508499857143
6.441967283,2.4257425553,1.052367748157143,1.306601426962381,4.037539211904762
6.446889439,2.4299694612523814,0.9926978447904763,1.401456570867143,3.9377571791428574
6.451811899,2.405075033566667,0.9330584661047618,1.4205746187719048,3.8864444894761903
6.456734054,2.3801870800809524,0.8901620364095237,1.311740476962381,3.86695709947619
6.461656514,2.343420458733333,0.8813511791857144,1.0254102794290478,3.663443889885714
6.466578655,2.272387075688571,0.9044447972857144,0.6474565684004763,3.3235042366238097
6.471500886,2.1761519311433335,0.9420894163238094,0.3024700984457144,2.976289107142857
6.476423279,2.056295930470095,0.9793622258404762,0.07631170943142862,2.7201592199285716
6.481345512,1.9142414599605715,1.0043461300309524,-0.03396567085428566,2.5618156549761903
6.48626768,1.7433316549939049,1.018900463859524,-0.047786863997142805,2.478474127738095
6.491190063,1.558386846489143,1.0313939890928572,0.010686660574285753,2.4437334619285713
6.496112295,1.358650943879619,1.042829656807143,0.12782689410761908,2.441170233738095
6.501034773,1.1630247985415239,1.0593017523785715,0.276635231512381,2.4576232151666666
6.505956929,0.9584014683462857,1.0828196505214287,0.45229532514095244,2.492450516261905
6.510879311,0.7853362785272382,1.1236252173785712,0.6477569343009524,2.5475370832619046
6.515801554,0.624892091984381,1.1774850756642856,0.849148024554762,2.6205861411190474
6.520723937,0.48824380249390487,1.2448231336166666,1.0439073047342857,2.7033323777857143
6.52564617,0.38623770485104764,1.3220208897119048,1.2321491198357142,2.7922114644047618
6.530568309,0.32532880827961913,1.4061077052357143,1.4189319780595238,2.8892784285
6.535490692,0.3062633827558096,1.4887617499976191,1.608335554564286,2.9912763271666667
6.540413154,0.3368345255653334,1.5670165632357143,1.7982473571833333,3.104837500404762
6.545335313,0.39470929027961915,1.6425421819500001,1.980732358611905,3.223514487547619
6.550257544,0.4865512888510477,1.7268830835547617,2.1602117362309525,3.3640947730238095
6.555179927,0.6100649533558096,1.8310954116214286,2.338690068040476,3.5221906541190475
6.560102175,0.7243534821034286,1.9405543690261906,2.5154373504214287,3.670295803976191
6.565024329,0.8228966676891429,2.0395897016071425,2.6877553520023807,3.8150820958047613
6.569946701,0.9193251432577144,2.1257489848166666,2.849035825078571,3.973644838685714
6.574869163,0.9983036645648572,2.203741747635714,2.9987597267,4.141694708785714
6.579791395,1.0629834241428573,2.272447986190476,3.121738059190476,4.291549680095238
6.584713549,1.1157335667000001,2.336365035514286,3.2052738666666665,4.398812473095238
6.589635932,1.1665090435666667,2.398874844742857,3.243532964142857,4.459367132095238
6.594558165,1.2065101386142858,2.4534145536190475,3.2418168158571428,4.481990002809524
6.599480542,1.2505616140857145,2.506115884904762,3.2034921532380953,4.476474375714285
6.604402775,1.2870300426047618,2.5535077422857144,3.138807864380953,4.453489296619047
6.609324944,1.3401618528619048,2.5937337476666666,3.0558786732380954,4.417039463333333
6.614247327,1.375581234661905,2.6277693281904764,2.959726923952381,4.376065062571429
6.619169578,1.4110910913476193,2.6571391365714283,2.8558931690952383,4.3316448727142856
6.624092038,1.432057281304762,2.6796712817619044,2.746421365476191,4.285215663333334
6.629014423,1.422912044157143,2.705886573904762,2.631155837142857,4.243255520238096
6.633936578,1.3759841365285714,2.742682666904762,2.5124008371428572,4.209747823095238
6.638858809,1.2868836103428571,2.793751631333333,2.3952760724571425,4.183470452857144
6.643781192,1.1612440868748097,2.8648447705714286,2.2895446476380954,4.167549152142857
6.648703439,1.0161325625752857,2.949673783142857,2.1981059795142857,4.157728142333333
6.653625821,0.8681121335595715,3.032317553190476,2.1183266043571427,4.140813623952381
6.658547977,0.7350181364452858,3.096688276190476,2.042751036914286,4.106713675523809
6.663470201,0.628045703188143,3.1348993720952376,1.9713258998190477,4.0521740392380945
6.668392586,0.5517255176167144,3.1313073237619045,1.8941120448190478,3.9644167913333335
6.673314804,0.5071147107595715,3.0676160880333327,1.7856519988190478,3.8400073720952386
6.678237187,0.5071712386643334,2.923422370652381,1.633585192590476,3.7720425127142856
6.68315942,0.5638049098071904,2.6692564147,1.422170100447619,3.833309512095238
6.688081802,0.6964220484738571,2.262363132985714,1.096942533304762,4.090984571761904
6.693003958,0.9117662816214763,1.6732742729857144,0.7125973311142858,4.542720177619048
6.697926187,1.2145528127929048,0.8826396635095238,0.3394169076380953,5.177704398904762
6.702848649,1.5973044720738572,-0.1396017698238095,-0.015417626266666614,6.019104452095239
6.707771033,2.0194185924167143,-1.3771120196333333,-0.38315176331428563,7.049064638142857
6.712693266,2.450594690021476,-2.7744404873,-0.8101281829333333,8.221114066714286
6.717615644,2.8399685218500474,-4.231305548395238,-1.2909837500285715,9.422361566809524
6.722537799,3.14959305470719,-5.655507014252381,-1.8272696159333335,10.564362244476191
6.727459934,3.4257400654786188,-6.9413633745857135,-2.360778569504762,11.562006832571429
6.732382394,3.595298740983381,-8.007016222014286,-2.889402502409524,12.334864090523812
6.73730455,3.6873490790405237,-8.866206367919048,-3.3969551375047624,12.90526525290476
6.74222678,3.6886576500548096,-9.551102519109524,-3.8822212979142856,13.320747347047622
6.747149163,3.6226248427133334,-10.097054861919046,-4.329576142571429,13.617960912285712
6.752071396,3.4563901766795238,-10.508823014538095,-4.769301745923809,13.867492340809523
6.756993779,3.2785341313142857,-10.811866118919047,-5.210896153576191,14.102666428619049
6.761916011,3.108435751333333,-11.014021456352381,-5.65341218527619,14.346635862666668
6.766838457,2.936865893066667,-11.121753653014286,-6.088981295657143,14.610540527333333
6.771760613,2.806758368209524,-11.15817712900476,-6.494548396752381,14.875882563238095
6.776682995,2.7465127471238096,-11.137746368280952,-6.850583441942858,15.142510072000002
6.781605204,2.7359315546,-11.056113080764286,-7.136974828619047,15.32995948052381
6.786527358,2.7286344587904763,-10.87989626840238,-7.347895985571429,15.397092737904762
6.791449722,2.6938480300761904,-10.552418750088096,-7.416437807523811,15.267705659333334
6.796371954,2.608773457742857,-10.043397413983334,-7.389578024523809,14.929800247047618
6.801294332,2.4615432072666668,-9.332997895511905,-7.301982266523809,14.363542035999998
6.806216565,2.242689358933333,-8.400795559292858,-7.183566831333333,13.56327713509524
6.811138947,1.9861611857904764,-7.248254211292856,-7.013190978952381,12.555186290571427
6.816061175,1.6999739003619048,-5.9207632172928575,-6.70837008092381,11.376473779380952
6.820983558,1.4248804470761904,-4.517633832483334,-6.277625801923809,10.16196060395238
6.825905714,1.1981342058380953,-3.126933934959524,-5.743466266447619,9.019714514666665
6.830828168,0.9595842921714286,-1.8502797257214287,-5.182630643828572,8.035266155428571
6.835750401,0.7693161871952382,-0.7571413941023809,-4.611630283542857,7.302401077285715
6.840672784,0.6168681347619047,0.15512245318333337,-4.0539016523999996,6.79961825052381
6.845595011,0.5282782295047619,0.9157299682309524,-3.513602827161905,6.480491316238096
6.850517165,0.47717470002857143,1.5553189827071427,-3.0151625501142854,6.305968119095238
6.855439529,0.5105682192666666,2.057239353564286,-2.5453925670666666,6.178528883190476
6.860361762,0.5707350209809524,2.4270872075642855,-2.1001456350333334,6.034095571047619
6.865283911,0.6402957361238096,2.6852805840928573,-1.664745319357143,5.860401439809523
6.87020637,0.7109426408857142,2.8529473854690472,-1.2511419255285716,5.663160486428572
6.875128755,0.7308492639333334,2.9768855741261904,-0.90106620803,5.480386493238095
6.880051003,0.6621015497809525,3.0974502420833327,-0.6219623527633333,5.330337215
6.884973385,0.5085323112571428,3.2306179084238087,-0.42550644266809523,5.216901276428571
