Time (s),Linear Acceleration x (m/s^2),Linear Acceleration y (m/s^2),Linear Acceleration z (m/s^2),Absolute acceleration (m/s^2)
0.122549704,2.91465537347619,2.184689840914286,1.444049477509524,4.682992657952381
0.127471933,2.9769287055238096,2.217952843057143,1.059126859557143,4.811440847142857
0.132394012,3.0468667634761903,2.2588939906285717,0.6695719048428573,4.950736312619047
0.137316232,3.156301515714286,2.2995893740571427,0.29241476165238106,5.105341433428571
0.142238388,3.292755518904762,2.3614452352,-0.06325257968095223,5.274079349380952
0.147160537,3.4450778452857143,2.412413950342857,-0.3934560901571428,5.435639185809524
0.152082919,3.5931316162380953,2.4687907595333334,-0.7241003798238094,5.596646195238096
0.157005075,3.755706940619047,2.535554137866667,-1.0837316230142855,5.788108073857143
0.1619272,3.985797456571428,2.5961083243904763,-1.506567858585714,6.061773991190476
0.166849354,4.270900675428571,2.675231651104762,-1.942553673538095,6.390456245666666
0.171771277,4.5679854497142856,2.757246177771429,-2.3435305811571427,6.711257825380952
0.17669366,4.881042543095238,2.833777792342857,-2.6752817687761903,7.013071079857143
0.18161577,5.210912006428571,2.909711646152381,-2.9275850965857138,7.305288118619048
0.186537999,5.5501655341904765,2.986434688152381,-3.0995108087809524,7.594246530714285
0.191460045,5.8998319593333335,3.052711158961905,-3.2404461389428567,7.887820369000001
0.196382197,6.259618367809524,3.1171448698666664,-3.3926492304952376,8.19049944347619
0.201304351,6.620599094380951,3.1985831047714286,-3.5813760360190474,8.502754047
0.206226562,6.996659370190476,3.460410143619048,-3.643864654385714,8.946102385809523
0.211148718,7.306697437238096,3.7236363376666666,-3.6493218001952386,9.321737814190476
0.216070862,7.600644270857144,3.9639765648095238,-3.5409768535857142,9.643640987523808
0.220993245,7.867883660047619,4.190266892952382,-3.380125193347619,9.915076071238095
0.225915401,8.145218009380953,4.395116669761904,-3.2863270441571433,10.190081364095239
0.23083754,8.519747734380953,4.569620666,-3.383944034585714,10.581050882238095
0.235759463,8.954026608714285,4.707604794238096,-3.8177351495857144,11.203101209333333
0.240681601,9.362641107809523,4.840935843333334,-4.525854178490476,12.014676735380952
0.245603985,9.691339493095239,4.927991787571429,-5.259445825919048,12.781307242476188
0.250526141,9.911433946619047,5.016512643714286,-5.7132623080142855,13.259265913380952
0.255448295,10.032411711666665,5.051013265333333,-6.058675811395238,13.581547800333334
0.260370449,10.023433299380953,5.033416555047619,-6.37303910934762,13.80091000285714
0.265292678,9.874367305285714,4.971711942142857,-6.42737434025238,13.725176301095237
0.270214757,9.627963281904762,4.829304950619048,-6.398054281871429,13.50070663390476
0.275136985,9.423037358761905,4.612797995433334,-6.555985814061906,13.439325358666668
0.280059155,9.20389989452381,4.415055905109524,-6.898496287109524,13.501712919142857
0.284981309,9.053896960809524,4.228981003902381,-7.343095620442858,13.63159121390476
0.289903692,8.934042624095238,4.049861961916666,-7.765524333390477,13.700482418190477
0.294825867,8.791941018380951,3.8950061571547616,-8.099870718609523,13.667643988190475
0.29974779,8.593859570190476,3.745003876307143,-8.351390094914287,13.543391606333333
0.304670201,8.34815364757143,3.559869022654762,-8.511428049533333,13.337490182857142
0.309592126,8.116380271095238,3.3013997937309525,-8.622971324580952,13.114440045142855
0.314514264,7.859032062857143,2.9863310776309526,-8.68372470415238,12.819808867761905
0.319436649,7.534924938380951,2.6465140418833335,-8.727884797714285,12.428548351761906
0.324358805,7.180432069476191,2.266320720407143,-8.683616843147618,11.963389730666666
0.329280959,6.786008573476191,1.8778522334642855,-8.416969368052381,11.502956493761904
0.334203112,6.291564186190477,1.5391687120119049,-7.829852990338096,11.014734966190478
0.33912528,5.711907971047618,1.2254516745785715,-6.8785303895285725,10.303004049666665
0.344047509,5.116176866047619,0.8988363381642858,-5.695065544671429,9.35917819804762
0.348969665,4.553266763419048,0.5849522445452381,-4.567668461480952,8.387393110476191
0.353891814,4.048802889625714,0.2630120041166667,-3.799507607290476,7.665292521047619
0.358813968,3.735449067292381,-0.0626974750738095,-3.072547901719047,7.200255874238095
0.363736122,3.583680632673333,-0.35426956902619045,-2.319432111528571,6.852467603619048
0.36865828,3.502145974530476,-0.5848307119309524,-1.8015927819095237,6.683273204428572
0.373580434,3.4501139239114282,-0.7087016637404763,-1.4321894537190476,6.528935287952381
0.378502593,3.349495357149524,-0.7027355680404762,-1.0294960586190474,6.175017565238095
0.383424747,3.243190825149523,-0.6479518547880951,-0.551818157190476,5.7327588371904765
0.38834713,3.0339943938638094,-0.5629701890571429,-0.025748445071428393,5.230326137523809
0.393269285,2.7701367737685714,-0.4559249473095238,0.3239544126904764,4.835548512333334
0.398191439,2.4980614782923807,-0.3485168466428571,0.5435477445952382,4.545917892380952
0.403113593,2.2443852341257142,-0.2347788945095238,0.6481912143571431,4.367700174142858
0.408035822,1.9959600981266665,-0.10292817504761902,0.6309374521666669,4.312152352761905
0.412957978,1.7672816758314287,0.047991011876190495,0.5477539138333336,4.344977245190476
0.417880132,1.5619201960457143,0.21799172964285715,0.34885983316666686,4.496829165666666
0.422802281,1.3953809101742858,0.3981427267238095,0.033407331261905,4.748179530571429
0.427724663,1.3233258598885715,0.5772858234380953,-0.3556000376857141,5.039541227666667
0.432646814,1.359120288269524,0.7385505438571428,-0.810734758685714,5.247308460428572
0.437568737,1.5177044231742858,0.8689896848333334,-1.214038472733333,5.3018924695714285
0.442490908,1.5892318929361906,1.0001660671238095,-1.7886860583047615,5.386284322571429
0.447413062,1.6412634610314285,1.1415079264904762,-2.2977598153047616,5.456376950428572
0.452335446,1.7305596543742856,1.3147237414904762,-2.6896577661619046,5.551552075476191
0.457257617,1.8716991813580954,1.5484100751095238,-2.9581107624952376,5.677070503047619
0.462179846,1.8996276131676193,1.8957107408238094,-3.267159857923809,5.720674370380952
0.467101925,1.87136432812,2.2962176459666663,-3.603802622780952,5.753538099047619
0.472024144,1.8630616508342859,2.7408373129190475,-3.9541891969714285,5.894773905761904
0.4769463,1.9005539828342857,3.183501975919048,-4.273518470114285,6.182546845380952
0.481868453,1.9302126977390477,3.595713709119048,-4.535197130309523,6.567943636190476
0.486790597,1.9598440285485712,3.9496065549047623,-4.824693949452381,6.979209782809524
0.491712674,1.9950346448819047,4.3076526665238095,-5.198186034238095,7.460463866761904
0.496634826,2.0333656483104763,4.691898402619048,-5.511020569571428,7.945583187666666
0.501557057,2.0439966986914286,5.091538735666667,-5.778894958047619,8.417718674761906
0.506479213,2.0357249363866665,5.4201444442857145,-5.913236186619048,8.755287538190478
0.511401367,2.004489841804762,5.724252280571428,-5.8941236223809526,8.979102934952381
0.516323521,1.919918221957143,5.904776913619047,-5.580623808404762,9.001455481285713
0.521245679,1.8203864578857145,6.024206104571428,-5.144361200833333,8.922623495
0.526168062,1.766300314804762,6.060935054333333,-4.507516406880952,8.795368958238095
0.531089987,1.687375363695238,5.966800763333333,-3.941836232309524,8.543500388142856
0.536012356,1.5903370833238093,5.862563377171429,-3.3842908428809526,8.402912190571428
0.540934512,1.4588944683714287,5.698487616552381,-3.0882602760714284,8.27104581004762
0.54585674,1.5150977541809525,5.558744186290475,-2.743030267195238,8.106019160761903
0.550778872,1.606446288752381,5.484625943933334,-2.5136514647619044,7.997927983857143
0.555700949,1.7309959614666668,5.277054749647619,-2.47501713047619,8.036803965095238
0.560623105,1.9299577189428572,5.055117371409524,-2.526030509333333,8.171934198857143
0.565545259,2.092616523895238,4.893570516647618,-2.5835576995238094,8.22741529695238
0.570467495,2.238243375371429,4.636504561971428,-2.704838233428571,8.261228814333334
0.57538965,2.4167120001333338,4.308419702616667,-2.754958144333333,8.246806408666666
0.580311804,2.5151913732285713,4.02109213490238,-2.75026368247619,8.132886842619047
0.585233964,2.547120945657143,3.7661632054261904,-2.6987692203333333,7.9502379633333335
0.590156118,2.516555899561905,3.568917652997619,-2.5947318219523807,7.73820051357143
0.595078272,2.4397264718,3.2783169217119044,-2.398558313,7.3879826993333335
0.60000066,2.4019458519904764,2.776070039345857,-2.120234299333333,6.888161702380953
0.604922815,2.424581805752381,2.2493165112363336,-1.8344165739999998,6.368283948476191
0.609845044,2.4429645650809526,1.8250830406029996,-1.644732727952381,5.938373062904763
0.614767195,2.526096752614286,1.4353404845553808,-1.546420770095238,5.579801231428571
0.619689272,2.705312847995238,1.1674716194601427,-1.6946206803095234,5.386799504095238
0.624611438,2.9284142311380954,0.9610760444601427,-1.8905857773571424,5.238492427857143
0.629533592,3.110381279566667,0.8392764278887141,-2.2602459277857143,5.125116081857143
0.634455822,3.2662234645809525,0.861964623698238,-2.601601069928571,5.183031450333333
0.639377978,3.373774846285715,0.9483119084791903,-3.0500831292142854,5.233202689190476
0.644300132,3.4181982334761907,1.152528627145857,-3.427724080452381,5.382829715285713
0.649222209,3.3676790055238093,1.3540880117887144,-3.718299513804762,5.530274770285715
0.654144438,3.3109563304761904,1.4932949236220476,-3.9153485071428573,5.65293997052381
0.659066594,3.226262228809524,1.7563423065268093,-3.955032178380952,5.661122716857143
0.663988991,3.042888085047619,2.0057238203363332,-3.9555066540476185,5.581742077047619
0.668911147,2.9036200840952384,2.1386440514791905,-3.9632890905714286,5.550291811809524
0.673833301,2.784641515619048,2.314179957393476,-3.8946797507142854,5.490578658666667
0.67875551,2.6281660397619047,2.518433953367286,-3.8406208356190477,5.416806031285715
0.683677589,2.547422091142857,2.632420178700619,-3.8054008257142855,5.391324338714286
0.688599722,2.5472042787619045,2.566920895700619,-3.7639612016666666,5.338503395285715
0.693521876,2.5451519035238097,2.408387745443476,-3.655246303238095,5.183273143571428
0.698444024,2.5937348604285715,2.3320981257291904,-3.5431669667142853,5.081058209857143
0.703366178,2.618563901809524,2.425350413047619,-3.5075532595714285,5.094594679761904
0.708288332,2.6329248973333335,2.5144225557285713,-3.498579780285714,5.126653675571428
0.713210558,2.6995658477142856,2.5613825065523805,-3.473988493333333,5.169686971190476
0.718132714,2.7687342734285716,2.6024317939809523,-3.4427097752380953,5.208037743857143
0.723054868,2.8221530403333333,2.6472153124095237,-3.4109669129523805,5.240110391
0.72797725,2.8614298048571425,2.6868973544571424,-3.3983562390476187,5.275028112952381
0.732899406,2.9044249966190474,2.7176053041238095,-3.3783824728095233,5.303389529571429
0.737821565,2.9617948078095235,2.7426000577904763,-3.3258166597142855,5.32023934047619
0.742743719,3.035024484,2.7393787275999997,-3.228596034523809,5.310589836380952
0.747665873,3.1174722512380955,2.7242779192190474,-3.1246136994761904,5.288511058190476
0.752588022,3.229169141666666,2.704624769219047,-3.04333412647619,5.289586524809524
0.757510175,3.294782718,2.6844768098380953,-3.0080828496190475,5.290309807714285
0.762432329,3.324628625571429,2.6389629074571426,-2.965416891238095,5.257369319428571
0.767354549,3.3749703792857146,2.5673861077904765,-2.929186134142857,5.228821842
0.772276705,3.4749251547142856,2.479591349742857,-2.9141417969047616,5.23728373304762
0.777198859,3.610202630333333,2.373376014695238,-2.922011801190476,5.281481450285714
0.782120955,3.747355529238096,2.2764218733619046,-2.9164995636666666,5.322881840619048
0.787043183,3.851473717476191,2.2333219363619046,-2.948692997333333,5.386602340285714
0.791965568,3.9547338145238093,2.192645177957143,-2.9712193296190472,5.470372584285714
0.796887713,4.136127846571429,2.1590007976428573,-2.9874964725714284,5.619673000285714
0.801809867,4.324530465238095,2.0569326089999995,-3.031745848238095,5.782792617047619
0.806732021,4.500667515238096,1.9104934143333334,-3.053225840857143,5.921503538
0.811654156,4.6730743703333335,1.7511406519523807,-3.0848264580952383,6.065674717
0.816576309,4.8235950810476185,1.6037009847619044,-3.102135794523809,6.18506383547619
0.821498232,4.96182256652381,1.4479606499047617,-3.098091273095238,6.285958026714285
0.826420615,5.098790316333334,1.2796590335238094,-3.0902326560952376,6.385315926380953
0.831342756,5.236734254,1.1058107508095236,-3.0731956107142855,6.48209410947619
0.83626491,5.398500306238096,0.9328484712857141,-3.0115626596190475,6.596355062666667
0.841187064,5.501629397952381,0.7549420942857142,-2.991227325952381,6.669156741761905
0.846109252,5.539070424571428,0.5732093318571427,-3.006059323047619,6.69519846147619
0.851031405,5.553039278285714,0.3677933279999999,-3.008504464523809,6.68272194347619
0.855953634,5.524346374285715,0.14211481028571418,-2.986255322190476,6.620114364047619
0.86087579,5.571563357333334,-0.09045814261904772,-2.8993706987142853,6.585630809952381
0.865797944,5.609525294428572,-0.3347783876190477,-2.8582842747142854,6.582936221857143
0.870720327,5.628468626904762,-0.5838738615714286,-2.776936707,6.564959919047619
0.875642218,5.637503623857143,-0.8343438072857144,-2.6123443266999997,6.535208523904763
0.880564369,5.617818855,-1.067375664857143,-2.439715418790476,6.4896719922857145
0.885486518,5.590083326476191,-1.3375472844761904,-2.2882331361190476,6.449180735523809
0.890408672,5.552465098095238,-1.657526429857143,-2.0872768979380947,6.359674641095237
0.895330826,5.464317775761905,-1.8489538593571428,-1.9061506581952379,6.254902466047619
0.900253226,5.3243640716666665,-2.0003861500238096,-1.8258375660047617,6.142672113285714
0.905175382,5.172536690904762,-2.082982051857143,-1.8048016677190475,6.02914422347619
0.91009754,5.029036794285714,-2.0828817173809524,-1.7920821954809523,5.902096605380953
0.915019694,4.878760087952381,-2.0322236687380952,-1.761670293528571,5.749313341952381
0.919941923,4.740502766095238,-1.9593693343190475,-1.730460478385714,5.606430677952382
0.924864074,4.611296426619047,-1.8613482386333335,-1.6978279060761903,5.472834402904762
0.929786228,4.485478526,-1.7344254268714285,-1.6431469512571426,5.340726392809524
0.93470861,4.344498248238096,-1.5894309977285714,-1.5599913823847618,5.195739231666667
0.939630511,4.144895099380952,-1.425962858252381,-1.482281909075238,5.011861587095238
0.944552663,3.9748309111904767,-1.251951003347619,-1.3541369097276188,4.851594353761905
0.949474797,3.848932300190476,-1.077139952347619,-1.2014631969276188,4.720308244428571
0.954396951,3.756990671047619,-0.8986847641571429,-1.0515211536371427,4.61795877052381
0.959319125,3.704878159857143,-0.7096272947761906,-0.9166766731228568,4.5445418490476195
0.964241279,3.632503361857143,-0.5067601047285715,-0.8153384852847617,4.467866717
0.969163663,3.5875574633809526,-0.277345528157143,-0.7265451962038093,4.402045296380952
0.974085588,3.5552255199047615,-0.038191143919047696,-0.6766538151657141,4.354858671142857
0.979007971,3.5078737054285716,0.2035327568428571,-0.6964050524276187,4.296057035523809
0.983930204,3.476878200238095,0.4423218043190475,-0.6948983385466664,4.241594788571429
0.988852334,3.4516317390476186,0.6800146145571427,-0.6770554344595235,4.179074827761904
0.993774488,3.442168973761905,0.899205847842857,-0.6575110536976189,4.12274270452381
0.998696641,3.4773368267619054,1.0873686571523808,-0.6011542433119045,4.106450428666667
1.003618785,3.5546760218095237,1.2438502339619046,-0.5025346233023806,4.120015343333334
1.008540939,3.642671687238095,1.3533833743147619,-0.3440490488976188,4.137974922619047
1.013463103,3.722147975619047,1.4009847566195237,-0.18757752397380928,4.172204483047619
1.018385257,3.757229827666667,1.4044542322957143,-0.0628592865071426,4.179927764238095
1.023307415,3.756227731666667,1.381064613275238,0.03395137793095263,4.162708545476191
1.028229569,3.719718972761905,1.3430517556833332,0.09713199769285741,4.114431751904762
1.033151722,3.6558059282857145,1.293849182235714,0.14339294922619072,4.039680075904762
1.038073875,3.582311073857143,1.239584087597619,0.16681751998714311,3.9535153506666667
1.042996259,3.5144368352380955,1.18050899605,0.1683312352871431,3.8671830315238096
1.047918415,3.4298315529952377,1.1189680007357141,0.1593966636585717,3.763228925523809
1.05284063,3.330709269995238,1.0626441375214284,0.16503399716333358,3.6554155379523814
1.057762785,3.217295368452381,1.0102988502833332,0.1813921399680955,3.541546772380952
1.062684939,3.086929650452381,0.9663820912357143,0.22511333191095265,3.42309386852381
1.067607078,2.937043317652381,0.9291794264261903,0.2655670937252384,3.2950145759523815
1.072529155,2.781582131185714,0.9053448516166667,0.34218904623476215,3.172800851190477
1.077451413,2.6093294661999997,0.8976307503785714,0.39609942797285735,3.054923440904762
1.082373569,2.417503369604762,0.9171056995214284,0.46740314186333365,2.957106812904762
1.087295966,2.186103312652381,0.9634066557119046,0.5176192837776193,2.8658166284285715
1.092218122,1.9223535457142855,1.0410313286642856,0.5680370479714288,2.7897696306666666
1.097140045,1.6386622586666666,1.1519240899976189,0.619097143409524,2.7343214814285717
1.102062196,1.3380570637619047,1.2915934231642854,0.6508538084238098,2.689405652904762
1.106984581,1.026848157142857,1.4562061889738094,0.6764662876047621,2.6557249508095238
1.111906737,0.7047928229999999,1.6433437239066664,0.6813299528238098,2.634214977666667
1.116828876,0.3844399053809524,1.8465120476019046,0.6706023344000003,2.628083243714286
1.121751105,0.11109348128571432,2.0612756648542856,0.6626312392142859,2.6823153224761906
1.126673179,-0.12178532857142857,2.2719855304557144,0.6541116691809525,2.7839802206190476
1.131595102,-0.31963290490476187,2.474211474933333,0.6546034316238097,2.9207507517619047
1.13651748,-0.4933838106666667,2.665163998047619,0.655336099009524,3.073403681714286
1.141439636,-0.653439289047619,2.8466595609714282,0.6570898620809525,3.2391217998095234
1.14636179,-0.8127579518571428,3.017585078852381,0.656086338414286,3.4012116330952384
1.151284018,-0.9538341448523808,3.1792147386428575,0.6599556718523812,3.562122112047619
1.156206174,-1.0792817161380952,3.327036261523809,0.6575408137952383,3.710373282428571
1.161128323,-1.196678479547619,3.461477603190476,0.6564245280761908,3.8481774879523805
1.166050477,-1.3108037199761906,3.5803802637619047,0.6500085748333335,3.972681763857143
1.170972631,-1.4291502436523809,3.687998311857143,0.6487718607666669,4.0922707551904765
1.175895028,-1.546128718661905,3.7823364621428572,0.6419323384761908,4.197760622
1.180817184,-1.6463276247714287,3.862948031666667,0.6447547191666669,4.292016870190476
1.185739338,-1.7277067687476193,3.923678602523809,0.6281130995095241,4.361003012714286
1.190661482,-1.7786344375571428,3.9675104050952377,0.6141235771619049,4.411550943619048
1.195583636,-1.7987373443333337,3.9967230161428566,0.5881509071380955,4.4378148231428565
1.200505805,-1.7862744388380951,4.01098715695238,0.5580214772904765,4.4408400768571425
1.205427959,-1.7524979143,4.01678439552381,0.5292644784666669,4.430976350428572
1.210350117,-1.7034662025380953,4.015744061761905,0.5052987138380954,4.412190065333333
1.215272346,-1.6322848243476191,4.004086857809524,0.49067490440952405,4.380027473095238
1.220194502,-1.5473956763952381,3.9811340060476192,0.48392780763333365,4.334968190333333
1.225116575,-1.454917156295238,3.9498812471904765,0.4800991415952384,4.279994229142857
1.230038804,-1.3616239209,3.9141373294761905,0.47339533198571454,4.218983574428572
1.23496096,-1.2688202028380953,3.8774740469999993,0.45948633197142885,4.156297887190477
1.239883356,-1.1748171541380952,3.8368673325714284,0.43523566496333366,4.089755384619048
1.244805512,-1.0763347234666665,3.7881508669047617,0.4021723788490479,4.014344802571428
1.249727666,-0.9761166796714285,3.7326422079047616,0.3602340923966669,3.932792243904762
1.254649791,-0.8998401048333333,3.6714669750476183,0.3145801872109526,3.851646068047619
1.259571945,-0.8256697722428571,3.613396928523809,0.25557694904428596,3.779623458666667
1.264493873,-0.7553621505809524,3.5490489233809526,0.1833083792871431,3.7079653972380955
1.269416255,-0.6903032919476191,3.4862122195714287,0.10423985621571455,3.642374592095238
1.274338411,-0.6212698167904762,3.4248475574761903,0.014710476725238356,3.5801711593333336
1.27926055,-0.551948245447619,3.360084794857143,-0.08513504905095212,3.5184005500000004
1.284182704,-0.48559457666190475,3.296051082190476,-0.19250505099380927,3.463611688571428
1.289104863,-0.415141099247619,3.228409653619047,-0.3088614777414283,3.4114882504761903
1.294027092,-0.34149100168571433,3.1561488423809525,-0.42979771819380924,3.360682664809524
1.298949171,-0.26336199968095236,3.075517802,-0.5599450475985712,3.3141760766190473
1.30387163,-0.18390128513333334,2.9866686150952377,-0.6982835708461902,3.277035576619048
1.308793786,-0.09716766857619048,2.8865399019999995,-0.8480550909271426,3.2481534523809525
1.31371594,-0.004778380195238109,2.777410422047619,-1.0023875158223805,3.224355003095238
1.318638104,0.09087852423333331,2.6580005657142856,-1.186015371017619,3.2292430535714285
1.323560027,0.21545633318571428,2.533861234047619,-1.3879706596461903,3.271440469095238
1.328482174,0.3629211471333333,2.4048737571,-1.5916931337461904,3.333123079619048
1.333404328,0.527244624642857,2.2688725249523807,-1.7808589856366663,3.3985873432380953
1.33832651,0.7073357658666666,2.1347350534190475,-1.9667514178509524,3.479801519571429
1.343248895,0.9031305227857144,2.0151701029619047,-2.157390799438095,3.5915405173809525
1.34817082,1.112267913542857,1.9180516231047617,-2.3541667616476185,3.735413857428571
1.353093222,1.3425411627952382,1.8325299080571424,-2.554590374138095,3.9104953600476184
1.358015378,1.6013205523380953,1.7687426691523807,-2.767606806109524,4.113790016714286
1.362937531,1.8682731762714286,1.7216982897714284,-2.974100232047619,4.335540389571428
1.36785976,2.146208041847619,1.6903103816761902,-3.167676942619047,4.5715400899047625
1.372782145,2.44973260697619,1.6679566190095236,-3.356412660428571,4.824652613666666
1.377704051,2.802950072533333,1.6470746596285715,-3.5566671915714285,5.121940689904762
1.382626203,3.1830501567142853,1.6328667969619044,-3.7633507591428574,5.449114233285714
1.387548357,3.5667280068809526,1.6428808881999997,-3.97474471147619,5.793708104952381
1.392470525,3.9409291134190476,1.6805556104380952,-4.16412967147619,6.137638987714286
1.397392678,4.2906261540952375,1.7450195210571426,-4.351469142,6.480803395523809
1.402315082,4.612910761757143,1.8161111389142854,-4.532614582952381,6.814575756952381
1.407237238,4.9155573731904765,1.8747273286761905,-4.6954917339047615,7.129225607142858
1.412159161,5.182218375666666,1.9078823328666668,-4.822611922190476,7.395900549095237
1.417081318,5.388552512476191,1.9030622868666667,-4.874615112857143,7.567938287
1.422003779,5.499012038857143,1.8816331455,-4.852690639904761,7.617214617857142
1.426925935,5.506178662904762,1.8622037201095234,-4.750904253523809,7.545622604666666
1.431848118,5.436283804142857,1.8429751481761902,-4.605370493157143,7.393075930142858
1.436770272,5.332110898857143,1.8294123851571427,-4.43702583157619,7.209760713476191
1.441692426,5.1990819006095235,1.819661004247619,-4.240141019238095,7.004721768338095
1.446614561,5.038519427928572,1.7931415268809523,-3.9984532559523807,6.789353648242856
1.451536638,4.859828179842857,1.7397364814541427,-3.7227774369047615,6.5660153061
1.45645888,4.667250596385714,1.654126764439857,-3.4138355389999995,6.344063341861905
1.461381036,4.48782906362381,1.5171128124874762,-3.0766284827619046,6.133824432861904
1.46630319,4.264618010742858,1.3469476199636665,-2.724477100238095,5.90918313857619
1.471225363,4.043447906061905,1.1411773317731904,-2.3626592975238094,5.700212400909524
1.476147517,3.806183102585714,0.8835841428208094,-2.0061381565714282,5.49807144514762
1.481069671,3.5412425398714285,0.5889064311541428,-1.5967014879047616,5.299279866814286
1.485991825,3.287836503442857,0.26308562182080936,-1.1375597339523806,5.125790610719048
1.490913978,3.0686803176809523,-0.11869894217919065,-0.6723558697619045,4.974061888052381
1.495836443,2.9190940715380953,-0.562217569417286,-0.14206649228571405,4.929555350147619
1.500758599,2.816545926395238,-1.0518057619410954,0.40987431214285736,4.932544433480952
1.505680753,2.6939894216333333,-1.5513159934172858,1.0124267033809526,4.9646923411
1.510602891,2.5472057063952382,-2.026203126083953,1.6153418541428575,5.007121261385714
1.515524968,2.3824583206809526,-2.4566118082268096,2.2076674734285713,5.07991257157619
1.520447202,2.231932319347619,-2.823677476322048,2.7392192432380957,5.225265981814285
1.525369358,2.110041411157143,-3.129274804336334,3.2193832034761907,5.427948324099999
1.530291459,2.0045472639190476,-3.3972331359934764,3.6277750651428575,5.6867680171
1.535213611,1.9300510230523809,-3.634671888541096,3.992553396490476,5.991879136290476
1.540135852,1.861360547095238,-3.8391627985172856,4.3212908321,6.307742286338096
1.545058007,1.776154024247619,-4.018977416788714,4.614252022238095,6.613304745714286
1.549980161,1.6785038851190475,-4.1622940319649055,4.855193217476191,6.882192169571428
1.55490231,1.5847171260619048,-4.271446701966667,5.052996260666667,7.106159732190476
1.559824693,1.4913433165190475,-4.337856894380953,5.212726365857143,7.280616591238095
1.564746849,1.381078123995238,-4.354939034952381,5.33097436304762,7.3864947898095235
1.569669003,1.3080858871523808,-4.339225700857144,5.416973545333333,7.456819774333334
1.574591231,1.2333145538428572,-4.286769412761905,5.459371975380953,7.462328581666668
1.579513315,1.1654690787380952,-4.172467129538096,5.49935284104762,7.422386202238096
1.584435467,1.0750157945999999,-4.002208796233334,5.496694848571429,7.316796104476191
1.589357621,0.9320035547666666,-3.7899521290761906,5.412765809380953,7.114490289714286
1.594279775,0.7508947479285715,-3.530627179647619,5.323433421857143,6.861029882857143
1.599201929,0.4893650298095238,-3.2156331751571434,5.131964433714286,6.491353148619047
1.604124159,0.183841657,-2.8602178877,4.900099149742857,6.076885275476191
1.609046294,-0.1001436852857143,-2.481123849033333,4.615172195961906,5.653389365523809
1.613968448,-0.36224986547619054,-2.0894869495095243,4.314499863538096,5.246731507476191
1.618890598,-0.5809085284761905,-1.688561988747619,3.980698190252381,4.855982427619048
1.623812981,-0.7594234291428572,-1.2894700865095239,3.6369261798285715,4.492402603619047
1.628735137,-0.9034863342380952,-0.9137777076047622,3.281938602528572,4.187263762333334
1.633657246,-1.0099105750952382,-0.5565984292238098,2.9272458340666665,3.934292714047619
1.6385794,-1.1069507685142856,-0.21261729941428587,2.5529348807809527,3.7200289269523816
1.643501554,-1.1898469557,0.11114813739523796,2.1707409237333333,3.5359954265238094
1.648423708,-1.2559734782238094,0.4194047522047618,1.7854099742095242,3.3932729113809526
1.653345862,-1.325683142509524,0.7097879889190475,1.4054845415904764,3.3008100499999995
1.658268003,-1.4330068060809524,0.9845313755857144,1.024319162019048,3.2742884338571425
1.663190157,-1.5719085563190474,1.2447073246333331,0.6517807203047621,3.290278018952381
1.66811231,-1.7209374479380952,1.4915353187285714,0.326238906161905,3.331827379666667
1.673034448,-1.8694666880238098,1.712982752442857,0.053093003447619316,3.3807005614285712
1.677956678,-2.0237492067952383,1.9152648519666664,-0.1565618045999997,3.4486971806666666
1.682878757,-2.173248969404762,2.0999154661238095,-0.3434140468761902,3.520858378238095
1.687801001,-2.275108306219048,2.269011182438095,-0.514531003533333,3.5789395552857144
1.692723157,-2.332158733004762,2.421333329995238,-0.629975195385714,3.6561844697619046
1.697645539,-2.4006435928333336,2.558911713804762,-0.7299340508857141,3.746014723523809
1.70256769,-2.4422721636190476,2.679941285219048,-0.8050796729857139,3.8370840654761906
1.707489613,-2.4620656854285716,2.781640137952381,-0.8647529596047617,3.920379311047619
1.71241177,-2.470901495,2.8664283298571425,-0.9120802921571427,3.9864711958095245
1.717334232,-2.46857835,2.9352191346666663,-0.9489059589809521,4.037183646285714
1.72225608,-2.4678543976666667,2.979709750190476,-0.956078863533333,4.074482688523809
1.727178475,-2.4722048725714285,3.0042241755714287,-0.9511554354380949,4.098426090476191
1.732100631,-2.4582021066190474,3.0162416981428573,-0.9244761977523807,4.101684342047618
1.73702286,-2.4305523917619047,3.0190361796190475,-0.8929923878904757,4.087485837857143
1.741945016,-2.3976332914285714,3.010885045761905,-0.8407715283604758,4.055081929428572
1.74686717,-2.338438343442857,2.995911950285714,-0.7851802928223806,4.002836301904762
1.751789311,-2.2501787259761903,2.971117383047619,-0.7188487231652378,3.926756184904762
1.756711464,-2.129374207504762,2.9389116197619045,-0.645835438808095,3.825338568666667
1.761633618,-1.9503509273700002,2.9076709975714286,-0.5540183890652377,3.6927177883809525
1.766556,-1.7201069379747618,2.880627950142857,-0.45873900484619023,3.549332325619048
1.771477925,-1.4679174265938095,2.8575346698095236,-0.37410647902714256,3.422031102333333
1.776400322,-1.2006101394033333,2.852293003285714,-0.3164227627985712,3.3349413342380956
1.781322247,-0.9258051442604762,2.86134914,-0.28940819221761876,3.2775521842857143
1.786244386,-0.6615352360223808,2.8728152344285713,-0.2881451442509521,3.2422152757619047
1.791166539,-0.43729299154619045,2.8801728544761906,-0.3053423814033331,3.24018754052381
1.796088924,-0.24002851892714286,2.8833241350476193,-0.3402120948366664,3.2590836295238095
1.801011079,-0.013492426593809512,2.8851424172857145,-0.39028685524142825,3.290099496428572
1.805933233,0.19012838754904765,2.894149893904762,-0.4944495227128569,3.3539062628571434
1.810855462,0.3890640098347619,2.903054328285714,-0.6018646169795235,3.4304341969047623
1.815777622,0.6127212034538095,2.908224276238095,-0.7064866616938092,3.516526855047619
1.820699776,0.8485984391680952,2.912346942142857,-0.8061866087795236,3.6123461001904764
1.82562193,1.0832753906442858,2.923437618142857,-0.9232243734176189,3.7207834828571427
1.830544079,1.3245648643585715,2.9404560952380954,-1.0522939486604759,3.8381923223333336
1.835466233,1.5709051051204763,2.9606212320952383,-1.1741540483319046,3.9558405792380955
1.840388387,1.8273566721204761,2.9731764679999997,-1.265097002350952,4.067483816238096
1.845310541,2.1006992815490473,2.98013507752381,-1.32804824197619,4.17460192547619
1.850232694,2.359194138372857,2.9798805486666664,-1.3550087667523807,4.292047322190476
1.855155087,2.6037967618109525,2.9740875448571424,-1.347153433540952,4.408603982142857
1.860077012,2.832941342101429,2.966927687333333,-1.2950591003123806,4.520725519142857
1.864999164,3.0184122494904764,2.951523826238095,-1.2053999090076186,4.615292557714286
1.869921563,3.147763013904762,2.9378816854761904,-1.0533078126552378,4.707207345952381
1.874843719,3.202502727571429,2.9102332592380953,-0.7901003472361902,4.841825057428571
1.879765872,3.216869916285714,2.8534079677142854,-0.5313773366076188,4.942600247952381
1.884688031,3.236661105,2.7713402567142857,-0.3246511459980949,4.987815659
1.88961026,3.278304054714286,2.619761737390476,-0.19653090530761877,4.964027856714286
1.894532416,3.3785922528095242,2.408192689295238,-0.18297481088857115,4.98170078747619
1.899454464,3.5225820542380952,2.1745723067714287,-0.2606976271266664,5.0853652824285716
1.904376616,3.679793641761904,1.9205120270095235,-0.39348518969809493,5.2444428078095235
1.909298765,3.877546673809524,1.6195826395809523,-0.5130774362695236,5.441253291047619
1.914220995,4.116035563666666,1.2651271117714284,-0.5703802405076188,5.666514080714286
1.919143074,4.343030123571428,0.8775974433904762,-0.6000796682695235,5.904886718714286
1.924065318,4.5567055089999995,0.46617349910476186,-0.5894490493171426,6.143494072571428
1.928987474,4.751959312619047,0.03595264539047607,-0.5264022362695235,6.367678629047619
1.933909628,4.9110510236666665,-0.38512288032380965,-0.42084051792190447,6.552058649047619
1.938831782,5.020177818571429,-0.7798409823714285,-0.30767446527428544,6.683731878571429
1.943754164,5.072849727904763,-1.1345733028000002,-0.19745208307428547,6.762895441095238
1.94867631,5.068229834333333,-1.4399109702761905,-0.08337869869333306,6.78456474504762
1.953598464,5.0140912192857146,-1.6944503010857144,0.03657401406857169,6.757563691523811
1.958520693,4.907282216285714,-1.8990136292761903,0.1415685848190479,6.681197193857143
1.963442758,4.752733066047619,-2.063179248166667,0.23751872280476216,6.585206345333334
1.96836491,4.587704539361905,-2.1913423865000006,0.3120469174238098,6.496502710333335
1.973287058,4.429625346072857,-2.308371811447619,0.3532851118523812,6.4239448698095245
1.978209212,4.316677681968095,-2.402354195785714,0.283782644661905,6.3092843496190465
1.983131443,4.21631673073,-2.471442813747619,0.22539077842380975,6.218867346619048
1.988053507,4.108234447252381,-2.525988098509524,0.22375305847142882,6.174740937857143
1.992975736,3.9876131137238096,-2.5268694315952382,0.3172970591857145,6.193149556809524
1.997897892,3.821079723033333,-2.483156053557143,0.5432458186714287,6.171481488523809
2.00282006,3.6150224498142856,-2.4241365276952385,0.8679004886714288,6.068849532904762
2.007742443,3.3681032947047616,-2.3489499146142854,1.2596305247666668,5.898865427190477
2.012664599,3.068870923909524,-2.2363057672904767,1.6857481493380955,5.663385314761905
2.017586748,2.711115030161905,-2.0729408119380954,2.050685193671429,5.388689017761904
2.022508902,2.3431901355476192,-1.8796878056523814,2.3747570891952385,5.097483122
2.02743082,1.9783374644285714,-1.6629672416047623,2.674670472861905,4.826922829666667
2.032353202,1.6354854708333333,-1.422638106557143,2.9497395676714286,4.584700171190476
2.037275391,1.356051760595238,-1.1932177171285716,3.1990908456095237,4.3955091540952385
2.042197545,1.1175216753571429,-0.9884935642238096,3.4047580872952388,4.232401855476191
2.047119699,0.9211128699761905,-0.8133875269809526,3.6060668117142862,4.139235067761905
2.052041957,0.7351587703571429,-0.6716609025761906,3.762058581666667,4.081618387809524
2.056964113,0.5657731959714285,-0.5818823799285716,3.876121112285714,4.06239951852381
2.061886266,0.43011938511904757,-0.5448897619000002,3.9519696803333333,4.077385913190477
2.066808429,0.3506347180380952,-0.5473944285476191,4.009358689904762,4.124891100619048
2.071730583,0.30193024145238095,-0.5905036645476193,4.071051018571429,4.193022265904762
2.076652737,0.2796580511080952,-0.6635305238857144,4.080422628476191,4.215084337666667
2.081575106,0.26258124090809526,-0.7519791448809526,4.072846060666667,4.2208588025714295
2.086497031,0.2344141932366667,-0.8427594314428573,4.041302101904762,4.205314732000001
2.091419163,0.15675414385714284,-0.9145467192523811,3.9609517710000004,4.1585216199047625
2.096341316,0.012776472004761893,-0.9533808131857144,3.8114644827523807,4.107611416428572
2.10126347,-0.1916146214952381,-0.9540374796857145,3.605602914304762,4.086550855380953
2.106185855,-0.4350964874666666,-0.9260818131442858,3.360387583495238,4.099028766666667
2.111108016,-0.6897287334047618,-0.8834218599061907,3.078609872352381,4.137845152142857
2.11603017,-0.934627391847619,-0.8351540966204763,2.7653339674476194,4.204446189190476
2.120952323,-1.1581100631,-0.775188287434762,2.4313092088761907,4.284155786476191
2.125874257,-1.3718845398190476,-0.6963378137680953,2.0466304476857142,4.388090507476191
2.130796639,-1.581801921938095,-0.6037535273585716,1.5889539234476193,4.496405383714285
2.135718857,-1.7870676795333333,-0.5078790986204764,1.0614916907809526,4.620905807619048
2.140641011,-2.012883866961905,-0.4016069574776192,0.48594808282857177,4.750199501666667
2.145563165,-2.2221919178666667,-0.28845686043000013,-0.058073500885713995,4.898961329285714
2.150485301,-2.4205809712,-0.17211962353000015,-0.6172061676952378,5.033155117285714
2.155407454,-2.5785979196761906,-0.059665816553809675,-1.1456780235523805,5.179487192952381
2.160329608,-2.7098953441,0.0651099933223808,-1.6448389263619045,5.31685650547619
2.165251762,-2.8255334440571427,0.20531189686523793,-2.099078885171428,5.455813740047619
2.170173921,-2.9463097737857145,0.357187753260476,-2.5419220726,5.573986602904762
2.175096075,-3.0631126251333334,0.5281188484033331,-2.9710328721238093,5.657380885619047
2.180018229,-3.1798869102619047,0.7215809874985712,-3.3467216406952383,5.747405432857143
2.184940387,-3.2970951910047614,0.927108134165238,-3.688921113838095,5.833511450761905
2.18986254,-3.3945756186666665,1.1370958540223808,-3.980824007885714,5.911692975238095
2.194784923,-3.4464922406190475,1.340617185212857,-4.205358144790476,6.006727375142857
2.199707083,-3.435649145285714,1.5276907026033333,-4.337188760447619,6.088267728571428
2.204629312,-3.3696491037619047,1.6948825067795237,-4.398199808047619,6.121685595761905
2.209551468,-3.2622314294285712,1.8471406946619047,-4.405201855190476,6.106638450000001
2.214473536,-3.121795421571429,1.989779357390476,-4.358474476042857,6.048364415380952
2.219395688,-2.960040098142857,2.1269319738761903,-4.260886090171428,5.955665050047619
2.224317836,-2.801361475666667,2.2562573126714285,-4.1219995249,5.8487950671428575
2.22923999,-2.654388569666667,2.373932128909524,-3.918334758353333,5.711420639476191
2.234162115,-2.5218150445714285,2.478602982738095,-3.664212337273809,5.542060261
2.239084269,-2.3998217128571433,2.5764479807619045,-3.3626627239747613,5.339237541095239
2.2440065,-2.2870087623333335,2.664931791190476,-3.0345736797890472,5.112309031714286
2.248928645,-2.180828662142857,2.7470591239047617,-2.7107843379795233,4.894871347142858
2.253850799,-2.0754100396666666,2.824491319238095,-2.3966654431842853,4.681446370095238
2.258772953,-1.9709615196619048,2.899671986,-2.093898549612857,4.482477644428571
2.263695322,-1.868896192052381,2.9716255551428565,-1.8142106993795237,4.303650179666667
2.268617478,-1.7620588058857145,3.0383452688095236,-1.5571525940747617,4.144396853523809
2.273539631,-1.6460194304142857,3.097134749095238,-1.3178973161747616,4.0000723610952384
2.278461799,-1.5342558651095237,3.1469453175714284,-1.1060571350319046,3.8783233974285714
2.283383953,-1.422661769990476,3.185710464190476,-0.918234648355714,3.7719487151428566
2.288306117,-1.3079197747619047,3.217301084857143,-0.7485857477319044,3.6785316860000004
2.293228271,-1.1892038229095239,3.241457553095238,-0.6199523720652378,3.604431714714286
2.298150439,-1.0792199132142857,3.2611590339523806,-0.5082220895509522,3.544478104380953
2.303072668,-0.9804449564238095,3.283204135428571,-0.42587337953666643,3.5066920271904767
2.307994823,-0.8956905248857142,3.3084700448095234,-0.3669311892890474,3.4871793294761906
2.312916992,-0.8290398107142858,3.344728390380952,-0.32560352404142834,3.4904451399047622
2.317839069,-0.7841744749571428,3.395210447761905,-0.30170647648904736,3.5208224636190475
2.322761298,-0.7577925679476191,3.461370786,-0.2911091907176188,3.575738681571428
2.327683683,-0.7431814230761905,3.5425610200952375,-0.2781079997747617,3.649661614238095
2.332605838,-0.7342377574714286,3.640049786714285,-0.2783087617004759,3.7414368184761906
2.337527992,-0.7133456142,3.7457112130000003,-0.2762357141066664,3.838320509571428
2.34244991,-0.6833631864619047,3.857542696428571,-0.26746652390095216,3.9404436855714287
2.347372293,-0.6324394249566667,3.971420798952381,-0.2474761428723807,4.044455899428572
2.35229454,-0.5637142363661906,4.081566379142857,-0.23127747654857117,4.1471966420952375
2.357216694,-0.47188228260428566,4.184531745428571,-0.22919842822476166,4.247953552666667
2.362138771,-0.3424820435138095,4.269934131952381,-0.24363766761047595,4.344877077095238
2.367060937,-0.17983466279,4.331213235857143,-0.2761000970342855,4.438510149666667
2.371983168,0.02311695013857146,4.351452952333333,-0.3314837636723807,4.530226493809524
2.376905324,0.2633849904290476,4.305580048333333,-0.43737552214380926,4.631848004666667
2.381827478,0.5434614743147619,4.19172833647619,-0.6054707645723807,4.773111900857143
2.386749555,0.8393931797195238,4.025314576477619,-0.7926159154390474,4.939535684476191
2.391671784,1.161677753300476,3.798298099144285,-0.9705171983485712,5.1223555279047615
2.396593935,1.50201989321,3.501116436096667,-1.1085420067295235,5.333868579952381
2.401516088,1.8757545149909522,3.130876826334762,-1.200930059767619,5.5847406445238095
2.406438242,2.2815673106766665,2.6831218301442856,-1.2426781577342854,5.886292353142856
2.411360386,2.7138882588528572,2.1662427938109525,-1.2295036820771426,6.235280645571428
2.41628254,3.163423736586191,1.590334768715714,-1.1617028721390472,6.61388293447619
2.421204704,3.6624928880195236,0.96165029343,-1.0530513490771427,7.045406968619047
2.426126858,4.133106736629047,0.310081426525238,-0.8580643074819045,7.465764814761904
2.431049012,4.5468263084242855,-0.3489862723319049,-0.6568073157914283,7.837583506190477
2.435971169,4.85885036248619,-0.9749435569985716,-0.42463802436476156,8.115273632476189
2.440893552,5.06951683731,-1.549567073617619,-0.19345741618095205,8.306908231333333
2.445815708,5.189024834095714,-2.080358560665238,0.03330849602857172,8.42596959742857
2.450737862,5.20721016757619,-2.5654339890461904,0.24603477752857172,8.488442058571428
2.455660091,5.1411774059571425,-3.0128268046652384,0.4458123998238098,8.516015698809523
2.460582246,5.002008354433333,-3.4271361700461904,0.6575135857523813,8.527426423761904
2.465504396,4.797944785671429,-3.8046129870938095,0.8680554869000002,8.52503807552381
2.470426473,4.571158649052381,-4.141842704474762,1.0902280082809526,8.500548877428573
2.475348611,4.349450987100001,-4.429283992189048,1.340725292661905,8.45609054952381
2.480270842,4.121360614257143,-4.648952335141429,1.6373544376619051,8.38825221404762
2.485192984,3.8855943694714288,-4.798951005665238,1.9863418240428574,8.266512828761904
2.490115138,3.664137188947619,-4.889846671142857,2.3497589272333337,8.121350988380952
2.495037291,3.4450652330428575,-4.916306342333333,2.6965865478047624,7.963813497142858
2.499959449,3.209553947138095,-4.8579134883809525,3.010494636566667,7.778985673714286
2.504881832,2.9543948528999997,-4.701705450061905,3.270901448614286,7.54915040395238
2.509803988,2.683234102709524,-4.447928884147619,3.485231639328571,7.268220357095238
2.514726142,2.404796102233333,-4.112269370890952,3.647703159376191,6.94161223247619
2.51964837,2.1221535333761903,-3.7088622598576197,3.7316054445714295,6.560360212857144
2.524570449,1.8027604775666666,-3.255418122400477,3.7623760699523805,6.113968353333333
2.529492659,1.528941053709524,-2.7810344957338096,3.7027506032857143,5.6764698861904765
2.534414738,1.2817279625190476,-2.2889328434480953,3.5879825636666673,5.235875883952381
2.539336861,1.094916765138095,-1.8083708093528574,3.4082251786666666,4.847122548
2.544259015,0.9521721927666666,-1.3463288069242858,3.192404666066667,4.544704708714286
2.54918116,0.8758670034857142,-0.9148393279242859,2.951139134961905,4.325748543047619
2.554103313,0.8975373378809524,-0.5287234363052382,2.7346050916238096,4.1684503039523815
2.559025544,1.0334176208142856,-0.18527458168619063,2.541227088761905,4.060821913523809
2.563947637,1.198500575004762,0.12901679331380939,2.361571044404762,3.962147989571428
2.568869866,1.3603843804666667,0.4194744620757141,2.2111249076,3.8694920161904762
2.573792022,1.4698974709333332,0.6814511696471427,2.090421386409524,3.788968339047619
2.57871439,1.488446566952381,0.9278210764566666,1.9287266738333335,3.721065677904762
2.583636546,1.4425926129857143,1.1593534571233333,1.7608702395809526,3.6647698023333337
2.5885587,1.350187996247619,1.3795079355519047,1.5979905717366667,3.6213877282380955
2.593480839,1.2063921824380952,1.5879870335042856,1.4551722868604764,3.5836059635714284
2.598402762,1.019298845057143,1.7978260312185714,1.2767302344128573,3.5544172691428573
2.603325135,0.7930687062,2.002593269742381,1.0727462406557147,3.5545276096666667
2.608247291,0.5367154187238096,2.187123028375714,0.8595789081795241,3.577863272190476
2.61316944,0.24683990000952385,2.353116839509047,0.6393427657033336,3.6143725457619045
2.618091594,-0.06735785599047617,2.5002779847285717,0.41315096117952405,3.650294543238095
2.623013748,-0.38705547446666666,2.6262212225523807,0.21920824403666692,3.696570092809524
2.627935906,-0.7138850895619048,2.7412571679999997,0.03452014141761929,3.742331826904762
2.632858135,-1.0511660896095236,2.8423492113809523,-0.14515534115380926,3.7733580471904764
2.637780214,-1.3479357086095238,2.9188656409523808,-0.2941405794871426,3.8395169066666663
2.642702678,-1.591601278895238,2.9568784009999995,-0.40525743724904734,3.9260006025238092
2.647624834,-1.7774087028095238,2.9543566363333333,-0.4858737737442854,4.001095558238095
2.652546988,-1.9371910344333334,2.9289876847142855,-0.5453196303061902,4.050757985333333
2.657469128,-2.105498940528572,2.896174737380952,-0.6200249166823807,4.082123292857143
2.662391051,-2.3109829391,2.863668350904762,-0.6983152514395234,4.083609373095238
2.667313414,-2.4897720324809525,2.828025499952381,-0.7758964881776189,4.081516039
2.672235569,-2.6296336019904762,2.7887794516666666,-0.8685622513252378,4.079242918380952
2.677157507,-2.715606791695238,2.750796545047619,-0.9691641572299997,4.068980820190476
2.682079659,-2.7409892196190477,2.708961157523809,-1.0392676336538091,4.052396450238096
2.687002044,-2.7142047400238094,2.6681798299047617,-1.0982103014490474,4.017014275190476
2.691924229,-2.6601266946714284,2.6283112139999996,-1.1601899223666663,3.9754972536190474
2.696846383,-2.579235691480952,2.591915068142857,-1.2338704949190475,3.9216689021428572
2.701768551,-2.446578542452381,2.542788880190476,-1.2788345416142854,3.8555448366666667
2.706690779,-2.261678400547619,2.4809694517142855,-1.2954840659999998,3.7645993354761904
2.711612935,-2.0508189769285714,2.409493503095238,-1.3083071594761901,3.661882807761905
2.716535084,-1.8134645053571428,2.33358992847619,-1.3081839197619043,3.544037196761905
2.721457238,-1.564441408452381,2.261254356,-1.3015008709999998,3.4236784734285712
2.726379272,-1.3142170338809525,2.1935509727142852,-1.2978110596190473,3.3077533652857145
2.731301501,-1.077356565595238,2.133712217952381,-1.2944394405714283,3.190327909952381
2.736223641,-0.8339993726904761,2.0854170776666665,-1.2919913415714284,3.085330114142857
2.741145795,-0.6020126172619048,2.045628593095238,-1.2914638631428568,2.988090096761905
2.746067978,-0.3764755725952381,2.014029741285714,-1.2958875325714283,2.904582191238095
2.750990132,-0.1475677206904762,1.9853968847619048,-1.3004400558571425,2.83548686547619
2.755912286,0.08119123316666668,1.9573553176190477,-1.300318343190476,2.7784697885238097
2.760834669,0.30514075635714283,1.9332309337142857,-1.3059874829047615,2.7400691169523808
2.765756824,0.5186983743571428,1.9123487472857141,-1.3180254810476189,2.7196869439999998
2.770679053,0.7248125643571429,1.8950361183809523,-1.3362999586190474,2.7139681097142856
2.775601224,0.924143711690476,1.8785326480952378,-1.3542151507142854,2.7188112562857145
2.780523378,1.1139256670238096,1.8665679863809521,-1.3843041487142855,2.7436196403809525
2.785445532,1.2936661470238096,1.8576189904285711,-1.4151012896666666,2.786879932095238
2.790367609,1.4553329064285714,1.8523126556666665,-1.4480900990476189,2.8489996896666665
2.795289761,1.6075285701238096,1.8495530798095234,-1.4721686669047616,2.9143855806666665
2.800211909,1.7504192320761907,1.8544020766190474,-1.4887115727619045,2.985046325809524
2.805134063,1.846993996952381,1.8635917958571424,-1.4840541907142852,3.041618888047619
2.810056303,1.9009050868571429,1.8711960372380954,-1.467670999747619,3.0727082695714283
2.814978459,1.9319859459047617,1.8810985599047616,-1.4111759037666665,3.078774156333333
2.819900536,1.9302180437619048,1.883767179047619,-1.3230739973523806,3.064309683952381
2.824822751,1.9276951380952378,1.8721228894285713,-1.197629806542857,3.054113593952381
2.829744906,1.9295319034761906,1.8378810342666665,-1.0506412841142854,3.0525624597142857
2.834667289,1.969445762190476,1.7641952228619044,-0.9063223799238094,3.0603028
2.839589445,2.038242192476191,1.646134937738095,-0.8150152393714284,3.0734139416190476
2.844511599,2.13233319347619,1.4824787995,-0.8070936685619046,3.118977642714286
2.849433762,2.2561649594761906,1.300981560595238,-0.8510364322285712,3.213756904952381
2.854355916,2.3866853316666665,1.1139617980238092,-0.9178943321809522,3.3308435589999994
2.859277844,2.5164207504285714,0.9268142715,-0.9611012396571427,3.439357580857142
2.864200226,2.6560904071904763,0.7428225100238093,-0.9574983829428569,3.5401021424285712
2.869122372,2.783858446904762,0.5503701758333333,-0.8802004787461903,3.6248201279047625
2.874044526,2.89482012252381,0.37360518240476176,-0.7485259563176188,3.6933345782857145
2.87896668,2.967804454619048,0.21815308426190463,-0.5929135727461903,3.7312702350476195
2.883888825,3.0069247313809524,0.08242875259523794,-0.40413547317476173,3.754813608714285
2.888810979,3.0135544935714287,-0.04153510298571445,-0.18578699846047597,3.7681078151428573
2.893733212,3.0041550681904763,-0.1557324820333335,0.048655144730000224,3.7859246604761903
2.898655368,2.9976473535714283,-0.2672171458523811,0.2984047143966669,3.820962031428571
2.903577751,3.0137131214285713,-0.3936651924380954,0.5301261950633335,3.86995416047619
2.908499897,3.080754927238095,-0.5253230993619049,0.7232489112538097,3.9464726293809527
2.913422051,3.1979804947619046,-0.6676042456476192,0.8501765282871432,4.051983073809524
2.918343974,3.3478010722857143,-0.827819958361905,0.914615288544286,4.189300716761904
2.923266168,3.521658539809524,-0.9958532403142859,0.9283756196728573,4.346273380952381
2.928188322,3.6842540105714288,-1.1561093820285717,0.9000429037538098,4.486915545428571
2.933110726,3.8295062042857144,-1.294896904247619,0.8372797634252384,4.6057257499999995
2.938032882,3.943931250380952,-1.3982919511761907,0.7762854321109526,4.71140059347619
2.942955036,4.020484243190476,-1.4635891886238097,0.7590364808538097,4.801347032142857
2.94787725,4.0775293396666665,-1.4905329971476193,0.8236583849252384,4.85533771947619
2.952799329,4.104886191333334,-1.5052065197190478,0.9385045314552384,4.857943276428571
2.957721481,4.114750589761905,-1.5190437606714287,1.0796582431076192,4.834573241571429
2.962643702,4.121291365047619,-1.5367862809571429,1.192947532659048,4.822634597666667
2.967565858,4.105667000809524,-1.5590074261000002,1.2639271974528574,4.807148871571428
2.972488012,4.082734766571429,-1.5665871331,1.2753536254323812,4.7897251107142855
2.97741039,4.050305094142857,-1.5779935150047621,1.2432272938371431,4.759290034714285
2.982332546,4.017662809142857,-1.5872442751,1.1982238172466668,4.720731474238095
2.987254728,3.9727896282857142,-1.589134227695238,1.1261164312085716,4.650892045
2.992176882,3.9195019064761905,-1.5736870382857144,1.0394092876561907,4.552887049761905
2.997098825,3.856903570142858,-1.5433990392447619,0.9352894305133336,4.431332508571428
3.002021208,3.763180000557143,-1.4967224687828573,0.8143246678133336,4.279337873285714
3.006943364,3.615530189400476,-1.4265017996733333,0.6951412835895241,4.111714670904762
3.011865531,3.405006999871905,-1.3420682752923812,0.5948849455657145,3.934273422809524
3.016787454,3.1545990571528573,-1.2358752266733335,0.5294967088561907,3.7488844844285714
3.021709837,2.873778386567143,-1.1099957516161905,0.47576247181619075,3.5544251309047623
3.026632012,2.585652820519524,-0.9721132777114286,0.4112083765495241,3.3665179746666665
3.031554166,2.302409493614762,-0.8340752753923811,0.3362868991400003,3.1933021208571426
3.036476395,2.0286384403766666,-0.7007427532352383,0.25985346761142886,3.0384300173333334
3.04139854,1.7590392524242855,-0.5727285633828573,0.1637794214971431,2.905254983238095
3.046320617,1.485478637567143,-0.4562134690733335,0.06494332591619074,2.7812535043333333
3.051242773,1.2097496852338094,-0.34460266052095256,-0.02400595848857115,2.6545298574285714
3.056164927,0.9328695004242856,-0.2353862812400002,-0.0984121984471426,2.517038774904762
3.061087158,0.660775352852857,-0.12866127821619064,-0.16754472090904732,2.366476619761905
3.066009237,0.3862061082338095,-0.022447042970000164,-0.22564924307952353,2.1993963136190477
3.070931476,0.11434353328142857,0.07887034213999983,-0.2627113389114283,2.0247968320000003
3.075853631,-0.14004108090904763,0.16818414584476174,-0.29601367158761877,1.8558306524285715
3.080775785,-0.3929284661471429,0.24697219214952368,-0.3334074331209521,1.7301038516666667
3.08569792,-0.6247173284804762,0.2830900949876189,-0.3643032908819045,1.6575628523333337
3.090620303,-0.8256069045280952,0.2563710924876189,-0.37973819463904734,1.6595031678571428
3.095542459,-1.002528760385238,0.17415089718285698,-0.3963980022295235,1.7217867255238095
3.100464608,-1.1553305635757143,0.05472171095142843,-0.4043669048199997,1.8124329115714286
3.105386761,-1.2788189897995237,-0.09569028940571445,-0.4136019519771426,1.9263602225238097
3.110308915,-1.3502113719761906,-0.28211633859619056,-0.40709590346761865,2.0537669673809527
3.115231069,-1.3894337557809524,-0.4755560578152382,-0.37815366191999966,2.1748583803809525
3.120153228,-1.4224209444904763,-0.663841919529524,-0.3454189953533331,2.283364364
3.125075382,-1.445342852952381,-0.8382122083961906,-0.3021391859180949,2.3719719044761907
3.12999756,-1.483880991047619,-0.9925144449676192,-0.27690080386461874,2.4410323225714285
3.134919714,-1.5677362794285714,-1.112993350334286,-0.2670499953122378,2.5226344817619046
3.139841942,-1.686664990047619,-1.2006219674914287,-0.27241818264557116,2.6266433368571427
3.144764098,-1.8311584109523809,-1.2608293486247621,-0.25354770974080926,2.73608019452381
3.149686252,-1.9899628275714283,-1.2902423476638096,-0.22712142278842828,2.8559849879523806
3.154608635,-2.157581352047619,-1.2967113476161907,-0.1934728523884283,2.987901029095238
3.15953079,-2.339374735238095,-1.282369015449524,-0.15723351787414255,3.1413647092857144
3.164452944,-2.5342033022857144,-1.2462442070019049,-0.12007937694080924,3.312873367666666
3.169375098,-2.729164254095238,-1.1940760662004761,-0.08361018846938066,3.490930860857143
3.174297011,-2.9099755003333336,-1.1232581152628573,-0.05848675903128543,3.6706221796666667
3.179219163,-3.085130203333333,-1.0304611154914287,-0.04086509248223781,3.8549435224761908
3.184141298,-3.233507780761905,-0.9307940701771431,-0.01698190229652352,4.0186765611904764
3.189063683,-3.3623213994761905,-0.8023974540628571,0.0022629546596669554,4.163085811666667
3.193985839,-3.471076931238095,-0.6252721703961907,0.01749362167871457,4.274742715904762
3.198907992,-3.563462972571429,-0.411665074872381,0.026824430797762193,4.355674636047619
3.203830146,-3.648348172428572,-0.17785846477714298,0.027782047535857435,4.417705548428572
3.20875229,-3.7206302255714285,0.07338373007999985,0.027115999688238385,4.458524435523809
3.213674444,-3.8020647536190473,0.3451535829371427,0.0061009516453812375,4.475938037761905
3.218596673,-3.8846063215238096,0.6080806836990474,-0.03899909865938066,4.479828052428571
3.223518829,-3.950206750809524,0.8492820731276189,-0.08916933724961876,4.4764389672857146
3.228441211,-3.9953160341904757,1.06383302808,-0.15112524192580923,4.466933842238095
3.233363136,-4.004369939999999,1.2481129296990476,-0.18592595740309492,4.453851467095238
3.238285227,-3.973172744047619,1.398303737222857,-0.20640062405547588,4.430676711571429
3.243207458,-3.9057258423809524,1.512378830270476,-0.2079532909602378,4.379267730142857
3.248129599,-3.8035052276666668,1.5985046894561905,-0.2119155295792854,4.299804858095238
3.253051753,-3.675703429047619,1.6622115927095238,-0.2211734819602378,4.201028750761905
3.257973907,-3.5289401894285715,1.7022455930619045,-0.24149248397928538,4.084734932619047
3.262896079,-3.366963329761905,1.7216628818047617,-0.2727434376364282,3.9516419364761903
3.267818462,-3.201742053047619,1.7227987873857142,-0.3143337251888092,3.813207134952381
3.272740618,-3.043236244285714,1.7111401217142856,-0.35948172461261874,3.6764569124285718
3.277662772,-2.901784573285714,1.687218646190476,-0.4128308200602378,3.552917204857143
3.282584926,-2.774891348142857,1.6530962671476188,-0.4742080122521425,3.4398923230476193
3.287507154,-2.6680443457619045,1.6121349845761903,-0.5520776780235711,3.3442877374285715
3.29242931,-2.574620922428571,1.5691150370047617,-0.6384120129616664,3.257348675571428
3.297351464,-2.494352346380952,1.5202858050523809,-0.7467193916140473,3.1794574657142856
3.302273618,-2.4224750144285716,1.4708578075761904,-0.8640852513997614,3.110797853333333
3.307195743,-2.3597951105714285,1.4212717158619046,-0.9881254888807139,3.052628295333333
3.31211782,-2.3073446807619047,1.3719793785285712,-1.1067872955569045,3.0021970295238094
3.317040049,-2.261002251095238,1.327917337433333,-1.2181201037997615,2.9618315817142857
3.321962228,-2.224711105952381,1.2946277175761902,-1.3363948634949996,2.945109243
3.326884611,-2.1993484440476188,1.275143288433333,-1.4383424789999997,2.948018690904762
3.331806772,-2.187507351238095,1.2681597641952378,-1.5301445211476186,2.975497553761905
3.336728695,-2.1814666872857145,1.268662288147619,-1.6141698984761903,3.0158822254761906
3.341651078,-2.161766881047619,1.270270813147619,-1.6862457592857139,3.046280114095238
3.346573224,-2.133509454285714,1.274753576290476,-1.7549284696190472,3.074158035380952
3.351495378,-2.107807460285714,1.278476431338095,-1.8232539437619042,3.1053246885238095
3.356417532,-2.0846759364761906,1.2816617659571428,-1.883611707428571,3.134962111714286
3.361339756,-2.062665224095238,1.2896426689571425,-1.9366670392380947,3.1632972144285714
3.366261912,-2.0225456555809522,1.2996477627190475,-2.0163145575714285,3.2090382951428573
3.371183969,-1.9640031286523811,1.3073173847142856,-2.1149060839523806,3.2666551706666667
3.376106121,-1.888991509166667,1.3198167199571427,-2.2527675571428567,3.3579584902857142
3.381028298,-1.8010469838380954,1.3344033417666665,-2.3986141738095235,3.4535323049047624
3.385950529,-1.704959980423333,1.3509550549047618,-2.53106364747619,3.532310339095238
3.390872594,-1.580001547575714,1.3752547672857143,-2.648007642619047,3.591027309142857
3.395794746,-1.4270995887280953,1.399513863380952,-2.7225919280476187,3.6078853123809527
3.4007169,-1.231781775442381,1.4224333365714283,-2.7506560768095234,3.5997568014285712
3.405639141,-0.9781753084423809,1.4354231981904761,-2.7466549305714283,3.6049951534285714
3.410561525,-0.6560613971090477,1.4290032443333331,-2.7399154560952375,3.6638667402380953
3.415483681,-0.22986140463285715,1.4092362891904762,-2.7827015036666665,3.841568007809524
3.42040582,0.27934139355761906,1.356086763590476,-2.8952378885714283,4.130886483047619
3.425327974,0.82513112351,1.2621703346571427,-3.05037399695238,4.470772637714286
3.430249878,1.3981040569861904,1.1299839502285713,-3.268552235142857,4.875446887285714
3.43517203,1.975491889462381,0.981835810895238,-3.5605089323333323,5.336698951904762
3.440094159,2.5484231108909525,0.8359138596095238,-3.8376609710952376,5.7970666697619055
3.445016543,3.098266416557619,0.6933560001809523,-4.100143216857142,6.237942969666666
3.449938699,3.573208714700476,0.5659129022761904,-4.3051919823333336,6.594724268476191
3.454860872,3.933884384557619,0.4723251404238094,-4.445525941380952,6.828716300809524
3.459783026,4.183531343414762,0.41328790243714275,-4.529465175761904,6.949003804999999
3.464705255,4.325029295986191,0.392897380522857,-4.590681938857142,7.0023716351904755
3.469627329,4.3508789633195235,0.4164990941895237,-4.597332613809523,7.013365143238095
3.474549557,4.284705963343334,0.479865047475238,-4.555936995,7.0314330962857134
3.479471713,4.161425872381428,0.556801905522857,-4.448596999761905,7.034974566380951
3.484393853,4.0118018759576195,0.6343757612371428,-4.28852719352381,7.029905061047619
3.489316007,3.8616693997333336,0.7011521901419047,-4.099151765995238,7.02521611257143
3.494238166,3.717650445980952,0.739366720427619,-3.8727271514142854,7.001389630428572
3.49916032,3.5935448250380952,0.748048528618095,-3.6781274378428566,6.972165919619049
3.504082702,3.451955966847619,0.7299086269990475,-3.515829246652381,6.937051897857143
3.509004627,3.265616020847619,0.6770578625752379,-3.3849706266523802,6.853760927190476
3.513926779,3.0115364461809526,0.5946865311704761,-3.256096529128571,6.708789951857144
3.518848923,2.655929742671429,0.46340991231333317,-3.093204769390476,6.473311854523809
3.523771308,2.2244624252904766,0.3008299118180951,-2.8690426222523806,6.177422648857143
3.528693464,1.7626526453904763,0.12888195146571416,-2.5876574672999997,5.86593246547619
3.533615626,1.2664323802571429,-0.05343905772476204,-2.2492877089333327,5.535273481809524
3.538537855,0.7628165496142858,-0.2705793917247621,-1.8282421118333327,5.193751746190476
3.543460011,0.2591569962714286,-0.5475257262961907,-1.4233566948809522,4.914065593761904
3.54838217,-0.21279688253809526,-0.8804593168200001,-1.0345431108347616,4.707877477333333
3.553304324,-0.5953682746380953,-1.2773054295819048,-0.7079606357490473,4.6404575627142854
3.558226401,-0.8597052750238096,-1.7444339392057144,-0.46884234353952353,4.742636686047619
3.56314863,-1.024222183804762,-2.2794335129333336,-0.30762686792047583,4.998188790047619
3.568070771,-1.108132184252381,-2.8866513300190477,-0.20691563011095204,5.369220715142857
3.572992848,-1.1219378986428572,-3.575996570590476,-0.14516762501571395,5.811466544142856
3.577915067,-1.1104822322142858,-4.306220180876191,-0.09971700006333302,6.242392698619047
3.582837452,-1.132725947642857,-5.034716107828571,-0.10559256482523778,6.655072624238095
3.587759608,-1.1987793381666667,-5.746261211780952,-0.17589041911095207,7.071651526809523
3.59268155,-1.3070339070714287,-6.424650840447619,-0.2730710850680949,7.485267972380952
3.597603702,-1.4556754365952382,-7.055383024638096,-0.39572223064904727,7.903151641333333
3.602526086,-1.6526681007380952,-7.6051273808761914,-0.5094029906966664,8.316382137333333
3.607448232,-1.869557527547619,-8.118151052542856,-0.5471089400823806,8.740338947333333
3.612370386,-2.0393956608809525,-8.528365208452382,-0.5469184663204759,9.110335550428571
3.61729254,-2.156660709357143,-8.841721818,-0.46134309008238067,9.434098549904762
3.622214779,-2.2164619018476195,-9.04438896352381,-0.2952303804871426,9.698272168666668
3.627136857,-2.2086761870380953,-9.134519667333333,-0.09694384714904736,9.874316938142856
3.632059009,-2.152234570595238,-9.139328797142857,0.10382368694619075,9.981722744666667
3.636981163,-2.0548972849380953,-9.070161115047618,0.30596149496047653,10.028430423190477
3.641903394,-1.9416808081523809,-8.922525405380952,0.5063268808128575,10.012654347761904
3.646825565,-1.8359410457619045,-8.687841494380953,0.6879466385271432,9.900869640952381
3.651747642,-1.7508209482380952,-8.372932331428572,0.8436092116238099,9.694226429809524
3.656669794,-1.7059224254714287,-7.97165902404762,0.9858449696809527,9.39563101047619
3.661591943,-1.6841638549142859,-7.489374895323809,1.1352918317571432,9.02533555390476
3.666514174,-1.6655726184095239,-6.9333997989,1.3101689190428576,8.621757371380951
3.67143633,-1.5340678606285716,-6.2855918374714275,1.5374877338523814,8.25816222604762
3.676358722,-1.302234050752381,-5.556808740947619,1.8302111625190478,7.952456154047618
3.681280878,-0.984689340704762,-4.787868417042857,2.1740494398523813,7.711929206714286
3.686202801,-0.5714854428,-3.9957050224238095,2.518007522519048,7.487582988761905
3.691124963,-0.08616419351428578,-3.1845818784714286,2.838577423757143,7.263792853333334
3.696047116,0.4531522790095237,-2.3607723456142855,3.136913180328572,7.08386229352381
3.700969279,0.9689347714857142,-1.5154194009000002,3.404087083661905,6.928727445333333
3.705891433,1.4587103837714284,-0.6843473429000001,3.6187172730428574,6.824764295333334
3.710813587,1.8985803325809525,0.14973557848095226,3.7065339371904766,6.715416892333333
3.715735967,2.255151371152381,0.8997284486238093,3.757085890952381,6.660618137904762
3.720658122,2.4908912777714285,1.583046019052381,3.697084324666667,6.620117717285715
3.725580276,2.559145899004762,2.199294649385714,3.584003806095238,6.599742842904762
3.73050251,2.440178800147619,2.743413167338095,3.4580730767619046,6.630144368190476
3.735424666,2.2197364653190474,3.2241674520047616,3.305310306142858,6.678990105904761
3.74034682,1.9425576101761903,3.6669014437190475,3.155569831571429,6.745050801285716
3.745268974,1.6279570403190475,4.070052774242857,3.0097278754285717,6.827361002571429
3.750191128,1.3118111887952382,4.444980192814286,2.9078478813333337,6.951639471142856
3.755113272,0.9919329511761904,4.7916583817190475,2.859740211857143,7.126709726190477
3.760035349,0.6678779152714285,5.104513954623809,2.81849049952381,7.351711367380953
3.764957587,0.32229996286190465,5.381149678090476,2.773558542809524,7.629328271047619
3.769879743,-0.042536568147619115,5.621805622571428,2.7105075460952386,7.926125560619048
3.774801897,-0.5134272831476191,5.802437282857143,2.5787935426904767,8.14928984695238
3.779724093,-1.035850573195238,5.939555247761905,2.3563169226285714,8.25264173347619
3.784646247,-1.5534784709095242,6.0322062402857135,2.0497603117952385,8.245665932904762
3.7895684,-2.0591318522428574,6.06104610095238,1.7504150341761908,8.186880316761904
3.794490788,-2.5483969535285715,6.030534290285714,1.4870777967000004,8.092782074857142
3.799413021,-3.0273681850523806,5.941342433428571,1.2224567546523812,7.941148022428572
3.804335098,-3.4729035269571433,5.786264101761905,0.9529174267952385,7.786054664238097
3.809257327,-3.8594036131000005,5.5744989259999995,0.7086190936047622,7.59966268504762
3.814179405,-4.165296319004763,5.3311724777142855,0.5015994807000003,7.401607694952381
3.819101552,-4.426743033385715,5.101999998190476,0.291076102414286,7.218457610761905
3.824023706,-4.610325413052381,4.879472891619048,0.11379148703333361,7.058281784666666
3.82894586,-4.679917414952381,4.670081649666666,-0.08600885101428545,6.909211149380953
3.833868091,-4.629899649333334,4.479336500285714,-0.30161179391904736,6.744113931380953
3.838790247,-4.522161216904762,4.311578353333333,-0.4970370375380949,6.580793299000001
3.843712353,-4.38098293252381,4.152997312190476,-0.6932055113476188,6.4123027882857135
3.848634581,-4.204859171523809,4.001765364761905,-0.9062453239666662,6.244984266857143
3.853556737,-4.000542748452381,3.8473368032380955,-1.1525446589190473,6.077252217428572
3.858479135,-3.760072084657143,3.685904809476191,-1.4288281388238093,5.899885772809524
3.863401291,-3.4569565237809523,3.5179436604761904,-1.7111031854428569,5.731713667619048
3.868323445,-3.087780856923809,3.3398934603333337,-1.9691855639190474,5.540571178904763
3.873245598,-2.6528778029238094,3.1411241350000005,-2.2218170011095233,5.341457756761905
3.878167522,-2.1819089888285714,2.933424995095238,-2.426905854942857,5.143616484571429
3.883089664,-1.7250640799714285,2.721609317152381,-2.5915601424999997,4.963730243809524
3.888012049,-1.3096829889714285,2.510879987785714,-2.730594425095238,4.812603746428572
3.892933998,-0.9421209334000001,2.3120178495238095,-2.852850658666666,4.682923919142857
3.897856381,-0.6056984559714286,2.122517524728571,-2.953804510095238,4.5694251412857145
3.902778613,-0.2694791338761905,1.929732429133333,-3.036908984333333,4.489124020190476
3.907700776,0.07919638964761899,1.726965758085714,-3.0944335575714286,4.4040676543809525
3.91262293,0.40065619393333324,1.530746850242857,-3.15055865347619,4.349193990857143
3.917545084,0.7267040004095238,1.3439158073761905,-3.2111597516666666,4.358346065047619
3.922467272,1.0562218530761904,1.158065856947619,-3.25776276147619,4.396409534761905
3.927389426,1.3856938499333333,0.9682350485190474,-3.299675532857143,4.458238981809524
3.93231158,1.7288332258857142,0.7763165221380952,-3.338613532952381,4.5488734206190475
3.937233729,2.0815901802190475,0.5850255248523809,-3.378642298047619,4.6688949740000005
3.942156111,2.440019277219047,0.39604585942380943,-3.414452053380952,4.807713748476191
3.947078031,2.7970382758857144,0.21191390218571418,-3.4473612423333333,4.9619469182380955
3.952000414,3.1524698496000005,0.035698043519047526,-3.4605052926190467,5.121979995714286
3.956922585,3.4863288504809526,-0.12448876948095247,-3.453683194714285,5.274334592095238
3.961844739,3.7906869422095233,-0.26159048785238104,-3.4251987593809523,5.4159125637142855
3.966766671,4.045348173,-0.37455572393809533,-3.3641774200476187,5.5234358336666665
3.971688823,4.25535651604762,-0.46378348513809525,-3.2862440858571427,5.607924109761904
3.976611207,4.421461513952381,-0.5194907219666667,-3.195623976857143,5.668869564047618
3.981533363,4.542079516714286,-0.5433600547952382,-3.0953424544761905,5.6987425412380945
3.986455592,4.624007236285714,-0.5483084352428572,-3.0028897353809523,5.7047379234285716
3.991377748,4.680688857952381,-0.5278262442095238,-2.888838404714286,5.685644903190477
3.996299882,4.760924713857143,-0.4848210559000001,-2.7407224093380953,5.680989281857143
4.001222036,4.857529435761905,-0.42624657948571437,-2.5558915564190476,5.703361354142857
4.006144108,4.937356642238095,-0.34899191231904775,-2.3669528932857142,5.727085238952381
4.01106626,5.019716455714286,-0.2565491528904763,-2.161468514380952,5.7615402789047625
4.015988486,5.103365126,-0.1630378183809525,-1.9326772718571428,5.796675951380952
4.020910642,5.158389942904762,-0.07237938925714296,-1.6662696117619045,5.815328874047619
4.025832719,5.196248701571429,0.02152070941904753,-1.3918899382857142,5.8295981160476185
4.030754876,5.230690694904761,0.12100037902857134,-1.1290818424761901,5.84081616595238
4.035677106,5.225657792238096,0.21689490304761896,-0.8634942174285711,5.813289486714286
4.040599262,5.192627691047619,0.3068750937380952,-0.5995573117619045,5.7536544653809525
4.045521416,5.132454156857143,0.38722794931904747,-0.3445138846190474,5.66595378552381
4.050443799,5.038418576809524,0.4554528081304761,-0.08686360004761884,5.548728684190476
4.055365955,4.91087895347619,0.5141271435971427,0.16792231233333355,5.404722674428571
4.060288078,4.759966623238095,0.5484974765447618,0.41482897885714304,5.242495584238095
4.065210232,4.593520153190475,0.5499532405209523,0.6285166428571431,5.067249010809523
4.070132155,4.439914873761905,0.5135634340828571,0.7911543051857146,4.901691102380952
4.075054524,4.313851822095238,0.44112976904476175,0.9002892066766668,4.774403895761905
4.07997668,4.190223875619048,0.34160752820666657,0.9762069643671432,4.658952100380953
4.084898834,4.064864306333333,0.22003119627333323,1.0272831523433334,4.5517659833333335
4.089820988,3.943187350428571,0.09079262485428562,1.0741689606576192,4.44990689
4.094743141,3.821086015095238,-0.054012375098095325,1.1128280564147621,4.356180541142857
4.09966529,3.6820463453809524,-0.2057167091933334,1.1292665320957145,4.248618964666666
4.104587444,3.521069813409524,-0.35758946895523824,1.1019792936814288,4.1193285233333325
4.109509598,3.3360370398380956,-0.5040095674314287,1.0774112468385717,3.9720178265714283
4.114431832,3.131875702404762,-0.6364080421933335,1.0346557722052383,3.8113591998571428
4.119353988,2.919125461947619,-0.7563453315266668,0.986029340824286,3.6461647953809524
4.12427637,2.689489356713333,-0.8635764290695239,0.9231802023385717,3.469538335476191
4.129198497,2.442672410784762,-0.9662770002695238,0.8563755832433335,3.286155572476191
4.13412042,2.183938181713333,-1.061476761212381,0.8031413523385718,3.103453782
4.139042557,1.936023281341905,-1.1517491424219048,0.7555764938623812,2.9402408502857145
4.143964711,1.6957684746990476,-1.2375432875885717,0.7252626330528574,2.792588786857143
4.148887096,1.4618684825561905,-1.3215634807409526,0.7182227284814288,2.674026264095238
4.153809012,1.2479820640561905,-1.402160197504762,0.7274938165766669,2.5898387107619047
4.158731163,1.0559400652228572,-1.4828426738761906,0.739192289624286,2.527648263047619
4.163653548,0.8875046803752381,-1.553995152347619,0.7648321869100003,2.495643051857143
4.168575718,0.7363816774704761,-1.606877820857143,0.8126340958623812,2.489099214904762
4.173497872,0.5781518694419047,-1.6397192535238097,0.9016131385814289,2.4881770063333333
4.178420026,0.4001521033419047,-1.6509601616190477,1.0173276655190477,2.466639778095238
4.183342254,0.2190558163228571,-1.644572013904762,1.1558738116380955,2.436804072857143
4.18826441,0.050339144418095186,-1.6270761546666666,1.2978453401857146,2.4147867324761902
4.193186564,-0.11603528353428577,-1.5967584394285714,1.4339811510619052,2.406721340952381
4.198108612,-0.2831758979628572,-1.547937535109524,1.5394617708761908,2.4252380381904763
4.203030841,-0.4671994655342858,-1.4851057245523809,1.6135226764380957,2.467714742190476
4.207953007,-0.6670244600390477,-1.405587108279524,1.6703917738380956,2.5390007205238097
4.212875389,-0.8836811704676192,-1.31348734377,1.6999583939190477,2.6511317772380956
4.217797314,-1.1101222699866669,-1.2099663430033334,1.7118203951714288,2.792342918
4.222719475,-1.3359759302438097,-1.101070913474762,1.6988107760285716,2.942176765857143
4.22764186,-1.5524935112,-0.9850027206176192,1.6596483013,3.0875105038571427
4.232564016,-1.7477434164142858,-0.8611052930461904,1.6043473952857146,3.2201347607142856
4.237486175,-1.9404204572952382,-0.7269632461414286,1.5321926782238098,3.349141698095238
4.242408329,-2.115039977304762,-0.5840727700938095,1.4595462490733335,3.4606488980476193
4.247330482,-2.2805877839,-0.433629579474762,1.370950440097143,3.5549133253809524
4.252252631,-2.436238261947619,-0.2754461978080953,1.2615121995638097,3.6278378049523807
4.257174785,-2.5795642620190478,-0.12003933671285719,1.1372548705923813,3.6697285701428566
4.262096925,-2.7253465510904764,0.04056104171571423,1.0231411558676193,3.7052179901904765
4.267019079,-2.880291602480953,0.21225361747761898,0.8919862085390479,3.7413582881904763
4.271941317,-3.0596955078142853,0.39929466738238095,0.7384035391200003,3.806926841809524
4.276863472,-3.2578066985,0.5947080524776189,0.557761257834286,3.8993348806190475
4.281785549,-3.4708544555428578,0.7984142942871428,0.349372304881905,4.0287744091904765
4.286707807,-3.691802657809524,1.0019557660966665,0.1270676314533336,4.187001921190476
4.291629886,-3.9179759877142866,1.1974044826204762,-0.09573161292761878,4.373541883190477
4.296552043,-4.132470982428572,1.3740629142871428,-0.30891999430857114,4.577053798
4.301474197,-4.328426610857143,1.5319328663490477,-0.517912515260952,4.789948126238095
4.306396428,-4.503999573857143,1.6713181578395235,-0.7111088460228568,4.998895665
4.311318578,-4.656625191380952,1.7914770656619046,-0.8966469903561902,5.193053897761905
4.316240961,-4.767832585761905,1.893665112152381,-1.0711629444419044,5.349395964285715
4.321162886,-4.841415393952381,1.981390825290476,-1.234511800870476,5.4700193155238095
4.326085033,-4.894805601714286,2.059370546047619,-1.3806831833466664,5.569679319142857
4.331007187,-4.932926030428571,2.1279688278095237,-1.5108614184657139,5.653653999190476
4.335929332,-4.967646224190476,2.1864373059047617,-1.6288629869276188,5.731842588285714
4.340851486,-4.986947139142857,2.236949307523809,-1.734429128770476,5.7932745296190475
4.345773639,-5.008436486857143,2.2838814485238097,-1.8365624667152378,5.854918318571428
4.350695793,-5.028880108,2.3266949767142853,-1.9274101817390474,5.9141092497142855
4.355618178,-5.04527396247619,2.3696513176190477,-2.0046476600628567,5.967961658666667
4.360540319,-5.066808916285715,2.4204356954285715,-2.0776444722819045,6.028416770285714
4.365462548,-5.084673098142857,2.471580170428571,-2.1508976632238097,6.08240686747619
4.370384703,-5.083337431857143,2.5160378387619042,-2.1838534729428565,6.108773941142857
4.375306823,-5.045241526190476,2.5455263114761904,-2.1666762360095237,6.090717496523809
4.380228977,-4.973880381809524,2.5631828308095237,-2.1011949024857137,6.033527353571428
4.385151054,-4.8709282874761906,2.5632180145714285,-1.9880873815857139,5.933195071571428
4.390073269,-4.74025460647619,2.5510204406190473,-1.838073852480952,5.800755714809524
4.394995425,-4.573574565666666,2.530568963,-1.6552130409571426,5.638208979809524
4.399917579,-4.376259570952381,2.5007276705238093,-1.4591123745761903,5.451175199666666
4.404839732,-4.144757469428571,2.458399625047619,-1.2535414724333331,5.229670571190476
4.409761905,-3.885142127614286,2.400672095190476,-1.0525642378142854,4.9792707086190475
4.414684059,-3.593281467714286,2.323505997685714,-0.8459926190999997,4.708235255666667
4.419606213,-3.2845196475047618,2.231957713785714,-0.6490790475285712,4.427764844619047
4.424528377,-2.9690874055190477,2.123184094852381,-0.46554895529047585,4.151028473809524
4.429450531,-2.6371878249952383,1.9996047559661907,-0.3042381917238093,3.8955916153809524
4.434372913,-2.289886864090476,1.8579844265376189,-0.1666245276523807,3.680792009666667
4.439295083,-1.9519714321857145,1.700023804437619,-0.07460495832380926,3.4909861964285716
4.444217237,-1.6133794251380953,1.5201112770090475,0.002808563719047887,3.3395512443333333
4.44913916,-1.2659287941380952,1.3224464201042856,0.07677737725714313,3.2253006830476196
4.454061524,-0.8946678445666666,1.1035056568185713,0.14537142709523837,3.165934429809524
4.45898368,-0.48441527347142854,0.878642604437619,0.1943231919952384,3.165945134380953
4.46390582,-0.038021125138095205,0.6618971313423808,0.24053657477142887,3.2098487155238096
4.468827973,0.42615834529047625,0.47125327586619037,0.2856020998047622,3.2734472515714286
4.473750202,0.8957349198142859,0.3171466532138094,0.30909557566190504,3.3642961692857147
4.478672271,1.358604246052381,0.21455541678047613,0.2854475279333336,3.4730545529047623
4.483594423,1.8247801087666666,0.1692254202566666,0.2020831945047622,3.6219085997142857
4.488516577,2.298817619766667,0.17597933039952374,0.11243400684285743,3.8091920898571425
4.493438717,2.7907959925761907,0.21801509173285707,0.005573718309524091,4.042272704714286
4.498360947,3.299228153814286,0.300931419637619,-0.22231071621428544,4.354416117571428
4.503283332,3.8342439582428574,0.41471641973285706,-0.5903510054047616,4.78068947752381
4.508205463,4.361444225671429,0.5800208932090476,-1.0745287310714284,5.320160564428572
4.513127386,4.8730811072857145,0.7873158909233331,-1.6234423005476186,5.940281211047619
4.518049538,5.343282679052381,1.035460750285238,-2.1984376083571426,6.593827932380952
4.522971644,5.76954522022381,1.288420853185238,-2.736651815023809,7.2290436016666675
4.527893798,6.1630746467142865,1.5105021979280953,-3.1812078355952376,7.79302781847619
4.532816182,6.510469879428571,1.6961961048142857,-3.4730779414476185,8.23897078204762
4.537738333,6.772321349095238,1.8655984430047619,-3.6719835612809524,8.568837915
4.542660487,6.914804731095238,1.9986483993904762,-3.7773870413714286,8.751164086809524
4.547582716,6.964316629238095,2.1002891631476186,-3.861302941985714,8.826485714333334
4.552504815,6.948137249285713,2.1653356885714286,-3.9265176043333336,8.823667183142858
4.557427043,6.85856548947619,2.2124838311285715,-3.9755534174571427,8.750621968619047
4.562349199,6.704324393047619,2.2540317823666665,-3.9915279419285716,8.611868194285714
4.567271362,6.507602339666666,2.2659376852714286,-3.981559655461904,8.437893493333334
4.572193516,6.292508057142857,2.2320199743666667,-3.967052847114286,8.265515240619047
4.577115593,6.064530962952381,2.129164263590476,-3.9537880846095237,8.111183413380953
4.582037846,5.844312872190476,1.9343576480714286,-3.8956333213999996,7.994856654380952
4.586960002,5.625693673190476,1.634478602357143,-3.7831767981619047,7.90464798447619
4.591882141,5.417496681190476,1.224975505738095,-3.671518037685714,7.857450721761904
4.596804295,5.1953995454761905,0.7290810736428571,-3.5451815596380953,7.833969176809523
4.601726444,4.907756964333333,0.14277602302380948,-3.294800078542857,7.78977570895238
4.606648598,4.550584634095237,-0.4776852819761905,-2.863582317257143,7.6663599762857135
4.611570752,4.154057934142857,-1.2334291487857143,-2.2735838335904757,7.551507029142858
4.61649292,3.703924623233333,-2.033796753738095,-1.563843785447619,7.408698127238095
4.621415302,3.2114546227761904,-2.8609975072142855,-0.7844412341142857,7.272913692
4.626337458,2.672302466061905,-3.664145731547619,-0.015379691447618823,7.1765805186666665
4.631259678,2.078207656014286,-4.383232832690476,0.6859775142666669,7.151941753428572
4.636181757,1.4750091958714286,-5.015289261976191,1.2774289548380955,7.2313272015238095
4.641103856,0.9384142033000001,-5.567531858880953,1.8015045197428574,7.366897600952381
4.64602601,0.5487522553952382,-6.007214297119047,2.2555464208380953,7.575174374523809
4.650948164,0.26074230530000003,-6.328071583590476,2.6479967534571434,7.778584250714286
4.655870298,0.03853901653809527,-6.540375578966666,2.994154270219048,7.974635841904762
4.660792452,-0.11876345960476188,-6.669507248047619,3.3057247102190477,8.148066972380953
4.665714625,-0.23475122027142856,-6.755340769142856,3.5852811946476195,8.305271306142856
4.670636779,-0.32977588544761904,-6.795593477380953,3.8292518101666673,8.44121677795238
4.675558933,-0.416155507152381,-6.787891859047619,4.041778483547619,8.53597278704762
4.680481063,-0.5208731733571428,-6.719995913000001,4.21336853642381,8.565075088809524
4.685403524,-0.6272741229809524,-6.598451676761905,4.3446793981428575,8.533133440047619
4.690325449,-0.7277103118090475,-6.418688155300001,4.443231775619047,8.427549647619047
4.695247616,-0.8462431212614285,-6.161925772761905,4.514994490666667,8.229878771714287
4.700170001,-0.9749507430328572,-5.831084621723809,4.551784208761905,7.949994410476191
4.705091926,-1.0696341290519047,-5.424962188103334,4.537848591714286,7.596814879857142
4.710014059,-1.1472710819661904,-4.990126975531904,4.453013641380953,7.2046089458095235
4.714936213,-1.2234584123090475,-4.443687583379524,4.314525975966667,6.7087458810000005
4.719858351,-1.2716146496280953,-3.8646145943890478,4.126099972404762,6.199180611714285
4.724780505,-1.2592124585757145,-3.2688807473414285,3.891760919666667,5.673749651571429
4.72970289,-1.1765324148614285,-2.66181205529381,3.6506180109523814,5.1676096794761905
4.734625085,-1.0320909379614287,-2.0771656373414285,3.3902714450380955,4.680854277095238
4.739547239,-0.8825553274185713,-1.5121291134366668,3.119199778276191,4.226590076952381
4.744469393,-0.7934749482757142,-0.9744482377700001,2.8446602621809527,3.843971387380952
4.749391541,-0.7686261465138096,-0.48142589810333325,2.5886339828476195,3.5552387239999996
4.75431377,-0.7836882402757143,-0.04407718034142856,2.382496501657143,3.3720527455238094
4.759235926,-0.8295529585614286,0.3503750509442857,2.196353313419048,3.2630383189523804
4.76415808,-0.9128994332757142,0.7109030091347619,2.017894588752381,3.2141871614285713
4.769080157,-1.0326496207995237,1.0445585254204761,1.8493879608000001,3.208581214190476
4.774002304,-1.1793692354804761,1.3537965618966668,1.694881487514286,3.228489306428572
4.778924458,-1.342195668537619,1.6382589400395238,1.5480147174666672,3.279447042571429
4.783846664,-1.5072158590947617,1.9074263178966666,1.4179796633714288,3.386452946142857
4.78876882,-1.7069182298519048,2.1774371752299997,1.2818688963714289,3.5361814335714286
4.793690974,-1.9255395624047618,2.443432609577619,1.1593913294380955,3.7042245387142856
4.798613147,-2.129135082904762,2.6918727020871427,1.054682041971429,3.872852427761905
4.803535301,-2.3178094108,2.9205710280966666,0.9657138004904764,4.047902080095238
4.808457455,-2.505261602209524,3.127980797047619,0.8958840372785717,4.243093127190476
4.813379842,-2.6897682725809524,3.3198545688571435,0.8430586564138098,4.457984013809524
4.818301998,-2.848629610952381,3.4953888456095243,0.8059970375052382,4.673068123285715
4.823224152,-2.9857335687238096,3.651913376095238,0.7663693243090477,4.867576481142858
4.828146306,-3.1265045263190476,3.7950724249999994,0.7285524184052383,5.052540286904763
4.83306846,-3.2597023334619046,3.9100759937619047,0.6774457060585717,5.203211563619048
4.837990594,-3.380477280933333,4.007382370190476,0.6295398020385716,5.335614860619048
4.842912518,-3.475831134047619,4.077306077619047,0.5707313248714287,5.429755867904762
4.847834977,-3.50452446947619,4.116604646095238,0.5198605146238098,5.466172287285714
4.852757171,-3.4856527079523807,4.134409075761904,0.47194989525714315,5.458838159809524
4.857679325,-3.4426359903809525,4.1396005494761905,0.4175751351714288,5.4277523915714285
4.862601479,-3.3842733645238097,4.133609692285715,0.35753332687047645,5.380914766380952
4.867523561,-3.312908411142857,4.115192640428571,0.3028663759080955,5.320084684809524
4.872445789,-3.2291014138571423,4.08990588647619,0.246703757431905,5.246805818904762
4.877367959,-3.126729562238095,4.059301887285715,0.17799780552714312,5.158009047714286
4.882290113,-3.004568031952381,4.018431606761905,0.11178790317000024,5.053717927666666
4.887212267,-2.852163224066667,3.95887033147619,0.05581657163190501,4.921943925761904
4.892134455,-2.66179052142381,3.880469515238095,0.015092715627143115,4.7572489676666665
4.897056609,-2.4572197128428575,3.7925474076190477,-0.03506380815857118,4.586498198952381
4.901978991,-2.2588688596714284,3.7007551760952384,-0.08842190319190452,4.429034791619047
4.906901147,-2.0657327224904765,3.6061002754285716,-0.14144052281095212,4.283981442380953
4.911823315,-1.854614816252381,3.5087093625714285,-0.1873406166466664,4.143658786904761
4.916745238,-1.6139027639190475,3.403618063238095,-0.22592195012476166,4.002753271428571
4.92166739,-1.3442068575380952,3.2914372171428568,-0.2708665217209521,3.879038942
4.926589814,-1.0396469909666668,3.170338494428572,-0.30364966450095215,3.7774737781428573
4.931511739,-0.7471082232047618,3.0359032551428573,-0.31300747381142835,3.659599450190476
4.936434121,-0.4741911342047619,2.895585116904762,-0.31291356904428547,3.540573986714286
4.941356354,-0.20006357134761896,2.755734318809524,-0.30957214046380926,3.4350649774761903
4.946278508,0.08585614031904767,2.6187908933809525,-0.30781985473476164,3.3527325066666664
4.951200662,0.37351181174761916,2.4876099456238094,-0.31987323585619026,3.308393396857143
4.956122816,0.6622802962238096,2.361206943090476,-0.3375177114714283,3.293662233095238
4.961044893,0.9675797599380954,2.2280288480761903,-0.36540575831428546,3.309162316666667
4.965967029,1.2973030443190476,2.0851998982238094,-0.3945452341228569,3.3569371146666667
4.970889183,1.648737178652381,1.9368691841904764,-0.4316711873747617,3.4361242636190474
4.975811424,2.020587935985714,1.784895610252381,-0.4730888996128569,3.541180417142857
4.98073358,2.3941359781761906,1.6359685198238094,-0.5203923307080951,3.6731693962380954
4.985655734,2.7565828710333333,1.4901583265904763,-0.5674241860176188,3.822270341666667
4.990577917,3.101373670290476,1.3500234647904763,-0.6145449459080949,3.9774440896190475
4.995500299,3.4310569655999994,1.2150287557428572,-0.6581178542842855,4.139020363904762
5.000422224,3.740981688733333,1.0838277138109524,-0.6852685703747616,4.303651843142857
5.005344607,4.02226091984762,0.960303518802857,-0.7001096642557141,4.464708973857142
5.010266763,4.273613205904762,0.84466457016,-0.6999108061271426,4.611631711190476
5.015188917,4.484847102761905,0.7418953805314286,-0.6895741884985712,4.7394965735714285
5.020111056,4.663184188571429,0.65319305096,-0.670689949755714,4.8568499888095245
5.025032979,4.8114953267619045,0.5779137157790476,-0.6057266643461903,4.962977774571429
5.029955131,4.930328369095238,0.5166412407742857,-0.44464814599857116,5.087305532428571
5.034877592,5.051838466047619,0.46808861979809524,-0.22657747114142837,5.2701460582857145
5.039799657,5.187305234714286,0.4342240478457142,0.008009013866666923,5.484650818190476
5.044721811,5.303172860809523,0.41148952217428575,0.28347524717285744,5.716104137095239
5.049643965,5.380412896476191,0.4078605245838095,0.5702611420871432,5.934004574333334
5.054566194,5.416337932857142,0.4144703362457143,0.8844244742657146,6.142954600809524
5.059488272,5.407327209190476,0.41765771733142865,1.1967141315809526,6.318564902095238
5.064410424,5.359399931761905,0.4177907151647619,1.4440583770809527,6.392592748238095
5.06933264,5.282566411142857,0.4125225728266666,1.6366835619523812,6.384748257142857
5.074254796,5.1841269901428575,0.40111038157428575,1.760490847452381,6.3022120575238105
5.07917695,5.069868417,0.3850535241042858,1.8027647499000004,6.183690776761905
5.08409907,4.938313904285714,0.3668433337138095,1.8151452760809528,6.052633099904762
5.089021224,4.797495387857143,0.3592551906985714,1.7651329373666669,5.940440180428571
5.093943392,4.639806543095238,0.36394833341285715,1.6657992707476192,5.851758168761905
5.098865546,4.482350814952381,0.3605880002271429,1.563488840319048,5.766231317
5.1037877,4.335360992571428,0.3373254288590476,1.4987641735571433,5.6607085323333335
5.108709854,4.17811795647619,0.3071614769338095,1.4460779817952383,5.539588642857144
5.113632237,4.012058530571428,0.27079909572428573,1.4033603121000002,5.404780606666667
5.118554152,3.8520308733333337,0.22252133376238095,1.3769662173761907,5.2660893255714285
5.123476304,3.6796458789523814,0.16315114243857143,1.3567450748333336,5.113542097714285
5.128398688,3.4762770306571427,0.09865380781952382,1.3105446475619051,4.9303562177142854
5.133320839,3.235252126342857,0.03452528545761905,1.1698227481476193,4.6897301266571425
5.138242993,2.9771403138380954,-0.02682938007095238,0.958619120866667,4.403684222904762
5.143165222,2.7058019304619045,-0.09112509488047618,0.7233731120607145,4.098171801609524
5.148087364,2.452454261133333,-0.16245823643285714,0.43588387879880974,3.767221569319047
5.153009517,2.229046128161905,-0.2504611878042857,0.13621531695595265,3.441981209376191
5.157931671,2.0331513291219045,-0.34858828609,-0.19006634837261877,3.1146144320428575
5.1628538,1.871276285512381,-0.446861855737619,-0.5166227201440473,2.810537213804762
5.167775954,1.7246422858219046,-0.54444956889,-0.7641641080059522,2.5929826511857144
5.172698031,1.584351472031429,-0.6400447101280953,-0.9395134840535713,2.4384594606142858
5.177620294,1.4462746131742859,-0.7308671861280952,-1.0281271499249998,2.3414134134714284
5.182542373,1.304345713317143,-0.8207568041961905,-1.0239654354802379,2.2664459063761906
5.187464601,1.170666661102857,-0.9172403768057142,-0.9845724348183331,2.2002400831857143
5.192386757,1.0503807101504763,-1.0337696670809524,-0.878070669627857,2.1252596572333333
5.19730914,0.9622722330076191,-1.1737821853761905,-0.7098990055435712,2.044199498566667
5.202231296,0.8784783317219048,-1.3081752841904764,-0.5345915251778569,1.965783943661905
5.207153421,0.7984615257219048,-1.4323639982714287,-0.3867610956254759,1.9282120078047622
5.212075574,0.7485829965790477,-1.5711092381,-0.22822690372071397,1.9475475370428572
5.216997714,0.7479287987219048,-1.7209457158666668,-0.0641963745302378,2.0301157345190477
5.221919868,0.768494847817143,-1.8684787182285714,0.08298809956500029,2.1466393831380954
5.226842017,0.8083922272457145,-2.006203100761905,0.21178976327928603,2.2834920159
5.23176394,0.8710185578742857,-2.1289711991523808,0.2963618088697622,2.4246896572809526
5.236686097,0.9354056990933335,-2.2324443402142857,0.3607675219030955,2.5525473397190472
5.241608251,1.0085225075028572,-2.317784391614286,0.3956148562840479,2.656414303185714
5.246530635,1.07024174626,-2.3947240624238098,0.4425015222090479,2.7469135498142854
5.251452819,1.1008496992171428,-2.460928210104762,0.520470761804286,2.8328770375333336
5.256374973,1.0961046041361906,-2.5064943517142857,0.6102417146471432,2.9106558421904762
5.261297202,1.0495803675380952,-2.5306352546666666,0.7180250932138098,2.990537945047619
5.266219344,0.9657329412904762,-2.531944921952381,0.8411298542709525,3.0783631025238094
5.271141498,0.8437916132190476,-2.5025137804142856,0.974969898609048,3.1776641385238094
5.276063652,0.6830664709619049,-2.4361513064904763,1.1107636568947623,3.2893307029523813
5.280985714,0.47118656758095245,-2.329583973352381,1.233284089147143,3.4206803157619046
5.285907943,0.22729751958095248,-2.201239165057143,1.352936230207143,3.569240611809524
5.290830108,-0.05352227963333324,-2.047197114104762,1.4734890921738097,3.733079947142857
5.295752262,-0.3554526192047618,-1.8820375878190476,1.592225230126191,3.891586048238095
5.300674421,-0.658955468347619,-1.7009130709142857,1.7435395142323813,4.046645454380952
5.305596575,-0.9476149501095237,-1.524996972495238,1.8962518458666668,4.184431632428572
5.310518729,-1.2530964180619046,-1.3334454517809522,2.0309394626,4.307389123904763
5.315440896,-1.593112794442857,-1.1072342615428572,2.114918314219048,4.412954058095238
5.320363049,-1.9862146455857141,-0.8519868786857142,2.1343635462190482,4.499910068285715
5.325285433,-2.40415846382381,-0.5797143032095238,2.115301214504762,4.587540042952382
5.330207604,-2.8296408958714285,-0.3043372056380952,2.0585192640571432,4.682470631809524
5.335129758,-3.247581523823809,-0.03904176825714281,2.000641979614286,4.7994543693809515
5.340051911,-3.631217090157143,0.20888908769523815,1.927512552766667,4.947399098523809
5.34497406,-3.9903312261571426,0.435552143552381,1.851513695861905,5.116827433238096
5.349896214,-4.317068462585714,0.6427086711714286,1.7530798862190475,5.284912936285714
5.354818392,-4.610344230452381,0.8328867703142857,1.6314794569809525,5.449801342619048
5.359740546,-4.867162048828571,1.013719434504762,1.4906303605523812,5.613782722714285
5.364662719,-5.082157276952381,1.1933803337904763,1.3334033155523812,5.767995941
5.369584873,-5.254427047,1.3691346197904761,1.1703684109809527,5.902387628238095
5.374507026,-5.375025578904761,1.5339061454428573,1.007167936061905,6.005162214285714
5.379429145,-5.446268626619048,1.6801459519476192,0.850542131619048,6.069840743285714
5.384351298,-5.455826623095238,1.7987025238095238,0.7189662704523813,6.090950656904762
5.389273529,-5.421976997714286,1.9074113368952381,0.6014282723043812,6.075175723095238
5.394195924,-5.348402193571429,2.0067003340857146,0.504045076866286,6.028598078666667
5.399118079,-5.257712091666667,2.112452092609524,0.4141882237758098,5.971923107904762
5.404040233,-5.17197914347619,2.2153217168,0.28931279749961936,5.90275194652381
5.408962142,-5.100670712285715,2.329061474095238,0.15687213114723841,5.8460675590476185
5.413884294,-5.022969200428571,2.4421602828095237,0.026393943437714586,5.78724231852381
5.418806443,-4.918124255619047,2.542525620666667,-0.082580720533714,5.7132714962857145
5.423728597,-4.782693351952381,2.626744855,-0.15003328750038067,5.6222631591428565
5.42865077,-4.600136348095238,2.7025828531428573,-0.1808881910289521,5.5057002513809525
5.433572924,-4.390037002952381,2.7784899983809526,-0.17042980962419016,5.380817223047619
5.438495078,-4.173169470904761,2.8531027067142856,-0.1313270488146664,5.256446874095238
5.443417227,-3.955327238285714,2.9206043765714287,-0.07553590637180924,5.128024741
5.448339381,-3.741108814809524,2.9813852309999995,-0.002126956428952099,4.997220500333333
5.453261765,-3.532086485809524,3.0445297048095235,0.08821537792819077,4.871837382428571
5.458183998,-3.32392176547619,3.1023855152380952,0.18310999714723838,4.744363746190476
5.463106152,-3.113982711428571,3.1455961295238097,0.2877230940996193,4.611461534666667
5.468028305,-2.8954067711714284,3.163524082714286,0.3941402391472384,4.465162009571428
5.472950377,-2.6667903845333334,3.1580609366666668,0.5032229550043813,4.315308273142857
5.477872529,-2.449091191690476,3.131838980142857,0.5840148144043813,4.158236465523809
5.482794789,-2.2335819537190473,3.0849227450952377,0.6584248130043813,4.0054836137142855
5.487716945,-2.011308005052381,3.0185635089523806,0.7155562410948575,3.8556304805714285
5.492639022,-1.7776592507666666,2.9313751231428573,0.7590755281095242,3.7151374842380953
5.497561261,-1.5247780644333333,2.8176655059190474,0.7840694331095241,3.5861901969047625
5.502483416,-1.246344730195238,2.672467749709524,0.8072498142809527,3.4800114158571427
5.507405493,-0.9528232578142857,2.495713602895238,0.8242434816761908,3.395191845095238
5.512327707,-0.6348981566238094,2.2844750824190476,0.819810959561905,3.3394318782857146
5.517250092,-0.2742211073380953,2.048939086085714,0.7836758168047622,3.3311832182380945
5.522172248,0.11696289337619045,1.7876900774666669,0.711063534014286,3.369974115666667
5.527094382,0.5386576034714285,1.4961780309428572,0.6043202493619051,3.4613410040952384
5.532016536,0.9484519454238095,1.2045046545142857,0.4517321061285716,3.5927537326666665
5.536938676,1.3289596076142856,0.9249672719428571,0.2032850540761907,3.7548097729523806
5.54186083,1.6996732332333333,0.6644997483238095,-0.07554288848095211,3.9280903266666667
5.546782743,2.0483525316619047,0.4335884593714286,-0.3898423271714283,4.121336001047619
5.551704895,2.3443420564238093,0.2945892669,-0.7876488126904759,4.360528418142857
5.55662727,2.6099180216619047,0.24761212156666665,-1.1889743393809522,4.609603422857143
5.561549425,2.915934915280952,0.2574053122809524,-1.577306484933333,4.895935594571428
5.566471579,3.3018024825666665,0.2936258400904762,-1.9821380675047615,5.260241901523809
5.571393733,3.7348022665952376,0.3529539420428571,-2.370382440933333,5.673579343
5.576315887,4.148215619480952,0.4503164603761905,-2.7612945934095237,6.103985810095238
5.581238116,4.5624031814,0.6008681314238096,-3.1339755469857145,6.574764388571428
5.586160292,4.946673799047619,0.8216708472333333,-3.4904743929523803,7.060531808523809
5.591082446,5.300858327238095,1.1142912677095236,-3.8279096696857144,7.576920657714285
5.596004599,5.644259191619047,1.446629720042857,-4.145053626504762,8.107247458809523
5.600926666,5.955711364666667,1.7907438050761904,-4.436962679733333,8.610342083619047
5.605848895,6.192902701190476,2.1218314752380953,-4.7056210083380945,9.025321046904761
5.610771056,6.3379659311904755,2.4443489965761906,-4.895446625457143,9.318804087571428
5.61569321,6.374756881190477,2.723147940052381,-5.028514483085714,9.469116801047619
5.620615364,6.314552363904761,2.944423224242857,-5.119799676333334,9.481525744619047
5.625537541,6.1974422704761905,3.1121699440999997,-5.184156196380952,9.396506721904762
5.630459694,6.049799612619047,3.23599770877619,-5.232036533714286,9.260945155666667
5.635381847,5.884235745380953,3.3005346095380954,-5.2295535858571425,9.103355479619049
5.640304235,5.712151890714286,3.345162083014286,-5.096471865904762,8.884483414857144
5.645226391,5.534322364,3.3426616568238097,-4.8959240657238094,8.649049726809524
5.650148545,5.384983732619047,3.2801868497285716,-4.614558960275238,8.429347302476192
5.655070713,5.316817351761905,3.0940837583904757,-4.208519520756191,8.22943685504762
5.659992867,5.272676774428571,2.7826223778190475,-3.7499088952799995,8.074957532761905
5.664915006,5.183430637619047,2.378918858580952,-3.247825185041904,7.956417013761904
5.669836929,5.021161022619047,1.904217011247619,-2.67183380428,7.8492275629999995
5.674759341,4.811979713904762,1.341454762152381,-2.0384555710895236,7.811412171095237
5.679681497,4.625066132809524,0.6918224671523809,-1.3047874708514282,7.880397662047619
5.684603661,4.4072398117619045,-0.051831397942857294,-0.48822554485142833,8.007943781571429
5.689525814,4.132697570904762,-0.8949933441333335,0.3572515366247622,8.18248194395238
5.694447968,3.7932165180047623,-1.805515941514286,1.230995161481905,8.369796385857143
5.699370136,3.3554170358857145,-2.697886347038095,2.0685603336723815,8.506134799666667
5.70429229,2.865459816790476,-3.6288160986571434,2.8383855199104766,8.667640730142857
5.709214519,2.324822618838095,-4.450391059038095,3.542098732672381,8.837872641095238
5.71413669,1.8372874827428571,-5.1627455147047625,4.098677743481905,9.021495323571429
5.719058844,1.4880425362190477,-5.731222736609524,4.536667307624762,9.198386275190476
5.723981226,1.236610480695238,-6.163259022942857,4.890892273291429,9.363246983428573
5.728903155,1.010605153552381,-6.467625980514286,5.1828229374342865,9.502445599904762
5.733825307,0.7734337193619047,-6.657964411190475,5.451332563815238,9.597881691095237
5.738747485,0.5409461997904762,-6.763909555571429,5.685716419339048,9.653808925285713
5.743669639,0.3459393864571429,-6.845497653571429,5.873992460481905,9.714941761809524
5.748591822,0.1691740524095238,-6.886747417,6.018684799110477,9.76400925252381
5.753513976,-0.02100232673333336,-6.87776318052381,6.106071991566667,9.762459753761904
5.758436129,-0.22461547173333338,-6.809860513333333,6.142051180190476,9.674953075142858
5.763358514,-0.40559704816666664,-6.68491436752381,6.106799699000001,9.509736954095237
5.76828067,-0.5653022343428572,-6.49627984704762,6.002822467285715,9.25869705257143
5.773202914,-0.7240480418714286,-6.234609904738095,5.823300381528572,8.906263477476191
5.77812507,-0.8842624688619047,-5.875783847909524,5.557958185714286,8.434759450233333
5.783047223,-1.0731172881190476,-5.436335020644286,5.183402095580952,7.838381110852381
5.787969309,-1.2620352904095238,-4.9188965862157135,4.731008742576191,7.169329630109523
5.792891538,-1.4065381430619046,-4.33547812045381,4.2242049348,6.47379080582381
5.797813694,-1.5006968095428572,-3.717386707310952,3.674761826161905,5.774989067919047
5.802735848,-1.5407677633761905,-3.115118034310952,3.140345323828572,5.149604759347619
5.807658002,-1.5577081413761906,-2.4486098024538094,2.6607528584333333,4.552977920109523
5.812580156,-1.5085342753761903,-1.8391959403109523,2.2147148307428575,4.040348779061905
5.817502333,-1.468292943090476,-1.2794571907871426,1.811528625861905,3.648277939014286
5.822424487,-1.4900249441857143,-0.7721595727395237,1.4858424904258096,3.3915546158238095
5.827346641,-1.5651581770428573,-0.31195771893,1.2266265749543812,3.2497846947285716
5.832269019,-1.6530550009,0.11095956764142859,1.0382007147305718,3.201487411109524
5.837191175,-1.7291313381857145,0.49800414502238094,0.8858814714734287,3.196772030014286
5.842113328,-1.8081616702809522,0.8590938060223811,0.7558264767781907,3.228976422728571
5.847035468,-1.8957155233761906,1.1980260477366667,0.6222575768020002,3.283504174109524
5.851957622,-1.981194186804762,1.5251838063080951,0.48701114385914307,3.351290645966667
5.856879762,-2.0612387571857145,1.8417605255938096,0.3694126670020002,3.4430750253
5.861801916,-2.1675336616142857,2.1440145098319046,0.2715692868020002,3.5715185215380947
5.866723853,-2.2965996094666665,2.4293310395461907,0.20352076423533358,3.729000275776191
5.871646005,-2.4340745196238096,2.6970227085461906,0.16396443051152407,3.9015058557761906
5.876568149,-2.5763224724761904,2.94547551957,0.14336847977342884,4.089716560919048
5.881490303,-2.721355136628571,3.169685567598571,0.14037529062104787,4.285037794876191
5.886412678,-2.8604939033238095,3.3719190926666665,0.14010824194485738,4.490453964685715
5.891334834,-2.974300046747619,3.5462429920952383,0.13576000363533358,4.686366336714286
5.896257063,-3.058614906809524,3.6965236209523815,0.1287387666496193,4.853731731666667
5.901179204,-3.113171764761905,3.8215015161428574,0.11332286116390503,4.985026382285715
5.906101358,-3.1204516660476194,3.917999710380952,0.10026800351152405,5.0690994850476185
5.911023511,-3.0768316246190475,3.9940559523809522,0.07984685900676217,5.107247393714285
5.915945646,-2.9901429641904764,4.049709808333334,0.07291271575914311,5.106668517999999
5.920867723,-2.8697606268571425,4.0779734680476185,0.09658990590200026,5.067280465095238
5.925789942,-2.733948679219048,4.081986745285715,0.12692619080000025,5.0030038551428575
5.930712098,-2.5660760133190474,4.072068032857143,0.1703166195380955,4.918940162047619
5.935634243,-2.3739318131190474,4.060833136333334,0.22204676271428597,4.829841878238096
5.940556397,-2.189295141495238,4.053389844523809,0.2656933814380955,4.745229994000001
5.94547855,-2.0181769530333336,4.047669467571429,0.2946215236571431,4.664368016476191
5.950400718,-1.8603177652571428,4.041740610571428,0.3121611429033336,4.590390836380952
5.955322872,-1.7094239592714287,4.033319132714285,0.3237009044128574,4.522751302761905
5.960245026,-1.5516504370290949,4.015476692333333,0.33642923646523837,4.449437872380952
5.965167409,-1.370941151643381,3.9899686518571427,0.32715471400333357,4.369471767904762
5.970089564,-1.1752497279052858,3.9614974544285713,0.2969236185033336,4.292413013571428
5.975011718,-0.9810354349529048,3.93040811447619,0.23193914437000024,4.2297169387619045
5.979933848,-0.7843649595243334,3.897711492714286,0.15206399872238116,4.1797662130476185
5.984855771,-0.5865213454290952,3.863098065047619,0.056575424879524036,4.140647928571428
5.989778144,-0.380567435191,3.8238584427619045,-0.04240485997761881,4.103482411238095
5.994700069,-0.15733609685766664,3.778176262238095,-0.1401354312823807,4.069472659904762
5.999622447,0.07229091066614288,3.7308813049523804,-0.2319116234728569,4.041367229666666
6.004544372,0.305536487809,3.6799747376190473,-0.3156492423490474,4.022928612714286
6.009466754,0.5335287727137619,3.628920827571428,-0.4098015779823807,4.023866522714286
6.01438891,0.761635055761381,3.5717053072380947,-0.5049880527490475,4.040293931142857
6.019311064,0.9890185388089999,3.513645637523809,-0.6125116218109521,4.0744989257619055
6.024233293,1.2344081081899523,3.4496661594285714,-0.7286875714061902,4.1290488764285715
6.029155449,1.4959486289328097,3.3778405416190473,-0.8382875732490473,4.209012636285713
6.034077603,1.7622415883661429,3.292955881047619,-0.9514106183252379,4.315143725380953
6.038999985,2.044621023309,3.1797291607619047,-1.0738742391823808,4.433990987333333
6.04392216,2.3486064040185237,3.0457988295952383,-1.1847033370776188,4.562803629809524
6.048844083,2.6814404576042383,2.8885530715428573,-1.27783805250619,4.701674480047619
6.053766226,3.0344140791137617,2.7145223574666666,-1.3470128632999998,4.857470445380953
6.05868838,3.4032874553185235,2.5259171720647617,-1.4045163861523806,5.033529161380953
6.063610534,3.780311453933334,2.333395128798095,-1.4661325272999999,5.233806282190476
6.068532688,4.153098268166667,2.141013941955238,-1.5098493383047618,5.446366664428571
6.073454826,4.509610635904762,1.9551116586742856,-1.533701289285714,5.656892669761905
6.07837698,4.838590485714286,1.7793955176791427,-1.5334691944761905,5.848951103571429
6.083299134,5.145310436,1.6153958054886666,-1.514481050638095,6.027320337619048
6.088221288,5.427874298333333,1.472054423126762,-1.4791755732952379,6.191126113904762
6.093143673,5.6787170228571435,1.3492032358553334,-1.430510668533333,6.331899572857144
6.098065828,5.882555791333333,1.2487371377600953,-1.3734370512761902,6.44295742752381
6.102987968,6.049205030761905,1.1656026569029525,-1.2992035734285712,6.5275289826666665
6.107910122,6.181224505142858,1.0999080920458095,-1.1816099529142854,6.595809484428571
6.112832281,6.266528515619048,1.038398755283905,-1.0104683795333331,6.63765472952381
6.11775451,6.336782046714286,0.9852200361886667,-0.7231897727714284,6.738188084142858
6.122676666,6.381678899095238,0.9293902273791427,-0.33427895691428544,6.894163882333334
6.127598829,6.3875002860476195,0.8730011339505714,0.010333891276190735,6.986997053952381
6.132520906,6.347031956571429,0.8139708508696192,0.27126570670476213,6.991393347190477
6.137443058,6.226544471,0.7749332287029524,0.40438289427619073,6.863756692714286
6.142365289,6.027530942619047,0.7668585137029524,0.44642632475238125,6.669867416000001
6.147287445,5.791167276190476,0.7829934683458096,0.4508507548476193,6.471969421714287
6.152209599,5.537973364142857,0.8147499460172382,0.45031808799047646,6.259937208190476
6.157131724,5.286337983,0.8558472819029526,0.47398061254761936,6.026671250714285
6.162053878,5.01843203247619,0.9110607123524762,0.569001753966667,5.769281178619048
6.16697626,4.735743653190476,0.9720688535239048,0.723641611109524,5.517847257571429
6.171898416,4.443308552095238,1.0341836180810478,0.9135497977285716,5.2814899079523805
6.17682057,4.1510958955238095,1.0893013330524763,1.122902183157143,5.069979612285715
6.181742508,3.8719800483333335,1.1290872367428573,1.3376862717285718,4.881970144190476
6.18666466,3.606179958238095,1.1463286650380953,1.5440879377476193,4.704127784285714
6.191586799,3.3545064755238094,1.1362921411857143,1.7117593684047623,4.513204407
6.196508953,3.124143469857143,1.0983749494004762,1.8533683218809525,4.330192756952381
6.201431106,2.9172701210476193,1.0357302346433332,1.958276559719048,4.150887623952381
6.206353501,2.7362455923333333,0.9488707132099999,2.0258701315857146,3.9838762730000004
6.211275657,2.579288159,0.8402208547909524,2.025864463466667,3.8228369508095237
6.21619758,2.4447288171428574,0.7208633795909524,1.9693601798380955,3.6694567354285716
6.221119948,2.304697575904762,0.5913428554480953,1.8005797621714288,3.4573001825714287
6.226042103,2.173746052142857,0.4617660985909524,1.5330297081142858,3.1865453324285715
6.230964257,2.0497828096666666,0.33316690901952384,1.3113944771857144,2.964953046238095
6.235886481,1.9353224776190476,0.21342448148142856,1.1570909974000003,2.814735595047619
6.24080856,1.8628721917142859,0.07981843645761905,1.114388616314286,2.7775449075238092
6.245730703,1.826298143057143,-0.07620708678047619,1.1765646622285717,2.789157984047619
6.250652934,1.805205952452381,-0.25188251301857145,1.2970418049904764,2.8066657591904765
6.255575022,1.780944142938095,-0.4389541769709524,1.4433099002761907,2.8447080727142855
6.26049725,1.7411227111809522,-0.624411985637619,1.5694475173857145,2.8957862766190474
6.265419329,1.6955746666761906,-0.8169055151614285,1.6285806596333334,2.956304743714286
6.270341481,1.640649046104762,-1.0255469420661905,1.6595395164904765,3.0181370726666668
6.275263712,1.6093867618666668,-1.2564669446376189,1.6749519493000002,3.0906031611904763
6.280185868,1.6250371023428571,-1.4879283787566666,1.6885505163000003,3.176908756857143
6.285108041,1.6679206233904762,-1.7133747562614285,1.7034106127285715,3.276101122428572
6.290030423,1.7123867215809523,-1.9277463693661905,1.7221663324904763,3.3808764301904763
6.294952579,1.7480689116285713,-2.131257461294762,1.7777213355380954,3.5115818781428576
6.299874719,1.7401131447714284,-2.3357420879523807,1.8364589087285716,3.6375048710000004
6.304796642,1.7311793394857145,-2.5526817526238093,1.9178589625857145,3.7979334376666665
6.309718794,1.7418545313904763,-2.7512116205238093,2.055261094014286,3.9925240386666663
6.314640948,1.7781541006285713,-2.941102621104762,2.267553770904762,4.241395016999999
6.319563102,1.864081808438095,-3.119224048809524,2.5480845301523813,4.5585381565238094
6.324485486,1.9656593344857143,-3.267562996761905,2.8924231515809526,4.922813221714286
6.329407411,2.006399955009524,-3.3785592373809523,3.232227817971429,5.246379406857143
6.334329794,1.9892713795809525,-3.4464002336190482,3.529493146090477,5.50264549552381
6.33925195,1.9133429505380952,-3.467374903761904,3.795345231257143,5.703491326333333
6.344174104,1.780850998633333,-3.4526547136190477,4.028956657438096,5.861285009047618
6.349096332,1.608820382242857,-3.402639757952381,4.200084845285714,5.985197360809524
6.354018502,1.3806336244666664,-3.3134338571095237,4.27840970252381,6.082206214476191
6.358940656,1.093899003742857,-3.1888260047771424,4.278314704095239,6.188747325047619
6.36386281,0.7333922421190475,-3.046921007781905,4.211351183285714,6.345428427857142
6.368784882,0.32805868057619036,-2.8871900511342856,4.102211993433333,6.541485070380952
6.373707111,-0.1044888120428572,-2.699916812762857,3.9433890368619053,6.74429845457143
6.378629267,-0.584510901852381,-2.482245716462857,3.6968012267666666,6.942152550666667
6.38355142,-1.1024129241857143,-2.261109569415238,3.4218021304809527,7.092536386238095
6.38847356,-1.625413459709524,-2.0404655239485714,3.1236047475285718,7.2006136949999995
6.393395714,-2.1463074535666666,-1.7720821458533333,2.8083671686238096,7.301652203333333
6.398317868,-2.655533071852381,-1.4975810549009525,2.486142404052381,7.398257332190476
6.403240032,-3.1313438380904763,-1.1961342878057142,2.1697162517666673,7.52897687252381
6.408162186,-3.602882983471429,-0.8639214763771428,1.8684876263380956,7.6504203611428565
6.413084568,-4.101377710757143,-0.5310522304723809,1.4955510710523812,7.7708439757142855
6.418006728,-4.633753738995238,-0.18160141518666667,1.0426409202428575,7.864743903619048
6.422928882,-5.205058026233333,0.18192682509904762,0.5396509241952383,7.903641450904763
6.427851046,-5.791802697995238,0.53787939448,-0.038764651280952175,7.898175161904763
6.4327732,-6.2950248797095245,0.8780243920038096,-0.6070326551857141,7.915094932333334
6.437695354,-6.696625632233334,1.1911343461942858,-1.0996369789952378,7.959742223142858
6.442617508,-7.0055989084285715,1.4697667259085714,-1.5281093957095235,8.036026428095237
6.447539431,-7.212448154190476,1.7249669189561903,-1.8839867270428567,8.117993171142857
6.452461583,-7.331406388952381,1.9529526813371427,-2.1702979106619047,8.19325779495238
6.457383981,-7.363766352333334,2.1522946823990474,-2.377890244757143,8.257725301285713
6.462306137,-7.313745816571428,2.326884163257143,-2.5220249592809525,8.27097622690476
6.467228371,-7.171827725047619,2.4870798246904764,-2.5934123907095232,8.204497450809523
6.472150527,-6.967114403190477,2.6311038675666665,-2.6065918660619043,8.072417297333333
6.47707268,-6.715489285428571,2.7588031547190477,-2.5810228642095234,7.888680898095239
6.481994839,-6.439137481571429,2.8727556353238093,-2.475423863147619,7.66260507847619
6.486916993,-6.171828508428571,2.9840454004666666,-2.3558539108666663,7.443256192619048
6.491839123,-5.924628064761905,3.097675544857143,-2.228885000585714,7.241848842952382
6.4967612,-5.684844459809524,3.1595325412857145,-2.092083663370476,7.033628616095238
6.501683424,-5.449266308809524,3.211552165761905,-1.9537174754242854,6.824617736047618
6.50660558,-5.204726400809524,3.241625887952381,-1.8146585174071428,6.59582794052381
6.511527728,-4.959931067047619,3.2547365483333333,-1.6910167071642854,6.361847972761904
6.516449882,-4.704120817619048,3.2489044098095237,-1.5365719977642853,6.098123599047618
6.521372036,-4.433223497285715,3.2153581664285715,-1.3556277139595236,5.798984247238095
6.526294414,-4.146936916142858,3.1546134948571427,-1.1846819063595235,5.478787570571429
6.531216339,-3.8435325792380954,3.069861446095238,-1.0079304275833332,5.130647200857142
6.536138722,-3.535567970428572,2.9566141139999997,-0.8343281857595237,4.766770367190476
6.541060862,-3.2443776924761907,2.820734727966667,-0.6976801424690474,4.418891938619048
6.545983016,-2.964044607752381,2.664250588138095,-0.586937286840476,4.080181739142857
6.55090517,-2.707867931695238,2.488774869591905,-0.5098524276166664,3.771740814242857
6.555827281,-2.477680129614286,2.30282153493,-0.46455200070238073,3.506085298719047
6.560749204,-2.2697491219666666,2.1093997240585716,-0.4234454275119045,3.2602989629952384
6.565671587,-2.0931322744333336,1.9255062904109521,-0.387640854935714,3.0320002663190477
6.570593743,-1.9440292687,1.71281481873,-0.37534542434047596,2.8496589402238097
6.57551567,-1.8118005053761905,1.504326155672857,-0.3597167089833331,2.6739042847952383
6.580438052,-1.6312040827761907,1.2864825379585714,-0.351776899135714,2.5326626551285716
6.585360285,-1.3828244208714284,1.0670843913871428,-0.4115411829119045,2.4748114952238094
6.590282372,-1.0841732364904761,0.8432753421490476,-0.4678082776690473,2.459199160985714
6.595204524,-0.7226725645857144,0.6053330098157143,-0.5461229439023807,2.5146592440809523
6.600126755,-0.27311946091904765,0.3727151036728571,-0.6324421328795236,2.6619077799380952
6.60504892,0.2188645431285714,0.16181204948238093,-0.7503856578257141,2.8586234190809523
6.609971074,0.6768609683190476,0.004202901801428561,-0.8701214712238092,3.021844414842857
6.614893228,1.1283307870333332,-0.08753233349380952,-0.990622514038095,3.1829590551761906
6.61981529,1.6392923537000001,-0.13592862001761905,-0.966173513990476,3.393346283652381
6.62473775,2.1939371654142854,-0.14785933549380953,-0.8917440360333332,3.6794539733666665
6.629659589,2.7606234777476195,-0.12183209882714288,-0.7907852729190474,4.0195785488428575
6.634581741,3.3097407647476187,-0.03529657687476191,-0.7234546074095235,4.385775276557143
6.639503895,3.8262834832714288,0.1358267631252381,-0.7312643698523806,4.799113771604762
6.644426125,4.374184165795238,0.37352228111095237,-0.7903108951904759,5.307995118033333
6.649348281,4.939375256071429,0.6816781370823809,-0.9190889923428568,5.900149404890476
6.65427042,5.508037467919047,1.0283718989142858,-1.0574109483285714,6.526793333647619
6.659192574,6.081304814266666,1.3745880453380952,-1.2091800868619045,7.157089162885716
6.664114957,6.640588967571429,1.6893310348285715,-1.3764551778619045,7.766269009990476
6.669037122,7.172238696085714,1.9271052621904763,-1.5312528000095236,8.312614843285715
6.673959276,7.616914323304762,2.1058588823,-1.6532888455095238,8.715796277142857
6.67888143,7.9848719806,2.198346359404762,-1.771904271280952,9.035153316190478
6.683803564,8.240290130809523,2.2514031182000003,-1.8839835056476186,9.283378047333334
6.688725487,8.39261336547619,2.2781679254428573,-1.909861077885714,9.419114007333333
6.693647875,8.46344897852381,2.3041104497285714,-1.9079087930285712,9.476392651285714
6.698570031,8.44258215304762,2.3392767814428574,-1.7980266029190477,9.438207773952382
6.703492278,8.326126575380952,2.358293972585714,-1.6140856019666667,9.333829496238096
6.708414357,8.184861569095238,2.333001496585714,-1.3562281203476187,9.228451018666666
6.713336509,8.108148869904761,2.2282155461714286,-1.0589183016333332,9.211046480523809
6.718258683,8.059046291095237,2.0270532618476187,-0.739282115680952,9.238215059857144
6.723180837,7.9392658187142855,1.7495576448952381,-0.5490662513190474,9.245610262619048
6.728103068,7.751277764571428,1.4016513051333335,-0.41310820417619026,9.207312344238094
6.733025227,7.503238882285715,0.9936375526095238,-0.3257222091285712,9.127415402666665
6.737947381,7.21994625947619,0.5000630695142857,-0.18661635550952355,9.061878528190476
6.742869535,6.891100679047619,-0.10865089796190475,0.07666045706190501,9.026553759666667
6.747791918,6.446064903428571,-0.8168276697714286,0.4424933137761907,8.974001594428572
6.752714074,5.889782147385715,-1.6074597360571428,0.931366364061905,8.906173891095237
6.757636243,5.2296833677666665,-2.3967795919142856,1.4667647905380956,8.821314108714287
6.762558396,4.457726923957143,-3.1785234362476187,1.9931359289666672,8.737191951571427
6.767480319,3.6225310193857143,-3.8940813974857145,2.5284965831571435,8.687561653476191
6.77240248,2.8203242534333333,-4.506304046295238,3.0608166284428573,8.690771839666667
6.777324865,2.1431717787190476,-4.997389904866667,3.562626918014286,8.770574094999999
6.782247021,1.6034027877190475,-5.359459148342857,4.013834862347619,8.877256837142857
6.787168939,1.1980955401952382,-5.617462998423809,4.4180823733476196,8.954413242857143
6.792091322,0.8735589271,-5.787824568380953,4.747680232538095,8.99388150395238
6.797013477,0.5902203179095238,-5.908701090666667,4.978101230728572,9.005424411857142
6.801935711,0.3840020854852381,-6.018456754333333,5.112078655238095,9.025316803190476
6.80685779,0.22055275265666666,-6.1082769009047615,5.174951746285715,9.021067596142856
6.811779928,0.050903702323333355,-6.150966474095239,5.181101356190477,8.951718070809525
6.816702082,-0.14545831058142852,-6.148784194761904,5.128082491095237,8.805453624809523
6.821624002,-0.34653878610523803,-6.096392143428571,5.045153629190477,8.608369546095238
6.826546385,-0.5228838335814284,-5.986308381761905,4.937261047761905,8.379030939666666
6.831468559,-0.6652720752480952,-5.8169658979523815,4.830338426952381,8.135140414523809
6.836390713,-0.7764970331052381,-5.597061282190476,4.746336715523809,7.887118229666667
6.841312867,-0.8879637928195239,-5.312503746619048,4.647582099476191,7.587366870095239
6.846235031,-1.0002275979242856,-4.952092308395239,4.498756811666667,7.215442556380953
6.851157185,-1.093912075405238,-4.515615578210952,4.301740669,6.792192517285715
6.856079414,-1.152161171457619,-4.023763652358571,4.060867525238096,6.350587520476192
6.861001569,-1.165098694505238,-3.535063177310952,3.7844953877142857,5.930329280238095
6.865923723,-1.1076317447433333,-3.014367195787143,3.5194857177142858,5.520028534095238
6.870846106,-0.9884268034576189,-2.4937609391204765,3.249481343047619,5.118927390095238
6.875768011,-0.9183566729338094,-1.9816607080252382,2.8939944434476197,4.781243147761905
6.880690163,-0.9075376919814285,-1.4864890362157144,2.524162532276191,4.516475285333333
6.885612313,-0.9477952140290475,-1.0257536470252382,2.2259521079428572,4.314299325761905
6.890534467,-1.0582783608861905,-0.6111394577871427,1.9903559734095242,4.186966917952381
6.895456634,-1.2084905409338096,-0.2461346912157143,1.8027787768857146,4.130495240190476
