"Time (s)","Linear Acceleration x (m/s^2)","Linear Acceleration y (m/s^2)","Linear Acceleration z (m/s^2)","Absolute acceleration (m/s^2)"
2.800607200E-2,-2.214359939E-1,1.082455039E0,-1.543560982E0,1.898242165E0
3.292822500E-2,-2.214359939E-1,1.082455039E0,-1.543560982E0,1.898242165E0
3.785037900E-2,-2.214359939E-1,1.082455039E0,-1.543560982E0,1.898242165E0
4.277253300E-2,-2.214359939E-1,1.082455039E0,-1.543560982E0,1.898242165E0
4.769456100E-2,-2.214359939E-1,1.082455039E0,-1.543560982E0,1.898242165E0
5.261671300E-2,-2.214359939E-1,1.082455039E0,-1.543560982E0,1.898242165E0
5.753884700E-2,-2.214359939E-1,1.082455039E0,-1.543560982E0,1.898242165E0
6.246100100E-2,-2.214359939E-1,1.082455039E0,-1.543560982E0,1.898242165E0
6.738315400E-2,-2.214359939E-1,1.082455039E0,-1.543560982E0,1.898242165E0
7.230536600E-2,-2.214359939E-1,1.082455039E0,-1.543560982E0,1.898242165E0
7.722752200E-2,-2.214359939E-1,1.082455039E0,-1.543560982E0,1.898242165E0
8.214961800E-2,-2.214359939E-1,1.082455039E0,-1.543560982E0,1.898242165E0
8.707184700E-2,-2.214359939E-1,1.082455039E0,-1.543560982E0,1.898242165E0
9.199392600E-2,-2.214359939E-1,1.082455039E0,-1.543560982E0,1.898242165E0
9.691615900E-2,-2.214359939E-1,1.082455039E0,-1.543560982E0,1.898242165E0
1.018382370E-1,-2.214359939E-1,1.082455039E0,-1.543560982E0,1.898242165E0
1.067603890E-1,8.627679944E-1,-9.023680091E-1,-5.612869859E-1,1.368824209E0
1.116825090E-1,7.251139879E-1,-9.205570221E-1,-8.230490088E-1,1.432000418E0
1.166046630E-1,5.827199817E-1,-9.557070136E-1,-1.087337971E0,1.560526301E0
1.215267930E-1,4.515329897E-1,-9.821209908E-1,-1.306718946E0,1.695864996E0
1.264490240E-1,3.307389915E-1,-8.806340098E-1,-1.386085033E0,1.675152608E0
1.313711030E-1,2.171880007E-1,-7.499769926E-1,-1.388007998E0,1.592545861E0
1.362933120E-1,1.269669980E-1,-5.259699821E-1,-1.327173948E0,1.433232615E0
1.412151610E-1,-1.687899977E-2,-2.806659937E-1,-1.246847987E0,1.278158129E0
1.461373120E-1,-2.076729983E-1,-1.207400020E-2,-1.137382030E0,1.156248995E0
1.510594280E-1,-2.926540077E-1,3.823879957E-1,-1.046555996E0,1.152018403E0
1.559818130E-1,-3.964569867E-1,8.116859794E-1,-9.100160003E-1,1.282240770E0
1.609039690E-1,-4.902969897E-1,1.148895025E0,-6.555449963E-1,1.410705554E0
1.658260700E-1,-6.265820265E-1,1.372509003E0,-3.539429903E-1,1.549729537E0
1.707482230E-1,-8.027359843E-1,1.561501980E0,-3.750799969E-2,1.756154988E0
1.756701090E-1,-9.779350162E-1,1.747017980E0,3.015030026E-1,2.024680908E0
1.805922600E-1,-1.060902953E0,1.843021989E0,5.584340096E-1,2.198657243E0
1.855143750E-1,-1.032217026E0,1.916689038E0,7.962819934E-1,2.318023699E0
1.904365290E-1,-1.015884995E0,1.944386959E0,9.752759933E-1,2.400797000E0
1.953586450E-1,-1.009029984E0,1.976730943E0,1.144142985E0,2.496932098E0
2.002807990E-1,-1.071066022E0,2.069129944E0,1.262861013E0,2.650150767E0
2.052029530E-1,-1.136957049E0,2.152468920E0,1.375056028E0,2.795813453E0
2.101251210E-1,-1.235195994E0,2.279505968E0,1.456555963E0,2.973787463E0
2.150472750E-1,-1.303272009E0,2.364203930E0,1.471601009E0,3.074668711E0
2.199696590E-1,-1.410074949E0,2.442930937E0,1.418743968E0,3.157381410E0
2.248917960E-1,-1.452903032E0,2.534729958E0,1.343878031E0,3.215865566E0
2.298139500E-1,-1.513123035E0,2.687592030E0,1.211786985E0,3.313777291E0
2.347361040E-1,-1.592455983E0,2.801613092E0,1.141232014E0,3.418678471E0
2.396580220E-1,-1.598448038E0,2.981492996E0,9.940980077E-1,3.525984609E0
2.445801740E-1,-1.668308973E0,3.053834915E0,8.587170243E-1,3.584209459E0
2.495023510E-1,-1.777420998E0,3.119827032E0,7.085199952E-1,3.659856103E0
2.544245050E-1,-1.868679047E0,3.227143049E0,5.102090240E-1,3.763871263E0
2.593466590E-1,-1.949200034E0,3.335201979E0,3.000130057E-1,3.874656219E0
2.642688130E-1,-2.009918928E0,3.450841904E0,5.913399905E-2,3.993943011E0
2.691911980E-1,-2.091553926E0,3.564537048E0,-1.762630045E-1,4.136615868E0
2.741131370E-1,-2.174949884E0,3.657170057E0,-3.756259978E-1,4.271579885E0
2.790352890E-1,-2.288275003E0,3.686119080E0,-5.396670103E-1,4.372060938E0
2.839574420E-1,-2.402899027E0,3.699204922E0,-6.595730186E-1,4.460165619E0
2.888798230E-1,-2.456999063E0,3.679337978E0,-8.021410108E-1,4.496421083E0
2.938019790E-1,-2.439778090E0,3.690222979E0,-9.102129936E-1,4.516497587E0
2.987239020E-1,-2.415730000E0,3.672125101E0,-1.010434985E0,4.510125613E0
3.036460540E-1,-2.405033112E0,3.654025078E0,-1.033277035E0,4.494857614E0
3.085682080E-1,-2.435206890E0,3.678807020E0,-1.041736007E0,4.533107940E0
3.134902910E-1,-2.448575020E0,3.669997931E0,-1.011181951E0,4.526244953E0
3.184124430E-1,-2.470635891E0,3.623490095E0,-9.107300043E-1,4.479190922E0
3.233345870E-1,-2.465713978E0,3.558269978E0,-7.983580232E-1,4.402091115E0
3.282568180E-1,-2.477416039E0,3.404072046E0,-6.932399869E-1,4.266834705E0
3.331789740E-1,-2.509520054E0,3.207233906E0,-6.273109913E-1,4.120383393E0
3.381010840E-1,-2.462567091E0,2.983470917E0,-6.000419855E-1,3.914765098E0
3.430233130E-1,-2.337595940E0,2.748801947E0,-5.339649916E-1,3.647654799E0
3.479454690E-1,-2.130651951E0,2.534279108E0,-4.682820141E-1,3.343880437E0
3.528676030E-1,-1.900043964E0,2.274018049E0,-3.940910101E-1,2.989420158E0
3.577897570E-1,-1.673730969E0,1.992586017E0,-3.396500051E-1,2.624335443E0
3.627119260E-1,-1.500484943E0,1.691226006E0,-3.023569882E-1,2.281034900E0
3.676340030E-1,-1.355980039E0,1.410948038E0,-2.630279958E-1,1.974497394E0
3.725561450E-1,-1.223361969E0,1.142248988E0,-2.359919995E-1,1.690277930E0
3.774783760E-1,-1.064970970E0,8.917790055E-1,-2.068559974E-1,1.404358347E0
3.824004790E-1,-9.167490005E-1,6.619279981E-1,-1.310669929E-1,1.138312770E0
3.873226310E-1,-7.762269974E-1,4.312109947E-1,-5.893599987E-2,8.899127629E-1
3.922448610E-1,-6.297749877E-1,2.684560120E-1,2.151999995E-2,6.849439947E-1
3.971670270E-1,-5.132439733E-1,1.449539959E-1,6.785900146E-2,5.376205735E-1
4.020891810E-1,-3.840619922E-1,6.550999731E-2,1.214480028E-1,4.080989965E-1
4.070113490E-1,-2.590669990E-1,3.680799901E-2,1.672600061E-1,3.105582850E-1
4.119335030E-1,-1.765840054E-1,8.569999598E-3,2.360029966E-1,2.948775512E-1
4.168556570E-1,-1.559430063E-1,2.615899965E-2,3.130129874E-1,3.506845373E-1
4.217778150E-1,-1.661210060E-1,5.712999962E-3,4.098100066E-1,4.422364396E-1
4.266999680E-1,-1.360590011E-1,-1.745199971E-2,5.309939981E-1,5.484261573E-1
4.316221210E-1,-9.017399698E-2,-6.285399944E-2,6.596879959E-1,6.687826455E-1
4.365442000E-1,-3.828100115E-2,-1.306599975E-1,8.100910187E-1,8.214529375E-1
4.414663370E-1,1.541499980E-2,-2.199819982E-1,9.937459826E-1,1.017919830E0
4.463885680E-1,1.270480007E-1,-3.634279966E-1,1.093528032E0,1.159320776E0
4.513107090E-1,2.228769958E-1,-5.486969948E-1,1.132258058E0,1.277791398E0
4.562327860E-1,3.338409960E-1,-7.567890286E-1,1.150890946E0,1.417296516E0
4.611549370E-1,3.837400079E-1,-9.395070076E-1,1.130493045E0,1.519192001E0
4.660771000E-1,3.873879910E-1,-1.137220025E0,1.066756964E0,1.606645344E0
4.709993310E-1,3.851870000E-1,-1.309481978E0,9.392099977E-1,1.656872806E0
4.759214870E-1,4.409419894E-1,-1.459355950E0,7.700250149E-1,1.707948521E0
4.808436460E-1,5.113509893E-1,-1.591776967E0,6.141809821E-1,1.781137846E0
4.857658000E-1,6.178879738E-1,-1.754657030E0,5.139170289E-1,1.929952734E0
4.906879530E-1,7.061579823E-1,-1.940302968E0,4.072670043E-1,2.104590487E0
4.956100300E-1,8.146920204E-1,-2.155706882E0,3.461270034E-1,2.330364597E0
5.005322590E-1,8.769559860E-1,-2.340631008E0,2.734009922E-1,2.514429045E0
5.054543240E-1,8.859260082E-1,-2.489141941E0,2.314800024E-1,2.652220859E0
5.103764760E-1,9.131850004E-1,-2.600075960E0,1.823319942E-1,2.761801369E0
5.152986300E-1,8.991010189E-1,-2.675647020E0,1.736710072E-1,2.828008352E0
5.202207840E-1,8.439369798E-1,-2.737212896E0,1.438750029E-1,2.867972120E0
5.251429380E-1,8.001729846E-1,-2.744227886E0,1.504179984E-1,2.862462065E0
5.300650910E-1,8.227059841E-1,-2.771058083E0,1.793980002E-1,2.896168447E0
5.349873260E-1,8.471130133E-1,-2.810350895E0,2.429450005E-1,2.945283498E0
5.399094820E-1,8.426579833E-1,-2.909678936E0,3.960320055E-1,3.055019695E0
5.448316360E-1,7.953259945E-1,-3.083123922E0,5.864160061E-1,3.237604097E0
5.497537950E-1,7.551950216E-1,-3.297329903E0,7.786629796E-1,3.471169838E0
5.546759490E-1,7.264559865E-1,-3.476166010E0,9.514759779E-1,3.676516689E0
5.595980210E-1,7.421429753E-1,-3.641586065E0,1.064460993E0,3.865876676E0
5.645201720E-1,8.186269999E-1,-3.786737919E0,1.165349960E0,4.045685944E0
5.694423120E-1,8.911409974E-1,-3.861462116E0,1.230072021E0,4.149469741E0
5.743644660E-1,9.743070006E-1,-3.951771975E0,1.234585047E0,4.253231255E0
5.792866200E-1,1.082707047E0,-4.069477081E0,1.162253022E0,4.368492916E0
5.842087740E-1,1.192713976E0,-4.209550858E0,1.055840015E0,4.500853607E0
5.891306990E-1,1.309363961E0,-4.347844124E0,9.574390054E-1,4.640568064E0
5.940530870E-1,1.382869959E0,-4.495919228E0,8.542870283E-1,4.780734813E0
5.989752420E-1,1.468307972E0,-4.567558765E0,7.003440261E-1,4.848608371E0
6.038973960E-1,1.499133945E0,-4.571915150E0,5.478820205E-1,4.842518501E0
6.088195350E-1,1.556985021E0,-4.561430931E0,4.133000076E-1,4.837527405E0
6.137417640E-1,1.603853941E0,-4.547801971E0,2.653400004E-1,4.829622713E0
6.186639200E-1,1.642550945E0,-4.561770916E0,1.207899973E-1,4.849981208E0
6.235860120E-1,1.680160999E0,-4.529168129E0,2.983999997E-2,4.830858656E0
6.285081640E-1,1.664176941E0,-4.512084007E0,-4.547299817E-2,4.809413142E0
6.334303170E-1,1.661453962E0,-4.481939793E0,-8.570200205E-2,4.780748729E0
6.383524900E-1,1.576087952E0,-4.378995895E0,-9.746699780E-2,4.655014296E0
6.432746440E-1,1.513023973E0,-4.277830124E0,-8.984400332E-2,4.538407656E0
6.481967980E-1,1.416869044E0,-4.178752899E0,-8.116500080E-2,4.413171358E0
6.531189710E-1,1.318300009E0,-4.084571838E0,-2.088100091E-2,4.292094830E0
6.580408960E-1,1.192960024E0,-3.983711958E0,5.561599880E-2,4.158870967E0
6.629632790E-1,1.104768038E0,-3.864871979E0,2.079869956E-1,4.025047381E0
6.678854340E-1,1.026882052E0,-3.757287979E0,3.696410060E-1,3.912586636E0
6.728075880E-1,9.708769917E-1,-3.613483906E0,5.337679982E-1,3.779520650E0
6.777297180E-1,8.969969749E-1,-3.458534956E0,7.393500209E-1,3.648658119E0
6.826518720E-1,8.114219904E-1,-3.294095993E0,9.492899776E-1,3.522871772E0
6.875740210E-1,6.902070045E-1,-3.137042999E0,1.170935988E0,3.418847112E0
6.924961750E-1,5.692629814E-1,-2.951600075E0,1.361320019E0,3.299878109E0
6.974183290E-1,4.606939852E-1,-2.773703098E0,1.566002011E0,3.218389368E0
7.023405010E-1,3.646639884E-1,-2.581788063E0,1.787143946E0,3.161090462E0
7.072626540E-1,2.381370068E-1,-2.390326023E0,1.976843953E0,3.110993370E0
7.121848070E-1,8.855299652E-2,-2.194417953E0,2.136970997E0,3.064303645E0
7.171069660E-1,-6.497599930E-2,-2.046920061E0,2.307807922E0,3.085462854E0
7.220291200E-1,-1.936199963E-1,-1.897585988E0,2.484013081E0,3.131875200E0
7.269512740E-1,-2.948609889E-1,-1.729634047E0,2.638577938E0,3.168701701E0
7.318734280E-1,-4.691259861E-1,-1.535855055E0,2.739862919E0,3.175811511E0
7.367955820E-1,-6.110410094E-1,-1.349817991E0,2.787286997E0,3.156635634E0
7.417177020E-1,-7.684010267E-1,-1.149932981E0,2.928591967E0,3.238740018E0
7.466398560E-1,-9.269000292E-1,-1.020105958E0,2.985981941E0,3.288745655E0
7.515617800E-1,-1.064941049E0,-8.980630040E-1,3.021150112E0,3.326855061E0
7.564839280E-1,-1.184972048E0,-8.174039721E-1,3.069425106E0,3.390232808E0
7.614063130E-1,-1.301344037E0,-7.086790204E-1,3.108725071E0,3.443819656E0
7.663284880E-1,-1.442803025E0,-6.604480147E-1,3.119153976E0,3.499570499E0
7.712506410E-1,-1.606950998E0,-6.056410074E-1,3.145689964E0,3.583916558E0
7.761725650E-1,-1.707577944E0,-5.705620050E-1,3.180743933E0,3.654927551E0
7.810947440E-1,-1.833217978E0,-5.407660007E-1,3.219151020E0,3.743801452E0
7.860168980E-1,-1.885545015E0,-5.160670280E-1,3.227236986E0,3.773150374E0
7.909392830E-1,-2.000880957E0,-5.321699977E-1,3.274127007E0,3.873840106E0
7.958614300E-1,-2.097738028E0,-5.506449938E-1,3.294955015E0,3.944672774E0
8.007835840E-1,-2.214241028E0,-5.688170195E-1,3.306179047E0,4.019606451E0
8.057057370E-1,-2.345577002E0,-6.010130048E-1,3.312396049E0,4.103037374E0
8.106278860E-1,-2.400614023E0,-6.207090020E-1,3.323120117E0,4.146245852E0
8.155498090E-1,-2.489312887E0,-6.755369902E-1,3.307084084E0,4.194023606E0
8.204719660E-1,-2.635481119E0,-7.581570148E-1,3.261904955E0,4.261523991E0
8.253941200E-1,-2.776665926E0,-8.611840010E-1,3.183010101E0,4.310807912E0
8.303165000E-1,-2.915067911E0,-9.892060161E-1,3.099386930E0,4.368334787E0
8.352384250E-1,-3.036122084E0,-1.098989010E0,3.054578066E0,4.444801605E0
8.401605580E-1,-3.168394089E0,-1.204771996E0,2.965184927E0,4.503611697E0
8.450827120E-1,-3.285379887E0,-1.306421041E0,2.903426886E0,4.574969357E0
8.500048650E-1,-3.379720926E0,-1.427706003E0,2.824179888E0,4.629994601E0
8.549272500E-1,-3.456017017E0,-1.575562954E0,2.708626986E0,4.665095111E0
8.598494060E-1,-3.542870045E0,-1.752244949E0,2.652880907E0,4.760259197E0
8.647715600E-1,-3.628161907E0,-1.895244956E0,2.633219004E0,4.867171107E0
8.696937290E-1,-3.723778963E0,-2.016323090E0,2.597028017E0,4.967559067E0
8.746158820E-1,-3.827235937E0,-2.105686903E0,2.534904957E0,5.050484669E0
8.795380500E-1,-3.962424994E0,-2.215864897E0,2.466141939E0,5.166500279E0
8.844599730E-1,-4.098070145E0,-2.308247089E0,2.369640112E0,5.266628694E0
8.893821110E-1,-4.205442905E0,-2.392458916E0,2.281822920E0,5.349422916E0
8.943042650E-1,-4.361075878E0,-2.521056890E0,2.184179068E0,5.490478017E0
8.992266500E-1,-4.457201958E0,-2.691514015E0,2.091414928E0,5.611141897E0
9.041487910E-1,-4.548871994E0,-2.884634018E0,1.996886969E0,5.744641625E0
9.090707140E-1,-4.638496876E0,-3.062019110E0,1.931990981E0,5.884233463E0
9.139928810E-1,-4.723723888E0,-3.266738892E0,1.877753019E0,6.042442119E0
9.189152650E-1,-4.785437107E0,-3.417324066E0,1.819983959E0,6.155554702E0
9.238374210E-1,-4.828507900E0,-3.571239948E0,1.775480032E0,6.262633045E0
9.287595550E-1,-4.876912117E0,-3.733079910E0,1.720147967E0,6.378014303E0
9.336814780E-1,-4.945081234E0,-3.857259035E0,1.656270027E0,6.486563503E0
9.386038860E-1,-5.035466194E0,-4.003481865E0,1.588518977E0,6.626249269E0
9.435258110E-1,-5.083444118E0,-4.164468765E0,1.536249995E0,6.748649365E0
9.484478860E-1,-5.115369797E0,-4.344940186E0,1.504704952E0,6.878201100E0
9.533701200E-1,-5.126478195E0,-4.501608849E0,1.489195943E0,6.983048437E0
9.582922760E-1,-5.152694225E0,-4.682107925E0,1.444404006E0,7.110463792E0
9.632144300E-1,-5.177310944E0,-4.840855122E0,1.387238026E0,7.222385773E0
9.681365700E-1,-5.169241905E0,-5.008834839E0,1.332206964E0,7.320127302E0
9.730587240E-1,-5.157259941E0,-5.166759014E0,1.310593963E0,7.416898634E0
9.779808780E-1,-5.112730026E0,-5.374454021E0,1.322240949E0,7.534791668E0
9.829032600E-1,-5.071662903E0,-5.552845001E0,1.316547036E0,7.634733021E0
9.878251850E-1,-5.003002167E0,-5.761633873E0,1.286082029E0,7.738246736E0
9.927473370E-1,-4.977176189E0,-5.916110039E0,1.259855986E0,7.833254618E0
9.976694910E-1,-4.914670944E0,-6.086149216E0,1.280190945E0,7.926795798E0
1.002591570E0,-4.846639156E0,-6.238399029E0,1.296787977E0,8.005572597E0
1.007513722E0,-4.765931129E0,-6.360864162E0,1.342718959E0,8.060867610E0
1.012435876E0,-4.651012897E0,-6.501404762E0,1.398422956E0,8.115156907E0
1.017358107E0,-4.554566860E0,-6.568981171E0,1.461120009E0,8.125913154E0
1.022280262E0,-4.457415104E0,-6.642427921E0,1.532806039E0,8.144930476E0
1.027202416E0,-4.378624916E0,-6.709554195E0,1.575325966E0,8.165300090E0
1.032124570E0,-4.344430923E0,-6.786776066E0,1.638970017E0,8.223176523E0
1.037046729E0,-4.283021927E0,-6.879135132E0,1.713917017E0,8.282770583E0
1.041968883E0,-4.192029953E0,-6.998734951E0,1.826022983E0,8.360009927E0
1.046891037E0,-4.066677094E0,-7.121901035E0,1.936772943E0,8.426768442E0
1.051813224E0,-3.950093031E0,-7.205708027E0,2.057508945E0,8.471056970E0
1.056735377E0,-3.820693016E0,-7.223836899E0,2.171204090E0,8.455509557E0
1.061657530E0,-3.759747028E0,-7.197526932E0,2.258645058E0,8.428616087E0
1.066579654E0,-3.664239883E0,-7.114940166E0,2.327053070E0,8.334518792E0
1.071501808E0,-3.557977915E0,-7.009478092E0,2.348105907E0,8.203998496E0
1.076423957E0,-3.467073917E0,-6.911911011E0,2.317540884E0,8.072552949E0
1.081346036E0,-3.417598963E0,-6.886361122E0,2.252563953E0,8.010992232E0
1.086268265E0,-3.335150003E0,-6.961499214E0,2.168200016E0,8.017904225E0
1.091190420E0,-3.220288992E0,-7.144417763E0,2.123650074E0,8.119289131E0
1.096112497E0,-3.092145920E0,-7.332076073E0,2.131023884E0,8.237837624E0
1.101034750E0,-2.950702906E0,-7.519845963E0,2.154655933E0,8.360458907E0
1.105956906E0,-2.798255920E0,-7.599774837E0,2.175319910E0,8.385632384E0
1.110879088E0,-2.613096952E0,-7.669703007E0,2.190694094E0,8.393554700E0
1.115801242E0,-2.380714893E0,-7.722227097E0,2.148195982E0,8.361539374E0
1.120723396E0,-2.177500963E0,-7.797583103E0,2.098225117E0,8.363394128E0
1.125645521E0,-2.036745071E0,-7.830787182E0,2.026789904E0,8.341308991E0
1.130567598E0,-2.001427889E0,-7.833865166E0,1.979475021E0,8.324270442E0
1.135489837E0,-1.970895052E0,-7.838122845E0,1.882274032E0,8.298406628E0
1.140411916E0,-1.880370021E0,-7.810152054E0,1.761801958E0,8.224245416E0
1.145334058E0,-1.736865997E0,-7.747601986E0,1.611423969E0,8.101773092E0
1.150256212E0,-1.588031054E0,-7.631212234E0,1.455664992E0,7.929451643E0
1.155178381E0,-1.467139959E0,-7.501628876E0,1.285534024E0,7.751098837E0
1.160100535E0,-1.312546015E0,-7.411452770E0,1.056280017E0,7.600535289E0
1.165022688E0,-1.142392039E0,-7.217127800E0,7.990419865E-1,7.350541568E0
1.169944870E0,-9.492290020E-1,-7.105385780E0,5.426440239E-1,7.189019775E0
1.174867332E0,-7.520459890E-1,-6.995061874E0,2.941249907E-1,7.041517827E0
1.179789256E0,-5.028330088E-1,-6.869733810E0,8.668100089E-2,6.888657145E0
1.184711408E0,-1.679140031E-1,-6.784768105E0,-1.542280018E-1,6.788597765E0
1.189633562E0,1.546619982E-1,-6.656732082E0,-4.527699947E-1,6.673904631E0
1.194555642E0,3.836539984E-1,-6.519444942E0,-7.756220102E-1,6.576620884E0
1.199477793E0,5.454090238E-1,-6.383042812E0,-1.048941970E0,6.491608876E0
1.204399937E0,7.308449745E-1,-6.190732002E0,-1.261221051E0,6.360029531E0
1.209322091E0,8.800070286E-1,-5.976677895E0,-1.424896955E0,6.206885077E0
1.214244235E0,1.014361978E0,-5.669598103E0,-1.514109969E0,5.955317109E0
1.219166389E0,1.131348968E0,-5.341966152E0,-1.562749028E0,5.679677577E0
1.224088543E0,1.230757952E0,-4.958507061E0,-1.599915028E0,5.353623586E0
1.229010697E0,1.329049945E0,-4.574958801E0,-1.571020007E0,5.016445520E0
1.233932851E0,1.373150945E0,-4.184899807E0,-1.462034941E0,4.640740898E0
1.238855081E0,1.355453968E0,-3.791425943E0,-1.289973021E0,4.228025134E0
1.243777219E0,1.313655972E0,-3.381012917E0,-1.069565058E0,3.781654369E0
1.248699373E0,1.261548042E0,-2.968694925E0,-7.941070199E-1,3.321936029E0
1.253621527E0,1.299090981E0,-2.588607073E0,-4.998170137E-1,2.939105477E0
1.258543619E0,1.306154966E0,-2.236270905E0,-1.150140017E-1,2.592330337E0
1.263465771E0,1.260743976E0,-1.895239949E0,2.907289863E-1,2.294762119E0
1.268387923E0,1.231958032E0,-1.520153046E0,7.197009921E-1,2.084839416E0
1.273310077E0,1.188413024E0,-1.158926964E0,1.190955043E0,2.042990733E0
1.278232217E0,1.201807976E0,-8.258280158E-1,1.630308986E0,2.187290953E0
1.283154142E0,1.236238956E0,-5.565410256E-1,2.035576105E0,2.445729901E0
1.288076525E0,1.303802013E0,-2.837409973E-1,2.402424097E0,2.748099377E0
1.292998676E0,1.378309965E0,-6.697700173E-2,2.666476965E0,3.002386331E0
1.297920830E0,1.450453997E0,1.635569930E-1,2.878412008E0,3.227355477E0
1.302843058E0,1.520560980E0,3.843300045E-1,2.995352030E0,3.381116536E0
1.307765200E0,1.564895034E0,5.908049941E-1,3.022241116E0,3.454256558E0
1.312687354E0,1.581205010E0,8.310369849E-1,2.964104891E0,3.460744076E0
1.317609517E0,1.557677984E0,1.059720039E0,2.864013910E0,3.428110696E0
1.322531594E0,1.591956973E0,1.307634950E0,2.699306965E0,3.395658148E0
1.327453746E0,1.619958997E0,1.520145059E0,2.497581959E0,3.342607334E0
1.332375957E0,1.617774963E0,1.740381002E0,2.299654961E0,3.306740813E0
1.337298113E0,1.623687029E0,1.953961968E0,2.120066881E0,3.308928909E0
1.342220267E0,1.563066006E0,2.186945915E0,1.951501012E0,3.321786262E0
1.347142435E0,1.497982025E0,2.420069933E0,1.803778052E0,3.369614798E0
1.352064589E0,1.435181975E0,2.645886898E0,1.669821978E0,3.442204267E0
1.356986743E0,1.412626982E0,2.797187090E0,1.549759984E0,3.495930007E0
1.361908897E0,1.408377051E0,2.976742983E0,1.482223988E0,3.611303456E0
1.366831050E0,1.419857979E0,3.117499113E0,1.424427986E0,3.709958556E0
1.371753203E0,1.434805036E0,3.245716095E0,1.348031998E0,3.796120220E0
1.376675328E0,1.488909960E0,3.373348951E0,1.301254988E0,3.910191883E0
1.381597482E0,1.538902998E0,3.502824068E0,1.207715034E0,4.012053650E0
1.386519551E0,1.606261969E0,3.600716114E0,1.100950956E0,4.093571430E0
1.391441780E0,1.685922980E0,3.693342924E0,9.952639937E-1,4.180151752E0
1.396363941E0,1.746577978E0,3.785533905E0,9.072679877E-1,4.266607174E0
1.401286094E0,1.816800952E0,3.817487001E0,8.368350267E-1,4.309787183E0
1.406208199E0,1.879698992E0,3.873060942E0,7.671899796E-1,4.372922344E0
1.411130351E0,1.944795012E0,3.894898891E0,6.791189909E-1,4.406094372E0
1.416052505E0,2.057609081E0,3.895117044E0,6.206020117E-1,4.448689557E0
1.420974664E0,2.189410925E0,3.854675055E0,5.654879808E-1,4.468983848E0
1.425896818E0,2.378664970E0,3.754607916E0,5.427420139E-1,4.477688749E0
1.430818972E0,2.580018044E0,3.676492929E0,5.189589858E-1,4.521328543E0
1.435741141E0,2.729005098E0,3.598949909E0,4.868409932E-1,4.542788068E0
1.440663371E0,2.938309908E0,3.538889885E0,4.677169919E-1,4.623436592E0
1.445585450E0,3.134002924E0,3.465378046E0,4.301599860E-1,4.692105811E0
1.450507592E0,3.385916948E0,3.388219118E0,4.409640133E-1,4.810292261E0
1.455429746E0,3.660692930E0,3.238081932E0,4.736689925E-1,4.910214827E0
1.460351905E0,3.884313107E0,3.086924076E0,5.165119767E-1,4.988363778E0
1.465274059E0,4.085604191E0,2.920458078E0,5.194429755E-1,5.048867001E0
1.470196202E0,4.271572113E0,2.733855009E0,4.873799980E-1,5.094882804E0
1.475118356E0,4.485223770E0,2.584573984E0,3.914490044E-1,5.191385872E0
1.480040510E0,4.772013187E0,2.451085091E0,2.553409934E-1,5.370765961E0
1.484962679E0,5.041103840E0,2.393312931E0,7.857999951E-2,5.580936259E0
1.489884833E0,5.266811848E0,2.342653036E0,-6.951399893E-2,5.764734381E0
1.494806986E0,5.502999783E0,2.286609888E0,-1.888560057E-1,5.962152126E0
1.499729140E0,5.699798107E0,2.254049063E0,-2.538740039E-1,6.134564993E0
1.504651294E0,5.857581139E0,2.206794977E0,-3.006330132E-1,6.266704164E0
1.509573396E0,5.885451794E0,2.235836983E0,-2.842719853E-1,6.302247249E0
1.514495550E0,5.876471043E0,2.290774107E0,-2.312940061E-1,6.311422569E0
1.519417708E0,5.859036922E0,2.354734898E0,-1.798190027E-1,6.317074083E0
1.524339631E0,5.832602024E0,2.413173914E0,-1.559219956E-1,6.314029330E0
1.529262029E0,5.739580154E0,2.466054916E0,-1.426849961E-1,6.248565132E0
1.534183954E0,5.636983871E0,2.486907005E0,-1.803639978E-1,6.163831989E0
1.539106337E0,5.600945950E0,2.477958918E0,-2.162159979E-1,6.128427636E0
1.544028496E0,5.616606236E0,2.407922029E0,-2.454169989E-1,6.115928679E0
1.548950650E0,5.688327789E0,2.298224926E0,-3.319970071E-1,6.144032297E0
1.553872804E0,5.773024082E0,2.165646076E0,-4.612919986E-1,6.183091483E0
1.558795048E0,5.808517933E0,2.036556959E0,-6.449689865E-1,6.188895686E0
1.563717204E0,5.809246063E0,1.906155944E0,-8.236830235E-1,6.169215836E0
1.568639358E0,5.803957939E0,1.769634962E0,-1.009539962E0,6.151154899E0
1.573561512E0,5.842758179E0,1.641268969E0,-1.190688968E0,6.184604044E0
1.578483588E0,5.870798111E0,1.485172987E0,-1.331447959E0,6.200384095E0
1.583405507E0,5.895386219E0,1.322924972E0,-1.486611009E0,6.222195870E0
1.588327658E0,5.928515911E0,1.176051974E0,-1.610563993E0,6.254943288E0
1.593250038E0,5.953608036E0,1.027824998E0,-1.717643976E0,6.281096537E0
1.598172194E0,5.994565010E0,9.380310178E-1,-1.774410009E0,6.321648735E0
1.603094117E0,5.991821766E0,8.780390024E-1,-1.821197987E0,6.323736449E0
1.608016486E0,5.892780781E0,8.717280030E-1,-1.750746012E0,6.208855502E0
1.612938641E0,5.736059189E0,8.545500040E-1,-1.651373982E0,6.029897740E0
1.617860795E0,5.545688152E0,8.025249839E-1,-1.461089015E0,5.790810353E0
1.622783009E0,5.328509808E0,8.016859889E-1,-1.246620059E0,5.530802723E0
1.627705088E0,5.055757046E0,7.897289991E-1,-9.957870245E-1,5.213055054E0
1.632627317E0,4.865827084E0,7.257320285E-1,-7.392320037E-1,4.974879309E0
1.637549362E0,4.720364094E0,5.905240178E-1,-4.977410138E-1,4.783126792E0
1.642471285E0,4.540363789E0,4.415250123E-1,-2.541959882E-1,4.568857983E0
1.647393466E0,4.383369923E0,2.380290031E-1,-3.209700063E-2,4.389945319E0
1.652315850E0,4.277842045E0,3.250499815E-2,1.805720031E-1,4.281774794E0
1.657238006E0,4.175979137E0,-1.391550004E-1,3.123480082E-1,4.189955507E0
1.662160165E0,4.218632221E0,-2.485509962E-1,4.037199914E-1,4.245188482E0
1.667082319E0,4.248336792E0,-3.098779917E-1,3.902939856E-1,4.277466454E0
1.672004242E0,4.275375843E0,-3.373250067E-1,3.314920068E-1,4.301454836E0
1.676926640E0,4.162519932E0,-4.283759892E-1,2.388219982E-1,4.191314128E0
1.681848565E0,4.015580177E0,-5.302109718E-1,1.047250032E-1,4.051786663E0
1.686770947E0,3.867636919E0,-6.390460134E-1,5.807999987E-3,3.920080213E0
1.691693108E0,3.751318932E0,-7.591800094E-1,-7.433400303E-2,3.828090066E0
1.696615262E0,3.618748903E0,-9.050499797E-1,-1.238299981E-1,3.732263785E0
1.701537416E0,3.517787933E0,-1.057575941E0,-1.210360005E-1,3.675316113E0
1.706459551E0,3.402915955E0,-1.207241058E0,-1.111039966E-1,3.612424679E0
1.711381705E0,3.271862984E0,-1.320484996E0,-8.400599658E-2,3.529281091E0
1.716303901E0,3.110199928E0,-1.493152976E0,-4.416399822E-2,3.450333297E0
1.721225825E0,2.934535027E0,-1.722983003E0,-1.736800000E-2,3.403008654E0
1.726147976E0,2.773258924E0,-2.012613058E0,-3.654000163E-2,3.426793188E0
1.731070361E0,2.686078072E0,-2.252058983E0,1.925999997E-3,3.505251600E0
1.735992286E0,2.610645056E0,-2.477371931E0,9.619600326E-2,3.600290678E0
1.740914433E0,2.544542074E0,-2.652741909E0,2.182459980E-1,3.682304349E0
1.745836818E0,2.487997055E0,-2.802078962E0,3.014959991E-1,3.759345115E0
1.750758973E0,2.424366951E0,-2.954173088E0,3.870759904E-1,3.841161487E0
1.755681123E0,2.327517033E0,-3.118638039E0,4.678879976E-1,3.919458882E0
1.760603277E0,2.195175886E0,-3.285995960E0,6.231150031E-1,4.000604820E0
1.765525431E0,2.096884966E0,-3.456372023E0,8.122509718E-1,4.123491938E0
1.770447344E0,2.011147976E0,-3.553342104E0,1.035346031E0,4.212231914E0
1.775369727E0,1.907088041E0,-3.615256071E0,1.254380941E0,4.275573974E0
1.780291633E0,1.772827983E0,-3.659034967E0,1.455661058E0,4.318611474E0
1.785213785E0,1.606361985E0,-3.696645975E0,1.595811963E0,4.334997822E0
1.790135953E0,1.506083965E0,-3.766530991E0,1.746541977E0,4.416497876E0
1.795058106E0,1.457818985E0,-3.828166962E0,1.921625972E0,4.524681741E0
1.799980491E0,1.399677038E0,-3.879178047E0,2.113289118E0,4.633908612E0
1.804902431E0,1.320047021E0,-3.862096071E0,2.265567064E0,4.668094293E0
1.809824583E0,1.137951016E0,-3.798341990E0,2.370209932E0,4.619548626E0
1.814746953E0,9.326710105E-1,-3.704632044E0,2.469208002E0,4.548753890E0
1.819669108E0,6.924470067E-1,-3.600081921E0,2.535387039E0,4.457382655E0
1.824591262E0,5.179560184E-1,-3.506232977E0,2.589420080E0,4.389424162E0
1.829513421E0,2.751489878E-1,-3.425534964E0,2.659153938E0,4.345238362E0
1.834435344E0,6.698600203E-2,-3.346045017E0,2.705302000E0,4.303389745E0
1.839357501E0,-7.782000303E-2,-3.296530008E0,2.729334116E0,4.280470858E0
1.844279655E0,-1.855590045E-1,-3.308023930E0,2.730489969E0,4.293370463E0
1.849201780E0,-2.824780047E-1,-3.397142887E0,2.734446049E0,4.370076522E0
1.854123934E0,-3.110660017E-1,-3.578082085E0,2.761924028E0,4.530745833E0
1.859046088E0,-3.310480118E-1,-3.817002058E0,2.778481007E0,4.732763907E0
1.863968241E0,-3.806200027E-1,-3.972301960E0,2.788125992E0,4.868028450E0
1.868890395E0,-4.883779883E-1,-4.043597221E0,2.806996107E0,4.946556246E0
1.873812549E0,-6.062790155E-1,-4.047180176E0,2.779380083E0,4.946937969E0
1.878734929E0,-7.556939721E-1,-4.001717091E0,2.752819061E0,4.915569737E0
1.883657085E0,-9.245449901E-1,-3.988249063E0,2.755858898E0,4.935146634E0
1.888579238E0,-1.134276032E0,-3.970530033E0,2.733469009E0,4.952125169E0
1.893501382E0,-1.322536945E0,-3.967448950E0,2.726638079E0,4.992425298E0
1.898423305E0,-1.553933978E0,-3.978915930E0,2.716718912E0,5.062316113E0
1.903345448E0,-1.837949991E0,-4.004771233E0,2.754551888E0,5.196518921E0
1.908267602E0,-2.054842949E0,-4.047390938E0,2.764098883E0,5.314508028E0
1.913189751E0,-2.242883921E0,-4.078038216E0,2.726762056E0,5.394085213E0
1.918111905E0,-2.416331053E0,-4.163603783E0,2.683815956E0,5.511544276E0
1.923034059E0,-2.594283104E0,-4.251348972E0,2.604546070E0,5.620314327E0
1.927956213E0,-2.712032080E0,-4.343606949E0,2.499120951E0,5.698038685E0
1.932878367E0,-2.846143007E0,-4.466646194E0,2.375183105E0,5.804563121E0
1.937800540E0,-2.939069986E0,-4.584351063E0,2.266568899E0,5.898452477E0
1.942722924E0,-3.048226118E0,-4.665466785E0,2.147299051E0,5.972366031E0
1.947645080E0,-3.123287916E0,-4.750532150E0,1.979374051E0,6.020000395E0
1.952567200E0,-3.247958899E0,-4.769794941E0,1.808763981E0,6.047462933E0
1.957489354E0,-3.388683081E0,-4.837969780E0,1.643138051E0,6.130989094E0
1.962411277E0,-3.602957964E0,-4.832899094E0,1.466251016E0,6.203878769E0
1.967333654E0,-3.819015980E0,-4.850386143E0,1.316900015E0,6.312317676E0
1.972255810E0,-4.015343189E0,-4.854403973E0,1.181064963E0,6.409612571E0
1.977177964E0,-4.206394196E0,-4.854615211E0,1.049772978E0,6.508691442E0
1.982100138E0,-4.406627178E0,-4.887012959E0,9.357039928E-1,6.646563075E0
1.987022061E0,-4.580210209E0,-4.946825981E0,8.421750069E-1,6.794017338E0
1.991944213E0,-4.732049942E0,-5.012594223E0,7.672799826E-1,6.935929359E0
1.996866367E0,-4.840717793E0,-5.127481937E0,6.898369789E-1,7.085160183E0
2.001788751E0,-4.856019020E0,-5.245903969E0,5.886620283E-1,7.172653077E0
2.006710907E0,-4.897292137E0,-5.381381989E0,4.995419979E-1,7.293304093E0
2.011633046E0,-4.953197956E0,-5.486480236E0,4.278509915E-1,7.403964603E0
2.016555200E0,-5.016650200E0,-5.565831184E0,3.641369939E-1,7.501856554E0
2.021477354E0,-5.102132797E0,-5.636081219E0,2.821680009E-1,7.607679631E0
2.026399508E0,-5.159468174E0,-5.704259872E0,2.058420032E-1,7.694222733E0
2.031321661E0,-5.207927227E0,-5.787086964E0,1.376090050E-1,7.786643549E0
2.036243574E0,-5.245212078E0,-5.879548073E0,9.889700264E-2,7.879791615E0
2.041165726E0,-5.307351112E0,-5.972031116E0,6.108999997E-2,7.989797461E0
2.046087880E0,-5.339400768E0,-6.153067112E0,2.943000058E-3,8.146744387E0
2.051010275E0,-5.322317123E0,-6.360383034E0,-2.050199918E-2,8.293488544E0
2.055932200E0,-5.337600231E0,-6.586674213E0,-3.566300124E-2,8.477943458E0
2.060854362E0,-5.311110973E0,-6.815114021E0,-2.616400085E-2,8.640275658E0
2.065776516E0,-5.240539074E0,-7.028798103E0,-1.865600049E-2,8.767416986E0
2.070698900E0,-5.195394993E0,-7.260976791E0,2.954800054E-2,8.928313737E0
2.075621060E0,-5.125483036E0,-7.535497189E0,8.477400243E-2,9.113807155E0
2.080542983E0,-5.071615219E0,-7.797019958E0,1.471479982E-1,9.302497175E0
2.085465135E0,-5.007549763E0,-8.098142624E0,2.213419974E-1,9.523888957E0
2.090387274E0,-4.935769081E0,-8.302143097E0,2.857550085E-1,9.662766289E0
2.095309353E0,-4.877922058E0,-8.456650734E0,3.519960046E-1,9.768979805E0
2.100231563E0,-4.795786858E0,-8.599625587E0,4.053519964E-1,9.854818216E0
2.105153718E0,-4.725369930E0,-8.766727448E0,4.309960008E-1,9.968469726E0
2.110075872E0,-4.702198982E0,-8.836715698E0,5.171989799E-1,1.002325867E1
2.114998040E0,-4.643327236E0,-8.940160751E0,6.079249978E-1,1.009239986E1
2.119920194E0,-4.618165016E0,-9.007405281E0,6.888719797E-1,1.014570562E1
2.124842348E0,-4.583565235E0,-9.024130821E0,7.765550017E-1,1.015120904E1
2.129764526E0,-4.527505875E0,-9.021374702E0,8.803740144E-1,1.013205652E1
2.134686908E0,-4.502597809E0,-9.025102615E0,9.785599709E-1,1.013328396E1
2.139609064E0,-4.448910236E0,-9.001727104E0,1.063637018E0,1.009728760E1
2.144531228E0,-4.445352077E0,-8.974770546E0,1.147060990E0,1.008084373E1
2.149453382E0,-4.448719978E0,-8.944176674E0,1.240594029E0,1.006620481E1
2.154375286E0,-4.480450153E0,-8.904994965E0,1.317973971E0,1.005536793E1
2.159297438E0,-4.480569839E0,-8.821433067E0,1.357949972E0,9.986852135E0
2.164219616E0,-4.453734875E0,-8.765312195E0,1.406111956E0,9.931948602E0
2.169141770E0,-4.395028114E0,-8.688758850E0,1.407763958E0,9.838323121E0
2.174063894E0,-4.304312229E0,-8.663464546E0,1.349068999E0,9.767431027E0
2.178986048E0,-4.200595856E0,-8.674907684E0,1.261636019E0,9.720635489E0
2.183908202E0,-4.138768196E0,-8.749312401E0,1.179298997E0,9.750416186E0
2.188830385E0,-4.037267208E0,-8.798558235E0,1.083186984E0,9.741018816E0
2.193752539E0,-3.984632969E0,-8.906965256E0,1.021409035E0,9.810943195E0
2.198674924E0,-3.914675951E0,-8.987698555E0,9.877189994E-1,9.852867701E0
2.203597074E0,-3.846472025E0,-9.009726524E0,9.703009725E-1,9.844389420E0
2.208519228E0,-3.763180017E0,-9.016044617E0,9.239770174E-1,9.813476341E0
2.213441377E0,-3.659929991E0,-9.001840591E0,8.708149791E-1,9.756358967E0
2.218363300E0,-3.615645885E0,-8.969594955E0,7.657399774E-1,9.701179647E0
2.223285452E0,-3.565573931E0,-8.950474739E0,6.282500029E-1,9.654999408E0
2.228207620E0,-3.490448952E0,-8.975786209E0,4.968450069E-1,9.643382545E0
2.233129699E0,-3.411710024E0,-9.002611160E0,3.958230019E-1,9.635530543E0
2.238051933E0,-3.250241041E0,-9.067113876E0,2.896170020E-1,9.636415251E0
2.242974088E0,-3.056162119E0,-9.123642921E0,2.144320011E-1,9.624290526E0
2.247896242E0,-2.814912081E0,-9.162343979E0,1.587100029E-1,9.586316606E0
2.252818396E0,-2.578948021E0,-9.223698616E0,1.179990023E-1,9.578178993E0
2.257740550E0,-2.304914951E0,-9.302658081E0,8.288300037E-2,9.584307481E0
2.262662933E0,-2.093103886E0,-9.396706581E0,5.833100155E-2,9.627179283E0
2.267585094E0,-1.845672965E0,-9.460993767E0,2.073200047E-2,9.639364168E0
2.272507247E0,-1.590523958E0,-9.523467064E0,-3.704499826E-2,9.655442181E0
2.277429170E0,-1.301013947E0,-9.548271179E0,-1.099739969E-1,9.637126858E0
2.282351312E0,-1.000743032E0,-9.544985771E0,-1.883870065E-1,9.599152549E0
2.287273697E0,-7.588199973E-1,-9.528167725E0,-2.553490102E-1,9.561746237E0
2.292195560E0,-5.701109767E-1,-9.466918945E0,-3.229170144E-1,9.489565651E0
2.297117789E0,-3.505449891E-1,-9.309085846E0,-3.743729889E-1,9.323203109E0
2.302039943E0,-1.668979973E-1,-9.162920952E0,-4.099330008E-1,9.173604547E0
2.306962117E0,-4.571000114E-3,-8.930857658E0,-3.653100133E-1,8.938327070E0
2.311884270E0,1.916590035E-1,-8.721349716E0,-3.582589924E-1,8.730808872E0
2.316806349E0,4.267370105E-1,-8.477586746E0,-3.440999985E-1,8.495292009E0
2.321728501E0,6.409239769E-1,-8.204929352E0,-2.637189925E-1,8.234148221E0
2.326650963E0,7.815840244E-1,-7.887289047E0,-9.896499664E-2,7.926537464E0
2.331572888E0,9.396479726E-1,-7.570853233E0,7.472600043E-2,7.629308027E0
2.336495001E0,1.091086030E0,-7.282584190E0,2.874740064E-1,7.369473693E0
2.341417155E0,1.202308059E0,-6.970250130E0,5.576009750E-1,7.095128638E0
2.346339285E0,1.277840972E0,-6.620176792E0,8.149229884E-1,6.791444455E0
2.351261438E0,1.350952983E0,-6.201821804E0,1.087638021E0,6.439768949E0
2.356183578E0,1.347105980E0,-5.780398846E0,1.322759032E0,6.080904274E0
2.361105732E0,1.395259976E0,-5.318109035E0,1.555894971E0,5.714004137E0
2.366027886E0,1.437646031E0,-4.824917793E0,1.767699003E0,5.335861466E0
2.370950064E0,1.538717031E0,-4.358471870E0,1.938889027E0,5.012306635E0
2.375872218E0,1.602450013E0,-3.835196018E0,2.138782978E0,4.674501810E0
2.380794372E0,1.650318027E0,-3.312522888E0,2.340890884E0,4.379055561E0
2.385716569E0,1.641397953E0,-2.819354057E0,2.509119987E0,4.115656406E0
2.390638953E0,1.563415051E0,-2.303297997E0,2.583739042E0,3.798046303E0
2.395561109E0,1.526227951E0,-1.862759948E0,2.603554010E0,3.546510943E0
2.400483229E0,1.529554009E0,-1.447695971E0,2.562017918E0,3.316518491E0
2.405405383E0,1.422227979E0,-9.865499735E-1,2.630037069E0,3.148508895E0
2.410327306E0,1.965258002E0,-6.208940148E-1,2.468961954E0,3.216134562E0
2.415249458E0,2.387715101E0,-3.695589900E-1,2.362143040E0,3.378975731E0
2.420171611E0,2.193818092E0,1.645000093E-2,2.446249008E0,3.285915799E0
2.425093765E0,2.034360886E0,2.950350046E-1,1.830757976E0,2.752697701E0
2.430015844E0,1.750761032E0,4.467239976E-1,1.485406995E0,2.339051188E0
2.434938073E0,1.615520000E0,6.483669877E-1,1.240633965E0,2.137628887E0
2.439860229E0,1.853479028E0,9.334790111E-1,8.586869836E-1,2.245909817E0
2.444782325E0,2.222858906E0,1.237699032E0,5.913529992E-1,2.612029666E0
2.449704554E0,2.431648016E0,1.508658051E0,4.098800123E-1,2.890841195E0
2.454626938E0,2.568281889E0,1.724915028E0,2.445210069E-1,3.103416543E0
2.459549099E0,2.714090109E0,1.872274041E0,7.563199848E-2,3.298092692E0
2.464471253E0,2.830676079E0,2.010727882E0,2.014200017E-2,3.472198062E0
2.469393176E0,3.004036903E0,2.128367901E0,7.296899706E-2,3.682324281E0
2.474315241E0,3.243585110E0,2.227643013E0,1.913039982E-1,3.939522176E0
2.479237472E0,3.513339043E0,2.354155064E0,3.325400054E-1,4.242190489E0
2.484159633E0,3.760651112E0,2.496100903E0,5.043010116E-1,4.541732710E0
2.489081786E0,3.987907887E0,2.648817062E0,6.974049807E-1,4.837976317E0
2.494003863E0,4.180643082E0,2.778847933E0,8.429769874E-1,5.090224220E0
2.498926097E0,4.367545128E0,2.948548079E0,9.940050244E-1,5.362595659E0
2.503848253E0,4.510000229E0,3.102806091E0,1.174644947E0,5.598865819E0
2.508770407E0,4.631699085E0,3.241626024E0,1.277264953E0,5.795876246E0
2.513692469E0,4.691521168E0,3.405661106E0,1.394909024E0,5.962773652E0
2.518614928E0,4.753542900E0,3.525372982E0,1.488952041E0,6.102573469E0
2.523536853E0,4.838875771E0,3.578197002E0,1.558347940E0,6.216643855E0
2.528459010E0,4.908404827E0,3.632123947E0,1.610245943E0,6.314875637E0
2.533381164E0,4.956796169E0,3.672806025E0,1.605600953E0,6.374738173E0
2.538303243E0,5.036151886E0,3.717040062E0,1.584171057E0,6.456687276E0
2.543225472E0,5.059937000E0,3.803276062E0,1.585814953E0,6.525540615E0
2.548147638E0,5.058829784E0,3.857408047E0,1.561846018E0,6.550627345E0
2.553069715E0,5.042030811E0,3.879580975E0,1.547368050E0,6.547333130E0
2.557991943E0,5.035617828E0,3.826869011E0,1.546633959E0,6.511102053E0
2.562914060E0,5.063312054E0,3.749726057E0,1.563984036E0,6.491811806E0
2.567836289E0,5.163268089E0,3.667478085E0,1.563215971E0,6.523294952E0
2.572758445E0,5.270947933E0,3.520500898E0,1.568114042E0,6.529609509E0
2.577680570E0,5.382565975E0,3.314980984E0,1.532155991E0,6.504507466E0
2.582602724E0,5.541516781E0,3.067257881E0,1.478229046E0,6.503971114E0
2.587525106E0,5.645740986E0,2.818320990E0,1.434785008E0,6.471161604E0
2.592447233E0,5.803215027E0,2.572958946E0,1.306861043E0,6.481150220E0
2.597369387E0,5.959278107E0,2.360004902E0,1.185317993E0,6.518251102E0
2.602291541E0,6.129059792E0,2.158126116E0,1.091611981E0,6.588967975E0
2.607213464E0,6.263082027E0,1.991477966E0,1.028110027E0,6.652006554E0
2.612135847E0,6.347757816E0,1.867457032E0,1.052150011E0,6.699883932E0
2.617057993E0,6.390890121E0,1.752678990E0,1.070942998E0,6.712844337E0
2.621979840E0,6.407196045E0,1.687873960E0,1.032914042E0,6.705817704E0
2.626901991E0,6.372921944E0,1.632364988E0,9.722300172E-1,6.650111335E0
2.631824241E0,6.371880054E0,1.554986000E0,8.466510177E-1,6.613293796E0
2.636746320E0,6.396749973E0,1.479609966E0,6.951940060E-1,6.602344324E0
2.641668472E0,6.471436977E0,1.377493978E0,5.731229782E-1,6.641193881E0
2.646590722E0,6.536234856E0,1.255869031E0,4.305610061E-1,6.669704333E0
2.651512878E0,6.591384888E0,1.093276978E0,2.608579993E-1,6.686527962E0
2.656435032E0,6.639272213E0,9.017019868E-1,9.778600186E-2,6.700937553E0
2.661357180E0,6.688830853E0,7.575590014E-1,-5.386700109E-2,6.731809227E0
2.666279334E0,6.730206013E0,6.296340227E-1,-2.466299981E-1,6.764091834E0
2.671201455E0,6.803472042E0,5.225039721E-1,-4.448310137E-1,6.837990703E0
2.676123609E0,6.805521965E0,4.456830025E-1,-5.750359893E-1,6.844299010E0
2.681045710E0,6.733623028E0,4.181889892E-1,-6.284800172E-1,6.775806095E0
2.685967862E0,6.611245155E0,4.038969874E-1,-6.105239987E-1,6.651649031E0
2.690890006E0,6.428722858E0,3.548589945E-1,-5.811150074E-1,6.464680746E0
2.695812159E0,6.264287949E0,2.970710099E-1,-5.284100175E-1,6.293550018E0
2.700734313E0,6.129542828E0,1.800470054E-1,-4.621770084E-1,6.149578830E0
2.705656529E0,6.007343769E0,2.273399942E-2,-4.037320018E-1,6.020938093E0
2.710578685E0,5.909574986E0,-2.396319956E-1,-3.649570048E-1,5.925680857E0
2.715500839E0,5.812006950E0,-5.019130111E-1,-3.196589947E-1,5.842390207E0
2.720422978E0,5.674026012E0,-7.426279783E-1,-2.965990007E-1,5.730099342E0
2.725345132E0,5.569492817E0,-9.141619802E-1,-2.886439860E-1,5.651394316E0
2.730267208E0,5.486473083E0,-9.903140068E-1,-2.912169993E-1,5.582733745E0
2.735189437E0,5.399232864E0,-1.030809999E0,-3.112339973E-1,5.505556409E0
2.740111511E0,5.372385025E0,-1.008808017E0,-4.138270020E-1,5.481921858E0
2.745033740E0,5.328011990E0,-1.012727022E0,-5.914999843E-1,5.455565966E0
2.749955896E0,5.219116211E0,-9.584540129E-1,-7.389410138E-1,5.357596657E0
2.754878017E0,5.036696911E0,-9.391630292E-1,-8.705610037E-1,5.196943277E0
2.759800246E0,4.826467991E0,-8.997380137E-1,-1.012598038E0,5.012950882E0
2.764722401E0,4.526127815E0,-8.761429787E-1,-1.150323987E0,4.751495006E0
2.769644477E0,4.221559048E0,-8.948690295E-1,-1.268851995E0,4.498036990E0
2.774566706E0,3.933831930E0,-9.393929839E-1,-1.353075027E0,4.264774890E0
2.779488862E0,3.707941055E0,-1.029111028E0,-1.445425034E0,4.110614298E0
2.784411245E0,3.483683109E0,-1.137873054E0,-1.518913984E0,3.967102568E0
2.789333170E0,3.258186102E0,-1.275504947E0,-1.579998016E0,3.839151374E0
2.794255250E0,3.081458092E0,-1.461338043E0,-1.589807034E0,3.762762184E0
2.799177404E0,2.931663990E0,-1.635733008E0,-1.591029048E0,3.715057154E0
2.804099639E0,2.873277903E0,-1.822824955E0,-1.592924953E0,3.757103489E0
2.809021795E0,2.777225018E0,-2.039323092E0,-1.556601048E0,3.780849678E0
2.813943949E0,2.612229109E0,-2.316553116E0,-1.407482028E0,3.764460773E0
2.818866055E0,2.514628887E0,-2.587686062E0,-1.171476007E0,3.793657026E0
2.823788284E0,2.412805080E0,-2.833627939E0,-8.699610233E-1,3.822029282E0
2.828710363E0,2.254384995E0,-3.037617922E0,-4.907020032E-1,3.814467564E0
2.833632520E0,2.104393005E0,-3.173263073E0,-8.360300213E-2,3.808550632E0
2.838554750E0,1.972973943E0,-3.276340008E0,3.417460024E-1,3.839768268E0
2.843476906E0,1.774467945E0,-3.370640993E0,7.663779855E-1,3.885523441E0
2.848399021E0,1.461227059E0,-3.439483881E0,1.202286005E0,3.925649695E0
2.853321175E0,1.129549026E0,-3.492372990E0,1.557971001E0,3.987458306E0
2.858243329E0,7.509589791E-1,-3.491153002E0,1.899739981E0,4.044885742E0
2.863165401E0,2.538729906E-1,-3.421618938E0,2.207564116E0,4.079861147E0
2.868087553E0,-2.970030010E-1,-3.300867081E0,2.384589911E0,4.082916030E0
2.873009740E0,-8.322119713E-1,-3.244234085E0,2.414855003E0,4.129062394E0
2.877931971E0,-1.315767050E0,-3.220937014E0,2.323199034E0,4.183650550E0
2.882854050E0,-1.809659958E0,-3.176069021E0,2.122603893E0,4.227023880E0
2.887776202E0,-2.205682039E0,-3.114334106E0,1.809327960E0,4.223479354E0
2.892698433E0,-2.498471022E0,-3.080919027E0,1.471220016E0,4.230710086E0
2.897620618E0,-2.766293049E0,-3.075243950E0,1.146298051E0,4.292260687E0
2.902542771E0,-3.046824932E0,-3.111121893E0,7.887079716E-1,4.425413186E0
2.907464925E0,-3.348946095E0,-3.120811939E0,4.651690125E-1,4.601226936E0
2.912387083E0,-3.667171001E0,-3.144195080E0,2.353709936E-1,4.836269777E0
2.917309237E0,-3.955430031E0,-3.180474997E0,8.977600187E-2,5.076308468E0
2.922231391E0,-4.160449982E0,-3.255057096E0,-2.635099925E-2,5.282559524E0
2.927153574E0,-4.281689167E0,-3.395673990E0,-8.596000075E-2,5.465423414E0
2.932075728E0,-4.385848045E0,-3.560779095E0,-5.952500179E-2,5.649633091E0
2.936997881E0,-4.477400780E0,-3.783025980E0,2.728199959E-2,5.861667648E0
2.941919953E0,-4.628015995E0,-3.968333006E0,1.533920020E-1,6.098338134E0
2.946842105E0,-4.709350109E0,-4.044713974E0,2.898429930E-1,6.214635833E0
2.951764336E0,-4.868956089E0,-4.020902157E0,3.882989883E-1,6.326544369E0
2.956686526E0,-5.018230915E0,-3.956284046E0,4.792909920E-1,6.408162360E0
2.961608680E0,-5.193221092E0,-3.893671989E0,5.695989728E-1,6.515724815E0
2.966530834E0,-5.343848228E0,-3.847273111E0,6.519110203E-1,6.616888412E0
2.971452944E0,-5.506311893E0,-3.766807079E0,7.070739865E-1,6.708819558E0
2.976375327E0,-5.690597057E0,-3.633346081E0,7.472580075E-1,6.792826594E0
2.981297213E0,-5.885029793E0,-3.468575954E0,8.013709784E-1,6.877993185E0
2.986219288E0,-6.078028202E0,-3.282392025E0,7.904800177E-1,6.952796767E0
2.991141442E0,-6.301123142E0,-3.115919113E0,7.530699968E-1,7.069668959E0
2.996063596E0,-6.513998032E0,-2.964821100E0,7.107229829E-1,7.192180592E0
3.000985755E0,-6.678703785E0,-2.848683119E0,6.567029953E-1,7.290496457E0
3.005907909E0,-6.774122238E0,-2.725013971E0,6.199920177E-1,7.327948099E0
3.010830062E0,-6.860380173E0,-2.642028093E0,5.795140266E-1,7.374345060E0
3.015752216E0,-6.887483120E0,-2.583369017E0,5.140529871E-1,7.373972449E0
3.020674370E0,-6.855665207E0,-2.561373949E0,4.356159866E-1,7.331476197E0
3.025596524E0,-6.812961102E0,-2.561871052E0,3.851769865E-1,7.288894537E0
3.030518736E0,-6.804947853E0,-2.572953939E0,3.557980061E-1,7.283817645E0
3.035440892E0,-6.815051079E0,-2.599694967E0,3.405179977E-1,7.302005727E0
3.040363045E0,-6.795534134E0,-2.644738913E0,2.819789946E-1,7.297495477E0
3.045285175E0,-6.684176922E0,-2.648243904E0,2.328670025E-1,7.193444511E0
3.050207252E0,-6.586271763E0,-2.645931005E0,1.215170026E-1,7.098921961E0
3.055129408E0,-6.475382805E0,-2.668586016E0,9.679999785E-4,7.003708641E0
3.060051562E0,-6.440087795E0,-2.699238062E0,-2.120739967E-1,6.986099935E0
3.064973798E0,-6.377488136E0,-2.728218079E0,-4.213599861E-1,6.949321769E0
3.069895877E0,-6.311566830E0,-2.758316040E0,-6.200699806E-1,6.915827500E0
3.074818029E0,-6.238018036E0,-2.772353888E0,-7.980650067E-1,6.872824954E0
3.079740182E0,-6.099387169E0,-2.878127098E0,-9.244719744E-1,6.807406838E0
3.084662336E0,-5.943490028E0,-3.003717899E0,-9.996190071E-1,6.733990874E0
3.089584567E0,-5.815571785E0,-3.141513109E0,-1.014376998E0,6.687222181E0
3.094506681E0,-5.689214230E0,-3.286603928E0,-9.879829884E-1,6.644172959E0
3.099428835E0,-5.557280064E0,-3.391113043E0,-9.750379920E-1,6.582834379E0
3.104350955E0,-5.393446922E0,-3.526957989E0,-9.468889832E-1,6.513470742E0
3.109273032E0,-5.250277042E0,-3.631746054E0,-9.085019827E-1,6.448283824E0
3.114195265E0,-5.060748100E0,-3.724720955E0,-8.885489702E-1,6.346198610E0
3.119117344E0,-4.915497780E0,-3.836477995E0,-8.514710069E-1,6.293304752E0
3.124039486E0,-4.795183182E0,-3.885490894E0,-7.692390084E-1,6.219529716E0
3.128961717E0,-4.663895130E0,-3.912621021E0,-6.707329750E-1,6.124573762E0
3.133883796E0,-4.543171883E0,-3.956162930E0,-6.105110049E-1,6.055110203E0
3.138805958E0,-4.423334122E0,-4.030376911E0,-5.429509878E-1,6.008711890E0
3.143728112E0,-4.282901764E0,-4.133052826E0,-5.059649944E-1,5.973388800E0
3.148650265E0,-4.107720852E0,-4.243154049E0,-4.945299923E-1,5.926405892E0
3.153572419E0,-3.924082041E0,-4.437294006E0,-4.940600097E-1,5.944080522E0
3.158494650E0,-3.715466976E0,-4.574825764E0,-4.831019938E-1,5.913299684E0
3.163416806E0,-3.484368086E0,-4.723132133E0,-4.354630113E-1,5.885441882E0
3.168339222E0,-3.290479898E0,-4.896473885E0,-3.467270136E-1,5.909562935E0
3.173261070E0,-3.050241947E0,-5.028457165E0,-1.791840047E-1,5.884000705E0
3.178183246E0,-2.849805117E0,-5.119219780E0,5.201600119E-2,5.859224012E0
3.183105399E0,-2.696224928E0,-5.185383797E0,2.654669881E-1,5.850496278E0
3.188027558E0,-2.549000025E0,-5.126871109E0,5.228250027E-1,5.749396010E0
3.192949712E0,-2.405761957E0,-5.025210857E0,7.807149887E-1,5.625828886E0
3.197871866E0,-2.280838013E0,-4.954580784E0,1.005761027E0,5.546318421E0
3.202794010E0,-2.210047960E0,-4.816724777E0,1.219303966E0,5.438000710E0
3.207716164E0,-2.193239927E0,-4.676053047E0,1.359428048E0,5.340769429E0
3.212638318E0,-2.158766031E0,-4.559267998E0,1.485731006E0,5.258763360E0
3.217560558E0,-2.133095980E0,-4.457058907E0,1.628780007E0,5.202729752E0
3.222482714E0,-2.078193903E0,-4.321982861E0,1.747555971E0,5.104152977E0
3.227404868E0,-1.956022024E0,-4.226213932E0,1.763296962E0,4.979570517E0
3.232327008E0,-1.831258059E0,-4.112316132E0,1.695132971E0,4.810210581E0
3.237249162E0,-1.699046969E0,-4.016066074E0,1.583866954E0,4.639416110E0
3.242171316E0,-1.616554022E0,-3.992111921E0,1.438969970E0,4.541017405E0
3.247093488E0,-1.552587032E0,-4.083452225E0,1.303483963E0,4.558966879E0
3.252015565E0,-1.402089000E0,-4.309636116E0,1.208521962E0,4.690345653E0
3.256937794E0,-1.301702976E0,-4.560727119E0,1.166054964E0,4.884091182E0
3.261859964E0,-1.247051954E0,-4.774975777E0,1.175665021E0,5.073235702E0
3.266782118E0,-1.245818973E0,-4.869176865E0,1.265241027E0,5.182835431E0
3.271704272E0,-1.322199941E0,-4.896218777E0,1.343996048E0,5.246665262E0
3.276626426E0,-1.266291976E0,-4.897687912E0,1.521639943E0,5.282634794E0
3.281548580E0,-1.164479017E0,-4.931145191E0,1.724218011E0,5.352114725E0
3.286470733E0,-1.062029004E0,-5.034505844E0,1.944810033E0,5.500585493E0
3.291392867E0,-9.516959786E-1,-5.150117874E0,2.197873116E0,5.679796263E0
3.296315020E0,-7.973560095E-1,-5.275258064E0,2.442985058E0,5.867904246E0
3.301237113E0,-6.154609919E-1,-5.385557175E0,2.685170889E0,6.049228134E0
3.306159342E0,-3.907630146E-1,-5.531733990E0,2.879224062E0,6.248416429E0
3.311081426E0,-1.487710029E-1,-5.672989845E0,2.997684956E0,6.418026308E0
3.316003578E0,1.255639941E-1,-5.861221790E0,2.968652010E0,6.571345520E0
3.320925706E0,4.999589920E-1,-6.011877060E0,2.763053894E0,6.635291373E0
3.325847860E0,8.218439817E-1,-6.105034828E0,2.502619982E0,6.649058923E0
3.330770014E0,1.108654976E0,-6.144699097E0,2.179354906E0,6.613322210E0
3.335692168E0,1.370550036E0,-6.103862762E0,1.802219987E0,6.510264580E0
3.340614322E0,1.583966017E0,-5.943796158E0,1.384971023E0,6.305220523E0
3.345536553E0,1.722942948E0,-5.661703110E0,9.630759954E-1,5.995909429E0
3.350458709E0,1.823658943E0,-5.302849770E0,5.147070289E-1,5.631240622E0
3.355380862E0,1.878919959E0,-4.881712914E0,7.320400327E-2,5.231330615E0
3.360303016E0,1.862311006E0,-4.388897896E0,-3.066430092E-1,4.777515773E0
3.365225079E0,1.802348018E0,-3.939696074E0,-5.699089766E-1,4.369720789E0
3.370147231E0,1.681730986E0,-3.391122103E0,-7.599909902E-1,3.860766055E0
3.375069365E0,1.511827946E0,-2.897113085E0,-8.821139932E-1,3.384820979E0
3.379991519E0,1.351752996E0,-2.444099903E0,-9.654690027E-1,2.955163429E0
3.384913678E0,1.181540012E0,-2.016155958E0,-9.769470096E-1,2.532853550E0
3.389835831E0,1.041028976E0,-1.635666013E0,-9.120590091E-1,2.142661026E0
3.394757985E0,9.414209723E-1,-1.265051007E0,-7.852630019E-1,1.761608776E0
3.399680149E0,8.055539727E-1,-8.952670097E-1,-6.728479862E-1,1.379545082E0
3.404602303E0,6.447420120E-1,-5.245130062E-1,-5.027269721E-1,9.713601620E-1
3.409524457E0,5.064629912E-1,-2.082320005E-1,-3.749400079E-1,6.636605586E-1
3.414446712E0,4.262360036E-1,1.202680022E-1,-2.506639957E-1,5.088948437E-1
3.419368868E0,3.680459857E-1,4.729039967E-1,-1.414619982E-1,6.157170898E-1
3.424291021E0,3.414260149E-1,8.328970075E-1,-3.965799883E-2,9.010337982E-1
3.429213098E0,2.842859924E-1,1.169262052E0,6.973599643E-2,1.205344507E0
3.434135250E0,2.422119975E-1,1.501248002E0,1.871050000E-1,1.532129399E0
3.439057404E0,1.866640002E-1,1.838616014E0,2.744979858E-1,1.868341895E0
3.443979635E0,1.393110007E-1,2.133586884E0,3.059619963E-1,2.159910481E0
3.448901709E0,1.005889997E-1,2.430397987E0,3.604919910E-1,2.459045953E0
3.453823938E0,4.954700172E-2,2.684113979E0,4.232429862E-1,2.717730190E0
3.458746093E0,-2.095999941E-2,2.954637051E0,4.682390094E-1,2.991582724E0
3.463668160E0,-9.847199917E-2,3.158612013E0,5.264549851E-1,3.203698087E0
3.468590312E0,-1.708759964E-1,3.353590012E0,5.433220267E-1,3.401611882E0
3.473512543E0,-2.761960030E-1,3.527869940E0,5.641940236E-1,3.583359519E0
3.478434699E0,-3.806670010E-1,3.669728994E0,6.172770262E-1,3.740701697E0
3.483356853E0,-4.677149951E-1,3.819756985E0,6.879349947E-1,3.909290894E0
3.488279007E0,-5.088289976E-1,3.949090004E0,7.758600116E-1,4.056621447E0
3.493201098E0,-6.137350202E-1,4.072362900E0,8.289189935E-1,4.200942390E0
3.498123250E0,-6.887810230E-1,4.141918182E0,8.971120119E-1,4.293566756E0
3.503045413E0,-6.983259916E-1,4.193421841E0,9.378060102E-1,4.353380989E0
3.507967567E0,-7.516109943E-1,4.186813831E0,9.347249866E-1,4.355231331E0
3.512889735E0,-7.675740123E-1,4.196066856E0,9.571440220E-1,4.371758411E0
3.517811889E0,-7.818800211E-1,4.190206051E0,9.602130055E-1,4.369344588E0
3.522734043E0,-7.732160091E-1,4.188201904E0,9.632819891E-1,4.366555894E0
3.527656227E0,-7.748280168E-1,4.180667877E0,9.428730011E-1,4.355152334E0
3.532578381E0,-8.056390285E-1,4.174954891E0,8.851280212E-1,4.343127238E0
3.537500611E0,-8.153049946E-1,4.151957989E0,8.142690063E-1,4.308887489E0
3.542422767E0,-8.203430176E-1,4.099913120E0,7.730569839E-1,4.252042728E0
3.547344921E0,-7.873579860E-1,4.035499096E0,7.186800241E-1,4.173929387E0
3.552267075E0,-7.526069880E-1,4.011151791E0,6.846809983E-1,4.138181247E0
3.557189234E0,-7.876369953E-1,4.005545139E0,6.379510164E-1,4.131796873E0
3.562111387E0,-7.943400145E-1,3.982733011E0,5.719980001E-1,4.101258345E0
3.567033541E0,-7.422969937E-1,3.980530024E0,4.614019990E-1,4.075354696E0
3.571955618E0,-6.903929710E-1,3.882358074E0,3.919459879E-1,3.962697103E0
3.576877770E0,-6.096739769E-1,3.743462086E0,3.421980143E-1,3.808189888E0
3.581799991E0,-4.714230001E-1,3.580617905E0,3.119449914E-1,3.624965366E0
3.586722147E0,-3.063719869E-1,3.377362013E0,2.916440070E-1,3.403747080E0
3.591644301E0,-1.267450005E-1,3.234090090E0,2.076719999E-1,3.243228432E0
3.596566377E0,2.730300091E-2,3.072185993E0,9.370700270E-2,3.073736038E0
3.601488606E0,1.987629980E-1,2.951438904E0,-3.357100114E-2,2.958314612E0
3.606410757E0,3.617910147E-1,2.797979116E0,-1.577229947E-1,2.825678046E0
3.611332911E0,5.520970225E-1,2.661930084E0,-2.649520040E-1,2.731461598E0
3.616255065E0,6.935909986E-1,2.507740974E0,-3.393250108E-1,2.623923538E0
3.621177123E0,8.602169752E-1,2.363934994E0,-3.982580006E-1,2.546914081E0
3.626099352E0,9.847940207E-1,2.263922930E0,-4.659430087E-1,2.512422970E0
3.631021382E0,1.073930979E0,2.267152071E0,-4.975419939E-1,2.557509393E0
3.635943534E0,1.146504045E0,2.292016983E0,-5.362460017E-1,2.618276752E0
3.640865693E0,1.202267051E0,2.309614897E0,-5.488590002E-1,2.661017331E0
3.645787847E0,1.248394966E0,2.291218996E0,-5.120339990E-1,2.659013594E0
3.650710001E0,1.348785996E0,2.274621964E0,-5.070490241E-1,2.692624640E0
3.655632160E0,1.455500007E0,2.223881960E0,-5.125049949E-1,2.706804871E0
3.660554314E0,1.592439055E0,2.107851982E0,-5.071799755E-1,2.690006255E0
3.665476553E0,1.737766027E0,2.005357027E0,-4.983470142E-1,2.699932836E0
3.670398709E0,1.895948052E0,1.935346961E0,-4.815700054E-1,2.751744274E0
3.675320863E0,2.047689915E0,1.869003057E0,-4.238600135E-1,2.804614720E0
3.680242988E0,2.193156958E0,1.772922039E0,-3.850930035E-1,2.846311054E0
3.685165065E0,2.291534901E0,1.716467023E0,-3.129299879E-1,2.880159096E0
3.690087217E0,2.379160881E0,1.580204964E0,-2.479809970E-1,2.866870907E0
3.695009439E0,2.503624916E0,1.418998957E0,-1.875469983E-1,2.883898340E0
3.699931518E0,2.566956043E0,1.237764001E0,-1.170869991E-1,2.852197822E0
3.704853669E0,2.664433956E0,1.060096979E0,-6.977099925E-2,2.868428473E0
3.709775823E0,2.759965897E0,8.954600096E-1,-3.091700003E-2,2.901760886E0
3.714697981E0,2.877537966E0,6.935830116E-1,-9.611999616E-3,2.959961913E0
3.719620135E0,3.024133921E0,4.734849930E-1,2.315999940E-2,3.061063605E0
3.724542274E0,3.154356956E0,2.471909970E-1,4.387800023E-2,3.164331916E0
3.729464505E0,3.296780109E0,5.050700158E-2,6.241700053E-2,3.297757712E0
3.734386660E0,3.391697884E0,-1.332349926E-1,8.374500275E-2,3.395346716E0
3.739308814E0,3.423894882E0,-2.706359923E-1,8.134900033E-2,3.435537464E0
3.744230968E0,3.435488939E0,-3.541899920E-1,1.034680009E-1,3.455248244E0
3.749153045E0,3.416939974E0,-4.102439880E-1,1.687040031E-1,3.445611695E0
3.754075260E0,3.332905054E0,-4.671790004E-1,3.025969863E-1,3.379064553E0
3.758997416E0,3.231081963E0,-4.940269887E-1,4.595000148E-1,3.300771664E0
3.763919497E0,3.133276939E0,-5.696449876E-1,6.180629730E-1,3.244059437E0
3.768841649E0,3.113521099E0,-7.204999924E-1,7.360470295E-1,3.279466283E0
3.773763802E0,3.038599014E0,-9.363859892E-1,7.975590229E-1,3.278109682E0
3.778685971E0,2.966185093E0,-1.197988987E0,8.597959876E-1,3.312503699E0
3.783608125E0,2.957478046E0,-1.460374951E0,8.738530278E-1,3.412182660E0
3.788530279E0,2.980026007E0,-1.636070013E0,8.571419716E-1,3.505990937E0
3.793452515E0,3.019623041E0,-1.763329029E0,8.568180203E-1,3.600220784E0
3.798374671E0,3.038433075E0,-1.875350952E0,7.702019811E-1,3.652701444E0
3.803296824E0,3.027507067E0,-1.993226051E0,6.167330146E-1,3.676834065E0
3.808218968E0,2.958827019E0,-2.137957096E0,4.276669919E-1,3.675379834E0
3.813141045E0,2.892680883E0,-2.354695082E0,2.341769934E-1,3.737249053E0
3.818063192E0,2.839004040E0,-2.667103052E0,3.867499903E-2,3.895494626E0
3.822985346E0,2.855070114E0,-2.998697042E0,-1.347520053E-1,4.142676359E0
3.827907538E0,2.907258034E0,-3.335185051E0,-2.669009864E-1,4.432476140E0
3.832829692E0,2.976634979E0,-3.681149006E0,-3.454619944E-1,4.746636472E0
3.837751846E0,3.010730028E0,-3.981328011E0,-3.867950141E-1,5.006503612E0
3.842674000E0,3.083775997E0,-4.254808903E0,-4.020850062E-1,5.270175097E0
3.847596154E0,3.171845913E0,-4.470394135E0,-4.025140107E-1,5.496093862E0
3.852518308E0,3.219906092E0,-4.575323105E0,-3.992660046E-1,5.608991897E0
3.857440534E0,3.175569057E0,-4.669878006E0,-3.559699953E-1,5.658508113E0
3.862362690E0,3.108007908E0,-4.668066025E0,-3.011290133E-1,5.616158140E0
3.867284844E0,2.981197119E0,-4.625067234E0,-2.227459997E-1,5.507122566E0
3.872206977E0,2.837708950E0,-4.481497765E0,-1.352329999E-1,5.306100476E0
3.877129131E0,2.650868893E0,-4.302360058E0,2.809499949E-2,5.053533148E0
3.882051300E0,2.446629047E0,-4.112006187E0,2.071190029E-1,4.789309644E0
3.886973377E0,2.229414940E0,-3.918029070E0,4.872370064E-1,4.534163944E0
3.891895529E0,1.996462941E0,-3.694011927E0,8.171859980E-1,4.277777618E0
3.896817789E0,1.807116985E0,-3.467436075E0,1.139513969E0,4.072748067E0
3.901739945E0,1.606184959E0,-3.272099018E0,1.441833973E0,3.919865726E0
3.906662098E0,1.352910042E0,-3.038765907E0,1.735721946E0,3.751958754E0
3.911584242E0,1.133458972E0,-2.798755884E0,1.955775023E0,3.597613053E0
3.916506319E0,9.430130124E-1,-2.576204062E0,2.144295931E0,3.481968688E0
3.921428529E0,7.434160113E-1,-2.332792044E0,2.281290054E0,3.346471335E0
3.926350685E0,5.491300225E-1,-2.097265959E0,2.404150009E0,3.237283668E0
3.931272839E0,3.388189971E-1,-1.879094005E0,2.444977999E0,3.102210503E0
3.936194998E0,1.222850010E-1,-1.666131020E0,2.491631985E0,2.999862687E0
3.941117075E0,-9.315299988E-2,-1.458282948E0,2.462006092E0,2.862995046E0
3.946039303E0,-2.953659892E-1,-1.219504952E0,2.403486013E0,2.711305666E0
3.950961455E0,-4.720970094E-1,-1.062016964E0,2.327374935E0,2.601428397E0
3.955883532E0,-5.752369761E-1,-9.711930156E-1,2.209211111E0,2.480872263E0
3.960805669E0,-6.644080281E-1,-9.395650029E-1,2.094129086E0,2.389476313E0
3.965727823E0,-7.560589910E-1,-9.619500041E-1,1.977072001E0,2.325034775E0
3.970649977E0,-8.093240261E-1,-9.614949822E-1,1.893632054E0,2.272734111E0
3.975572126E0,-8.335149884E-1,-9.497969747E-1,1.822070956E0,2.217386772E0
3.980494279E0,-9.169510007E-1,-9.072989821E-1,1.730955005E0,2.158748667E0
3.985416510E0,-1.037902951E0,-8.193380237E-1,1.651294947E0,2.115498129E0
3.990338661E0,-1.186615944E0,-7.143579721E-1,1.618971944E0,2.130594956E0
3.995260815E0,-1.415685058E0,-6.161379814E-1,1.641199946E0,2.253292582E0
4.000182969E0,-1.653303981E0,-4.959659874E-1,1.663382053E0,2.397130820E0
4.005105013E0,-1.870818973E0,-4.353710115E-1,1.748253942E0,2.597287699E0
4.010027165E0,-2.116111040E0,-3.865019977E-1,1.841372013E0,2.831600364E0
4.014949323E0,-2.363008022E0,-3.233070076E-1,1.936218977E0,3.072015342E0
4.019871477E0,-2.575659037E0,-2.531189919E-1,1.994994044E0,3.267734679E0
4.024793645E0,-2.770940065E0,-1.737760007E-1,1.994354010E0,3.418443339E0
4.029715799E0,-2.960808992E0,-1.308189929E-1,1.944381952E0,3.544590904E0
4.034637953E0,-3.104607105E0,-1.171849966E-1,1.840577006E0,3.611099738E0
4.039560117E0,-3.207071066E0,-1.423940063E-1,1.706974030E0,3.635841197E0
4.044482347E0,-3.306471109E0,-1.920669973E-1,1.574939966E0,3.667434638E0
4.049404503E0,-3.438719034E0,-2.183430046E-1,1.447199941E0,3.737224897E0
4.054326666E0,-3.553462982E0,-2.642549872E-1,1.316921949E0,3.798843677E0
4.059248820E0,-3.645930052E0,-3.107010126E-1,1.194059014E0,3.849041178E0
4.064170974E0,-3.725644112E0,-3.671920002E-1,1.069270015E0,3.893403701E0
4.069093056E0,-3.835655928E0,-4.168879986E-1,9.570630193E-1,3.975175672E0
4.074015208E0,-3.937685013E0,-4.622290134E-1,8.719419837E-1,4.059470624E0
4.078937428E0,-4.065209866E0,-5.031380057E-1,8.284569979E-1,4.179165000E0
4.083859507E0,-4.187151909E0,-5.397109985E-1,7.455090284E-1,4.287110073E0
4.088781751E0,-4.313087940E0,-5.791220069E-1,6.902629733E-1,4.406197096E0
4.093703907E0,-4.426249981E0,-6.429039836E-1,6.629049778E-1,4.521554759E0
4.098626061E0,-4.552935123E0,-7.190129757E-1,6.589859724E-1,4.656228131E0
4.103548200E0,-4.664416790E0,-8.074399829E-1,6.547930241E-1,4.778859406E0
4.108470277E0,-4.724753857E0,-9.224960208E-1,6.363540292E-1,4.855846411E0
4.113392505E0,-4.786640167E0,-1.064214945E0,6.421549916E-1,4.945385786E0
4.118314661E0,-4.840456963E0,-1.292356014E0,6.244660020E-1,5.048778611E0
4.123236815E0,-4.879045963E0,-1.532745004E0,6.194310188E-1,5.151513520E0
4.128158969E0,-4.880891800E0,-1.802186966E0,6.148110032E-1,5.239176958E0
4.133081046E0,-4.874672890E0,-2.069442987E0,6.344119906E-1,5.333620593E0
4.138003275E0,-4.814832211E0,-2.319948912E0,6.779860258E-1,5.387433268E0
4.142925348E0,-4.758736134E0,-2.519910097E0,7.380660176E-1,5.435095025E0
4.147847576E0,-4.682328224E0,-2.731245995E0,8.191990256E-1,5.482243093E0
4.152769756E0,-4.674151897E0,-2.932199001E0,8.756319880E-1,5.586789626E0
4.157691910E0,-4.676674843E0,-3.120089054E0,9.263010025E-1,5.697743136E0
4.162613987E0,-4.697089195E0,-3.342716932E0,9.709950089E-1,5.846300942E0
4.167536163E0,-4.665999889E0,-3.571365118E0,9.786549807E-1,5.956842229E0
4.172458394E0,-4.638422966E0,-3.853672028E0,1.009163022E0,6.114259212E0
4.177380550E0,-4.549727917E0,-4.177609921E0,9.811289907E-1,6.254203615E0
4.182302684E0,-4.483645916E0,-4.528460026E0,9.880189896E-1,6.448737274E0
4.187224838E0,-4.385077000E0,-4.860509872E0,1.001039982E0,6.622351362E0
4.192146992E0,-4.275561810E0,-5.180716038E0,1.046321988E0,6.798164249E0
4.197069127E0,-4.162230015E0,-5.479108810E0,1.128407001E0,6.972667668E0
4.201991204E0,-4.052251816E0,-5.767380238E0,1.182461023E0,7.147141642E0
4.206913380E0,-3.941629887E0,-6.003207207E0,1.253291965E0,7.290108619E0
4.211835534E0,-3.829930067E0,-6.261666775E0,1.324108958E0,7.458558819E0
4.216757774E0,-3.681288004E0,-6.497363091E0,1.415953994E0,7.600824574E0
4.221679929E0,-3.550781012E0,-6.722204208E0,1.552304983E0,7.759234883E0
4.226602083E0,-3.433536053E0,-6.912036896E0,1.659085035E0,7.894174246E0
4.231524156E0,-3.339193106E0,-6.995242119E0,1.755293012E0,7.947620805E0
4.236446385E0,-3.272447109E0,-7.103246212E0,1.840829968E0,8.034529968E0
4.241368541E0,-3.245265007E0,-7.133087158E0,1.953675985E0,8.076479879E0
4.246290680E0,-3.226536036E0,-7.137596130E0,2.031578064E0,8.092164280E0
4.251212834E0,-3.149303913E0,-7.133827209E0,2.121973991E0,8.081607477E0
4.256134987E0,-3.121265888E0,-7.092947960E0,2.212625027E0,8.059027300E0
4.261057078E0,-3.094598055E0,-7.041578770E0,2.319953918E0,8.033838116E0
4.265979307E0,-3.083667994E0,-6.939171791E0,2.405774117E0,7.965479429E0
4.270901377E0,-3.083677053E0,-6.809863091E0,2.453669071E0,7.867896249E0
4.275823606E0,-2.984498024E0,-6.713911057E0,2.412008047E0,7.733150260E0
4.280745685E0,-2.941485882E0,-6.741703987E0,2.343580961E0,7.719798156E0
4.285667943E0,-2.849298954E0,-6.824039936E0,2.270113945E0,7.735595834E0
4.290590021E0,-2.748604059E0,-6.987285137E0,2.227267027E0,7.831838627E0
4.295512250E0,-2.610785007E0,-7.133695126E0,2.214616060E0,7.912668879E0
4.300434314E0,-2.475416899E0,-7.330849171E0,2.261898041E0,8.061341150E0
4.305356774E0,-2.331898928E0,-7.472305775E0,2.276113987E0,8.151920086E0
4.310278699E0,-2.163433075E0,-7.610665798E0,2.223731041E0,8.218738121E0
4.315200851E0,-2.070434093E0,-7.736026764E0,2.148159981E0,8.291405112E0
4.320123015E0,-1.988191962E0,-7.833941936E0,2.068671942E0,8.342838674E0
4.325045093E0,-1.935812950E0,-7.870872974E0,1.971099973E0,8.341657405E0
4.329967240E0,-1.925227046E0,-7.880308151E0,1.881836057E0,8.327488378E0
4.334889394E0,-1.915701032E0,-7.867074013E0,1.803272009E0,8.295333261E0
4.339811548E0,-1.880828023E0,-7.792797089E0,1.709107995E0,8.196721946E0
4.344733702E0,-1.830088019E0,-7.702849865E0,1.635377049E0,8.084403274E0
4.349655856E0,-1.765666962E0,-7.556214809E0,1.556069016E0,7.914247459E0
4.354578020E0,-1.720975995E0,-7.400725842E0,1.459542036E0,7.737103096E0
4.359500174E0,-1.609637976E0,-7.228946209E0,1.288450003E0,7.517226956E0
4.364422328E0,-1.441110015E0,-7.119836807E0,1.114801049E0,7.349262250E0
4.369344562E0,-1.303905010E0,-7.039930820E0,9.241139889E-1,7.219056787E0
4.374266718E0,-1.166805029E0,-6.972469807E0,6.923159957E-1,7.103243669E0
4.379188872E0,-9.914190173E-1,-6.903113842E0,4.717899859E-1,6.989883989E0
4.384111060E0,-8.183479905E-1,-6.803154945E0,2.071090043E-1,6.855326745E0
4.389033214E0,-5.994920135E-1,-6.665180206E0,-3.969400004E-2,6.692203932E0
4.393955391E0,-3.680959940E-1,-6.486583233E0,-3.258959949E-1,6.505187537E0
4.398877545E0,-2.388760000E-1,-6.260109901E0,-6.249780059E-1,6.295763276E0
4.403799704E0,-9.901800007E-2,-5.985632896E0,-9.246649742E-1,6.057442616E0
4.408721858E0,1.814699918E-2,-5.687123775E0,-1.198513985E0,5.812068644E0
4.413643935E0,9.114599973E-2,-5.340954781E0,-1.405735016E0,5.523603579E0
4.418566164E0,8.650799841E-2,-5.004938126E0,-1.553418040E0,5.241182775E0
4.423488243E0,6.877300143E-2,-4.631797791E0,-1.665470958E0,4.922608456E0
4.428410471E0,4.251000006E-3,-4.267698765E0,-1.739508033E0,4.608596209E0
4.433332617E0,-6.191900000E-2,-3.889648914E0,-1.761095047E0,4.270205897E0
4.438254771E0,-1.563960016E-1,-3.496030092E0,-1.696822047E0,3.889201869E0
4.443176925E0,-2.292910069E-1,-3.099632025E0,-1.575415969E0,3.484570064E0
4.448099084E0,-2.953400016E-1,-2.684405088E0,-1.411165953E0,3.047071667E0
4.453021161E0,-3.141559958E-1,-2.258079052E0,-1.213503003E0,2.582673912E0
4.457943371E0,-2.715770006E-1,-1.820981979E0,-9.990019798E-1,2.094691956E0
4.462865449E0,-2.467850000E-1,-1.423645020E0,-7.888510227E-1,1.646193766E0
4.467787601E0,-2.662970126E-1,-1.025588989E0,-5.804939866E-1,1.208188786E0
4.472709755E0,-2.608869970E-1,-6.366199851E-1,-3.810519874E-1,7.864780021E-1
4.477631909E0,-3.073360026E-1,-2.401259989E-1,-1.952610016E-1,4.361682847E-1
4.482554063E0,-3.435750008E-1,1.397950053E-1,3.230999922E-3,3.709405128E-1
4.487476217E0,-3.793630004E-1,4.934409857E-1,1.786089987E-1,6.475349155E-1
4.492398448E0,-3.430149853E-1,8.159319758E-1,3.334099948E-1,9.458152536E-1
4.497320603E0,-2.967790067E-1,1.109783053E0,4.413239956E-1,1.230635232E0
4.502242986E0,-1.975020021E-1,1.375152946E0,4.830839932E-1,1.470857848E0
4.507164911E0,-7.872900367E-2,1.614492059E0,5.065770149E-1,1.693931267E0
4.512087034E0,2.366399951E-2,1.859056950E0,4.852859974E-1,1.921498172E0
4.517009188E0,3.786100075E-2,2.104141951E0,4.213019907E-1,2.146239076E0
4.521931243E0,1.394800004E-2,2.316099882E0,3.214929998E-1,2.338347912E0
4.526853472E0,3.070399910E-2,2.540275097E0,2.405350059E-1,2.551822367E0
4.531775627E0,8.071400225E-2,2.752585888E0,1.562909931E-1,2.758200626E0
4.536697800E0,1.373640001E-1,2.952871084E0,1.018780023E-1,2.957819406E0
4.541619954E0,1.668930054E-1,3.176920891E0,6.270200014E-2,3.181919415E0
4.546542031E0,1.595389992E-1,3.376790047E0,7.199099660E-2,3.381323175E0
4.551464255E0,2.059500068E-1,3.559464931E0,9.142500162E-2,3.566590043E0
4.556386411E0,2.173929960E-1,3.703389883E0,1.832650006E-1,3.714288950E0
4.561308565E0,1.983260065E-1,3.837124109E0,2.926220000E-1,3.853372843E0
4.566230704E0,2.036840022E-1,3.907994986E0,4.150370061E-1,3.935246841E0
4.571152858E0,2.020729929E-1,4.009285927E0,5.532969832E-1,4.052325837E0
4.576075012E0,2.077769935E-1,4.054852009E0,7.174559832E-1,4.123073996E0
4.580997161E0,2.518950105E-1,4.104660034E0,9.104719758E-1,4.211964424E0
4.585919315E0,2.938210070E-1,4.142140865E0,1.092435956E0,4.293841875E0
4.590841478E0,3.885720074E-1,4.143435955E0,1.235327005E0,4.341092320E0
4.595763632E0,4.860399961E-1,4.180615902E0,1.344581962E0,4.418335077E0
4.600685790E0,6.535710096E-1,4.131904125E0,1.406399012E0,4.413359825E0
4.605607867E0,8.220260143E-1,4.062257767E0,1.408944011E0,4.377532199E0
4.610530096E0,1.008491993E0,3.931273937E0,1.337905049E0,4.273401548E0
4.615452180E0,1.203822970E0,3.771475077E0,1.200992942E0,4.137100198E0
4.620374332E0,1.362961054E0,3.604156017E0,1.035256982E0,3.989907323E0
4.625296563E0,1.533676028E0,3.457989931E0,8.096160293E-1,3.868505479E0
4.630218714E0,1.723610997E0,3.263887882E0,5.288119912E-1,3.728731835E0
4.635140867E0,1.903887033E0,3.110332012E0,2.495200038E-1,3.655299070E0
4.640063021E0,2.062756062E0,2.959163904E0,-3.129800037E-2,3.607297208E0
4.644985083E0,2.226690054E0,2.798491001E0,-2.763020098E-1,3.586926718E0
4.649907312E0,2.374047995E0,2.647388935E0,-5.169349909E-1,3.593326292E0
4.654829454E0,2.509429932E0,2.517699003E0,-7.676749825E-1,3.636670418E0
4.659751531E0,2.649188042E0,2.411535025E0,-1.026247978E0,3.726510884E0
4.664673692E0,2.824103117E0,2.331053972E0,-1.271424055E0,3.876324311E0
4.669595846E0,3.036091089E0,2.295109034E0,-1.449059010E0,4.072486537E0
4.674518076E0,3.215584993E0,2.313199997E0,-1.543282986E0,4.251188475E0
4.679440228E0,3.379235029E0,2.358937979E0,-1.550238967E0,4.403073770E0
4.684362382E0,3.522212982E0,2.425147057E0,-1.515759945E0,4.537053091E0
4.689284536E0,3.610807896E0,2.521300077E0,-1.394970059E0,4.619613534E0
4.694206690E0,3.645184994E0,2.621191978E0,-1.233525991E0,4.656136531E0
4.699128844E0,3.701699972E0,2.707915068E0,-1.074213028E0,4.710554142E0
4.704050996E0,3.734848022E0,2.767110109E0,-8.787400126E-1,4.730557273E0
4.708973149E0,3.734936953E0,2.822664976E0,-6.781520247E-1,4.730442028E0
4.713895302E0,3.787934065E0,2.843317986E0,-5.175070167E-1,4.764526751E0
4.718817476E0,3.786011934E0,2.860148907E0,-3.441520035E-1,4.757392010E0
4.723739630E0,3.793438911E0,2.884896994E0,-2.009820044E-1,4.770031782E0
4.728661827E0,3.750493050E0,2.867372990E0,-1.305090040E-1,4.722823158E0
4.733583981E0,3.700469017E0,2.771785021E0,-8.233900368E-2,4.624180236E0
4.738506135E0,3.678978920E0,2.650614977E0,-7.519900054E-2,4.535008328E0
4.743428289E0,3.714601040E0,2.494183064E0,-1.086229980E-1,4.475601523E0
4.748350443E0,3.769263029E0,2.257143974E0,-1.822469980E-1,4.397187359E0
4.753272827E0,3.828779936E0,1.963544965E0,-2.555159926E-1,4.310493365E0
4.758194757E0,3.917078972E0,1.656461000E0,-3.406110108E-1,4.266542696E0
4.763117139E0,3.990830898E0,1.414741993E0,-4.233700037E-1,4.255287103E0
4.768039065E0,4.059720039E0,1.192947030E0,-5.109390020E-1,4.262101369E0
4.772961125E0,4.128414154E0,1.031671047E0,-5.487490296E-1,4.290602997E0
4.777883278E0,4.175588131E0,9.118819833E-1,-5.632029772E-1,4.310946832E0
4.782805418E0,4.175209045E0,8.289579749E-1,-5.065240264E-1,4.286736344E0
4.787727649E0,4.118142128E0,7.328799963E-1,-3.836239874E-1,4.200401771E0
4.792649795E0,4.040454865E0,6.357030272E-1,-2.346030027E-1,4.096880816E0
4.797571949E0,3.954372883E0,4.968740046E-1,-7.580699772E-2,3.986188076E0
4.802494103E0,3.862430096E0,3.188590109E-1,1.503680050E-1,3.878485252E0
4.807416246E0,3.802742004E0,1.158849970E-1,4.130620062E-1,3.826865075E0
4.812338400E0,3.791980982E0,-1.193049997E-1,6.483089924E-1,3.848851517E0
4.817260554E0,3.810842991E0,-3.892309964E-1,8.900679946E-1,3.932714852E0
4.822182718E0,3.833293915E0,-7.631350160E-1,1.164773941E0,4.078383948E0
4.827104872E0,3.854424000E0,-1.135777950E0,1.410359025E0,4.258601707E0
4.832027026E0,3.905215025E0,-1.507287025E0,1.638710976E0,4.495330047E0
4.836949098E0,3.906634092E0,-1.801105022E0,1.851899028E0,4.683513557E0
4.841871250E0,3.958957911E0,-2.048597097E0,2.037647963E0,4.901235255E0
4.846793523E0,4.012082100E0,-2.240111113E0,2.129110098E0,5.064386476E0
4.851715679E0,4.056759834E0,-2.418535948E0,2.131238937E0,5.181582373E0
4.856637848E0,4.069456100E0,-2.593185902E0,2.094204903E0,5.260302296E0
4.861560002E0,3.998009920E0,-2.780467987E0,1.979480982E0,5.256750946E0
4.866482156E0,3.926393032E0,-2.975483894E0,1.865504026E0,5.267843194E0
4.871404295E0,3.866518974E0,-3.180685997E0,1.720697999E0,5.294103701E0
4.876326677E0,3.811197042E0,-3.348212004E0,1.599496961E0,5.319223350E0
4.881248833E0,3.803174973E0,-3.449626923E0,1.489457965E0,5.346265127E0
4.886171002E0,3.763874054E0,-3.587553024E0,1.413975954E0,5.388563129E0
4.891093156E0,3.693340063E0,-3.661401033E0,1.356112957E0,5.374538185E0
4.896015310E0,3.591717958E0,-3.714158058E0,1.303832054E0,5.328732119E0
4.900937464E0,3.513941050E0,-3.753113031E0,1.247913003E0,5.290645139E0
4.905859397E0,3.333408117E0,-3.773247004E0,1.238911033E0,5.184968965E0
4.910781472E0,3.138454914E0,-3.767589092E0,1.289119959E0,5.070153556E0
4.915703933E0,2.931269884E0,-3.762665033E0,1.389323950E0,4.967918309E0
4.920625781E0,2.692578077E0,-3.756207943E0,1.539819002E0,4.871356831E0
4.925548010E0,2.443387032E0,-3.700836897E0,1.705024004E0,4.751151521E0
4.930470135E0,2.203964949E0,-3.652647018E0,1.875906944E0,4.660291686E0
4.935392289E0,1.952844977E0,-3.590398073E0,2.032155991E0,4.564451752E0
4.940314673E0,1.735316992E0,-3.523981094E0,2.197906971E0,4.501173499E0
4.945236829E0,1.544185042E0,-3.422421932E0,2.317960978E0,4.412530161E0
4.950158752E0,1.355502963E0,-3.333762884E0,2.394489050E0,4.322608132E0
4.955081135E0,1.143023014E0,-3.274842024E0,2.412734032E0,4.225207379E0
4.960003286E0,9.356039762E-1,-3.188222885E0,2.432168007E0,4.117713101E0
4.964925132E0,7.621889710E-1,-3.128926039E0,2.416387081E0,4.026168987E0
4.969847361E0,5.679039955E-1,-3.041826963E0,2.403196096E0,3.917981330E0
4.974769440E0,3.577859998E-1,-2.924416065E0,2.387172937E0,3.791940767E0
4.979691597E0,1.440750062E-1,-2.848349094E0,2.367731094E0,3.706750694E0
4.984613827E0,-6.095900014E-2,-2.770313025E0,2.349152088E0,3.632749067E0
4.989535983E0,-2.474479973E-1,-2.675714016E0,2.321531057E0,3.551081871E0
4.994458122E0,-3.983069956E-1,-2.612153053E0,2.275154114E0,3.486878013E0
4.999380276E0,-5.564159751E-1,-2.624948025E0,2.248291016E0,3.500680414E0
5.004302430E0,-7.286069989E-1,-2.634727001E0,2.260073900E0,3.546912540E0
5.009224812E0,-9.052429795E-1,-2.648628950E0,2.255158901E0,3.594501612E0
5.014146968E0,-9.688140154E-1,-2.649689913E0,2.185446978E0,3.568702246E0
5.019069122E0,-1.043594956E0,-2.644804001E0,2.148772001E0,3.563888291E0
5.023991238E0,-1.138913989E0,-2.590537071E0,2.099415064E0,3.523570774E0
5.028913161E0,-1.266456962E0,-2.527173042E0,2.034770012E0,3.482930637E0
5.033835318E0,-1.440397978E0,-2.442431927E0,1.961925030E0,3.448096558E0
5.038757472E0,-1.641415954E0,-2.357575893E0,1.876150012E0,3.431085731E0
5.043679611E0,-1.855103970E0,-2.215030909E0,1.823094010E0,3.416349577E0
5.048601764E0,-2.069433928E0,-2.091283083E0,1.759943962E0,3.428326773E0
5.053523918E0,-2.277204990E0,-1.981480002E0,1.708490968E0,3.468554015E0
5.058446101E0,-2.502414942E0,-1.861703038E0,1.683364987E0,3.544254001E0
5.063368255E0,-2.673321962E0,-1.753605008E0,1.624873996E0,3.586362550E0
5.068290640E0,-2.861763954E0,-1.678712964E0,1.569206953E0,3.670174465E0
5.073212810E0,-3.022280931E0,-1.641850948E0,1.512017965E0,3.757133867E0
5.078134963E0,-3.166939974E0,-1.633584023E0,1.446395040E0,3.845798248E0
5.083057117E0,-3.341260910E0,-1.644364953E0,1.379981995E0,3.971436878E0
5.087979271E0,-3.468703032E0,-1.643182993E0,1.332218051E0,4.062850724E0
5.092901194E0,-3.604357004E0,-1.673161983E0,1.277251959E0,4.173994849E0
5.097823346E0,-3.726788998E0,-1.727327943E0,1.263188004E0,4.297471581E0
5.102745500E0,-3.838478088E0,-1.813001037E0,1.232728958E0,4.420464622E0
5.107667654E0,-3.953818083E0,-1.844050050E0,1.217296004E0,4.529349576E0
5.112589808E0,-4.082331181E0,-1.918501973E0,1.202770948E0,4.668269020E0
5.117511961E0,-4.224050045E0,-1.935848951E0,1.213263035E0,4.802303316E0
5.122434115E0,-4.347901821E0,-1.989550948E0,1.186722994E0,4.926547948E0
5.127356264E0,-4.475406170E0,-2.041228056E0,1.176018953E0,5.057558002E0
5.132278418E0,-4.630484104E0,-2.107544899E0,1.145418048E0,5.214893196E0
5.137200803E0,-4.770071983E0,-2.145456076E0,1.128566027E0,5.350722360E0
5.142122969E0,-4.877435207E0,-2.176546097E0,1.092154980E0,5.451562126E0
5.147045122E0,-4.997978210E0,-2.269984961E0,1.062659979E0,5.591231004E0
5.151967276E0,-5.107748032E0,-2.361049891E0,1.042546988E0,5.722809691E0
5.156889208E0,-5.163679123E0,-2.478513002E0,1.053578973E0,5.823799227E0
5.161811360E0,-5.230384827E0,-2.670103073E0,1.050238967E0,5.965683343E0
5.166733750E0,-5.274342060E0,-2.839986086E0,1.054116011E0,6.082381581E0
5.171655906E0,-5.283557892E0,-2.961709023E0,1.084334016E0,6.153331178E0
5.176577829E0,-5.284334183E0,-3.106901884E0,1.066745043E0,6.222135651E0
5.181499981E0,-5.305385113E0,-3.253880978E0,1.063498020E0,6.313943352E0
5.186422365E0,-5.332303047E0,-3.395215034E0,1.067237973E0,6.410923320E0
5.191344545E0,-5.350729942E0,-3.533215046E0,1.060875058E0,6.499182669E0
5.196266699E0,-5.379809856E0,-3.691628933E0,1.058437943E0,6.609899330E0
5.201188853E0,-5.395573139E0,-3.848670959E0,1.112285018E0,6.720242229E0
5.206111021E0,-5.386086941E0,-4.011455059E0,1.135905027E0,6.811166160E0
5.211033175E0,-5.399249077E0,-4.167874813E0,1.167402029E0,6.919963768E0
5.215955328E0,-5.375205994E0,-4.363179207E0,1.208775997E0,7.027895252E0
5.220877224E0,-5.354692936E0,-4.515839100E0,1.242939949E0,7.114101414E0
5.225799375E0,-5.328168869E0,-4.707131863E0,1.265022039E0,7.221270984E0
5.230721543E0,-5.314824104E0,-4.910577774E0,1.241374016E0,7.341807596E0
5.235643697E0,-5.274009228E0,-5.145267963E0,1.243826032E0,7.472352973E0
5.240565851E0,-5.205790997E0,-5.437582016E0,1.241050959E0,7.629401390E0
5.245487995E0,-5.115015030E0,-5.751543999E0,1.261679053E0,7.799709684E0
5.250410149E0,-5.008911133E0,-6.067942142E0,1.303166986E0,7.975422044E0
5.255332298E0,-4.901910782E0,-6.374800205E0,1.348680973E0,8.153879281E0
5.260254682E0,-4.772512913E0,-6.719947815E0,1.429327011E0,8.365258743E0
5.265176838E0,-4.599494934E0,-7.007186890E0,1.467502952E0,8.509382273E0
5.270098963E0,-4.402176857E0,-7.286987782E0,1.528591037E0,8.649620949E0
5.275021117E0,-4.204470158E0,-7.587866783E0,1.612403035E0,8.823442365E0
5.279943271E0,-3.996752024E0,-7.835396767E0,1.683053970E0,8.955453082E0
5.284865180E0,-3.848404884E0,-8.050798416E0,1.780853033E0,9.099286391E0
5.289787332E0,-3.680382013E0,-8.202871323E0,1.874670982E0,9.184046003E0
5.294709480E0,-3.545281887E0,-8.300840378E0,1.950132966E0,9.234500161E0
5.299631865E0,-3.454987049E0,-8.313266754E0,2.007385015E0,9.223715858E0
5.304554021E0,-3.354330063E0,-8.328379631E0,2.063307047E0,9.212528069E0
5.309475959E0,-3.310249090E0,-8.307561874E0,2.122407913E0,9.191188644E0
5.314398111E0,-3.272363901E0,-8.293682098E0,2.172894955E0,9.176873146E0
5.319320265E0,-3.274111032E0,-8.229223251E0,2.238356113E0,9.135105717E0
5.324242639E0,-3.253173113E0,-8.109538078E0,2.283202887E0,9.031099521E0
5.329164795E0,-3.185513973E0,-8.011260986E0,2.305490017E0,8.924297512E0
5.334086963E0,-3.085344076E0,-7.924530983E0,2.276961088E0,8.803527200E0
5.339009117E0,-3.002796888E0,-7.841968060E0,2.241028070E0,8.691113796E0
5.343931040E0,-2.930990934E0,-7.786835194E0,2.200176001E0,8.606177120E0
5.348853178E0,-2.891380072E0,-7.682061195E0,2.110626936E0,8.475192564E0
5.353775332E0,-2.821651936E0,-7.577812195E0,1.929576993E0,8.313135671E0
5.358697467E0,-2.748085976E0,-7.505215168E0,1.726971984E0,8.176959305E0
5.363619620E0,-2.704159975E0,-7.440452099E0,1.519896030E0,8.061196719E0
5.368541774E0,-2.656337976E0,-7.410165787E0,1.332545042E0,7.983881557E0
5.373463928E0,-2.645306110E0,-7.328477859E0,1.184291959E0,7.880785468E0
5.378386082E0,-2.601630926E0,-7.212598801E0,1.053606033E0,7.739518758E0
5.383308245E0,-2.558795929E0,-7.084343910E0,9.286370277E-1,7.589316964E0
5.388230629E0,-2.507184029E0,-6.898500919E0,8.143209815E-1,7.385012210E0
5.393152785E0,-2.461122036E0,-6.681687832E0,6.821389794E-1,7.153138300E0
5.398074930E0,-2.470874071E0,-6.467792988E0,5.322840214E-1,6.944126373E0
5.402997084E0,-2.514925957E0,-6.300457954E0,3.770219982E-1,6.794318847E0
5.407919007E0,-2.569394112E0,-6.165921211E0,2.356300056E-1,6.684002692E0
5.412841144E0,-2.545772076E0,-6.110281944E0,1.127829999E-1,6.620364107E0
5.417763298E0,-2.427361012E0,-6.119672775E0,3.486000001E-3,6.583501235E0
5.422685462E0,-2.271636009E0,-6.136896133E0,-2.787199989E-2,6.543898010E0
5.427607616E0,-2.088166952E0,-6.157358170E0,-2.210599929E-2,6.501845086E0
5.432529778E0,-1.845747948E0,-6.169011116E0,4.219299927E-2,6.439352754E0
5.437452163E0,-1.582604051E0,-6.174217224E0,1.001920030E-1,6.374608408E0
5.442374088E0,-1.351294994E0,-6.213531017E0,1.276749969E-1,6.360052419E0
5.447296260E0,-1.087100983E0,-6.274997234E0,1.482969970E-1,6.370193940E0
5.452218645E0,-8.593950272E-1,-6.325106144E0,1.114929989E-1,6.384195974E0
5.457140800E0,-6.992049813E-1,-6.385377884E0,8.622100204E-2,6.424124251E0
5.462062958E0,-5.035359859E-1,-6.419985771E0,3.882100061E-2,6.439819319E0
5.466985112E0,-3.369430006E-1,-6.443271160E0,-9.045000188E-3,6.452081497E0
5.471907035E0,-1.370359957E-1,-6.428791046E0,-4.512500018E-2,6.430409742E0
5.476829187E0,9.393599629E-2,-6.345306873E0,-7.408399880E-2,6.346434568E0
5.481751572E0,2.675549984E-1,-6.240587234E0,-9.811700135E-2,6.247090655E0
5.486673728E0,4.150539935E-1,-6.105062962E0,-1.268679947E-1,6.120470494E0
5.491595651E0,5.964499712E-1,-5.907526970E0,-1.916979998E-1,5.940654475E0
5.496517803E0,7.376329899E-1,-5.691126823E0,-2.401130050E-1,5.743751492E0
5.501440192E0,8.194959760E-1,-5.489538193E0,-2.698689997E-1,5.556926534E0
5.506362348E0,9.090870023E-1,-5.250336170E0,-2.692059875E-1,5.335254534E0
5.511284488E0,1.011167049E0,-5.033648968E0,-2.359360009E-1,5.139625135E0
5.516206642E0,1.089864969E0,-4.729485989E0,-1.318500042E-1,4.855226853E0
5.521128796E0,1.147529960E0,-4.414745808E0,-2.658000030E-2,4.561525189E0
5.526050953E0,1.159695029E0,-4.047367096E0,8.220099658E-2,4.211036686E0
5.530973107E0,1.160359025E0,-3.641048908E0,2.134599984E-1,3.827431958E0
5.535895016E0,1.209352016E0,-3.184010983E0,3.239319921E-1,3.421314100E0
5.540817168E0,1.227579951E0,-2.741169930E0,4.587480128E-1,3.038324350E0
5.545739332E0,1.250836968E0,-2.276896000E0,5.913789868E-1,2.664315601E0
5.550661486E0,1.262316942E0,-1.839247942E0,7.120810151E-1,2.341652499E0
5.555583635E0,1.175665021E0,-1.378262997E0,8.686400056E-1,2.009062614E0
5.560505789E0,1.026548982E0,-8.608189821E-1,9.747830033E-1,1.656808388E0
5.565427943E0,9.247699976E-1,-3.783699870E-1,1.052310944E0,1.451110512E0
5.570350107E0,8.173850179E-1,9.027200192E-2,1.082574010E0,1.359497624E0
5.575272261E0,7.303990126E-1,5.423359871E-1,1.087545991E0,1.417874227E0
5.580194645E0,6.419540048E-1,9.056879878E-1,1.058015943E0,1.533549285E0
5.585116806E0,6.020349860E-1,1.259078979E0,9.847739935E-1,1.708070789E0
5.590038960E0,5.600559711E-1,1.556797981E0,8.896480203E-1,1.878498402E0
5.594961113E0,5.205680132E-1,1.872938991E0,7.918760180E-1,2.099037672E0
5.599883028E0,4.826340079E-1,2.120506048E0,6.935020089E-1,2.282635872E0
5.604805179E0,5.208230019E-1,2.333558083E0,5.851899981E-1,2.461543674E0
5.609727568E0,6.109669805E-1,2.512038946E0,4.644719958E-1,2.626662246E0
5.614649493E0,6.883500218E-1,2.708720922E0,3.506129980E-1,2.816722255E0
5.619571669E0,7.505390048E-1,2.918932915E0,2.458859980E-1,3.023894522E0
5.624493823E0,7.710800171E-1,3.087652922E0,1.144630015E-1,3.184535561E0
5.629416207E0,7.737450004E-1,3.265151978E0,-2.468100004E-2,3.355668028E0
5.634338138E0,7.822470069E-1,3.417860985E0,-1.357939988E-1,3.508863648E0
5.639260289E0,8.467370272E-1,3.557787895E0,-2.285799980E-1,3.664296265E0
5.644182674E0,9.359179735E-1,3.672960997E0,-3.414070010E-1,3.805672566E0
5.649104897E0,1.054659963E0,3.789925098E0,-4.073170125E-1,3.954964859E0
5.654026974E0,1.200543046E0,3.889624119E0,-4.717920125E-1,4.097934491E0
5.658949126E0,1.371253967E0,3.948297024E0,-4.918690026E-1,4.208482143E0
5.663871032E0,1.468623042E0,4.006744862E0,-4.793570042E-1,4.294256765E0
5.668793184E0,1.523727059E0,4.074616909E0,-4.939439893E-1,4.378153466E0
5.673715323E0,1.622709990E0,4.219015121E0,-4.995520115E-1,4.547837785E0
5.678637477E0,1.700937986E0,4.310766220E0,-4.669600129E-1,4.657676147E0
5.683559650E0,1.772758007E0,4.424183846E0,-4.436280131E-1,4.786739962E0
5.688482035E0,1.828593016E0,4.516284943E0,-4.387249947E-1,4.892142856E0
5.693404191E0,1.940274954E0,4.565620899E0,-4.063850045E-1,4.977420001E0
5.698326114E0,2.107898951E0,4.562782764E0,-3.725120127E-1,5.039939458E0
5.703248496E0,2.228571892E0,4.560585022E0,-3.535580039E-1,5.088268043E0
5.708170652E0,2.362149000E0,4.537565231E0,-3.708130121E-1,5.129010472E0
5.713092806E0,2.496674061E0,4.489017963E0,-4.099189937E-1,5.152930935E0
5.718014960E0,2.672902107E0,4.443772793E0,-4.709500074E-1,5.207044864E0
5.722937099E0,2.869364023E0,4.342076778E0,-5.612099767E-1,5.234676426E0
5.727859253E0,3.105329990E0,4.260650158E0,-6.332380176E-1,5.310104001E0
5.732781393E0,3.282588005E0,4.122885227E0,-7.423049808E-1,5.322084488E0
5.737703316E0,3.427445889E0,3.976680040E0,-7.690340281E-1,5.305919600E0
5.742625679E0,3.512271881E0,3.847461939E0,-8.167499900E-1,5.273148745E0
5.747547835E0,3.627115965E0,3.688901901E0,-8.469439745E-1,5.242259203E0
5.752469758E0,3.773967981E0,3.546253920E0,-8.552799821E-1,5.248833683E0
5.757392155E0,3.887984991E0,3.426584005E0,-8.302029967E-1,5.248537154E0
5.762314311E0,3.986258984E0,3.260651112E0,-8.267239928E-1,5.215896751E0
5.767236465E0,4.082781792E0,3.112900019E0,-8.257510066E-1,5.200107538E0
5.772158618E0,4.160720825E0,2.988066912E0,-7.942039967E-1,5.183715043E0
5.777080847E0,4.239227772E0,2.847810984E0,-7.039970160E-1,5.155258606E0
5.782003003E0,4.301479816E0,2.708884001E0,-6.433470249E-1,5.123931746E0
5.786925138E0,4.368855000E0,2.566420078E0,-5.905119777E-1,5.101187158E0
5.791846984E0,4.436604023E0,2.422847033E0,-5.309280157E-1,5.082866077E0
5.796769371E0,4.495046139E0,2.282912970E0,-4.906609952E-1,5.065360760E0
5.801691601E0,4.568258762E0,2.115591049E0,-4.980449975E-1,5.058928980E0
5.806613685E0,4.627367020E0,1.966274977E0,-5.102019906E-1,5.053619385E0
5.811535608E0,4.694149017E0,1.768054962E0,-5.437030196E-1,5.045459971E0
5.816457991E0,4.699518204E0,1.530653954E0,-5.345100164E-1,4.971325158E0
5.821380147E0,4.796223164E0,1.320850968E0,-5.470860004E-1,5.004768427E0
5.826302301E0,4.883768082E0,1.102758050E0,-5.646460056E-1,5.038461184E0
5.831224450E0,5.010159016E0,8.668770194E-1,-6.275299788E-1,5.123178994E0
5.836146604E0,5.125266075E0,6.467999816E-1,-7.093080282E-1,5.214385912E0
5.841068757E0,5.258065224E0,4.234839976E-1,-7.981680036E-1,5.335134558E0
5.845990986E0,5.370509148E0,2.114419937E-1,-8.868200183E-1,5.447341183E0
5.850913065E0,5.477068901E0,1.309499983E-2,-9.514889717E-1,5.559117420E0
5.855834974E0,5.553758144E0,-1.308729947E-1,-1.013587952E0,5.647009634E0
5.860757126E0,5.584010124E0,-2.586739957E-1,-1.056306005E0,5.688924650E0
5.865679511E0,5.546298027E0,-3.463680148E-1,-1.022333026E0,5.650359053E0
5.870601445E0,5.437836170E0,-3.750520051E-1,-9.166070223E-1,5.527286373E0
5.875523827E0,5.303702831E0,-3.737039864E-1,-7.463260293E-1,5.368977643E0
5.880445983E0,5.129246235E0,-3.832310140E-1,-4.876840115E-1,5.166610944E0
5.885368118E0,4.974069118E0,-4.588249922E-1,-2.525590062E-1,5.001566757E0
5.890290272E0,4.864054203E0,-6.103140116E-1,-2.099799924E-2,4.902239019E0
5.895212426E0,4.774919987E0,-8.187689781E-1,2.550910115E-1,4.851320948E0
5.900134650E0,4.713654995E0,-1.065168023E0,5.044370294E-1,4.858763531E0
5.905056729E0,4.694163799E0,-1.306745052E0,7.367950082E-1,4.928044571E0
5.909978957E0,4.687335014E0,-1.488726974E0,8.998330235E-1,4.999711693E0
5.914901099E0,4.721803188E0,-1.611284018E0,1.031666040E0,5.094702774E0
5.919823176E0,4.709090233E0,-1.621816993E0,1.103196979E0,5.101261094E0
5.924745323E0,4.673693180E0,-1.618317008E0,1.156739950E0,5.079409926E0
5.929667554E0,4.556427956E0,-1.590924025E0,1.148633003E0,4.960991105E0
5.934589648E0,4.393875122E0,-1.587187052E0,1.069197059E0,4.792544593E0
5.939511800E0,4.145970821E0,-1.618777990E0,1.020674944E0,4.566321668E0
5.944433953E0,3.870646000E0,-1.726176977E0,1.009734035E0,4.356736190E0
5.949355906E0,3.637056112E0,-1.849764943E0,9.599679708E-1,4.191818939E0
5.954278289E0,3.476263046E0,-1.989688993E0,9.310920238E-1,4.112201285E0
5.959200214E0,3.375063896E0,-2.141875029E0,8.607199788E-1,4.088951433E0
5.964122612E0,3.309843063E0,-2.315742970E0,7.897409797E-1,4.115995313E0
5.969044768E0,3.228147030E0,-2.520797014E0,7.423509955E-1,4.162503554E0
5.973966922E0,3.166089058E0,-2.749785900E0,7.235710025E-1,4.255466768E0
5.978889075E0,3.116695881E0,-2.976295948E0,6.450399756E-1,4.357546024E0
5.983811229E0,3.008307934E0,-3.200272083E0,6.004779935E-1,4.433083786E0
5.988733392E0,2.898401976E0,-3.409800053E0,5.185279846E-1,4.505146133E0
5.993655546E0,2.799060106E0,-3.571361065E0,4.687539935E-1,4.561697890E0
5.998577700E0,2.645551920E0,-3.725822926E0,4.587090015E-1,4.592506438E0
6.003499854E0,2.492896080E0,-3.818265915E0,4.958389997E-1,4.586888027E0
6.008422008E0,2.317131996E0,-3.879960060E0,6.161739826E-1,4.561015362E0
6.013344166E0,2.106416941E0,-3.939641953E0,7.529960275E-1,4.530427580E0
6.018266319E0,1.879906058E0,-3.956763029E0,9.137539864E-1,4.474926458E0
6.023188472E0,1.685564041E0,-3.964910984E0,1.053200006E0,4.435186073E0
6.028110703E0,1.504387975E0,-3.997641087E0,1.188281059E0,4.433545907E0
6.033032859E0,1.319679976E0,-4.019155979E0,1.307083964E0,4.427599633E0
6.037955013E0,1.150835991E0,-4.062932014E0,1.385643005E0,4.444304959E0
6.042877156E0,9.980069995E-1,-4.073950768E0,1.445178986E0,4.436398892E0
6.047799233E0,8.494480252E-1,-4.011468887E0,1.513986945E0,4.370995430E0
6.052721385E0,7.221410275E-1,-3.935291052E0,1.577054024E0,4.300593299E0
6.057643539E0,5.852209926E-1,-3.833339930E0,1.604954958E0,4.196767690E0
6.062565708E0,4.102349877E-1,-3.726979971E0,1.666352034E0,4.103096580E0
6.067487862E0,2.525419891E-1,-3.596828938E0,1.748798966E0,4.007399866E0
6.072410016E0,5.191599950E-2,-3.417109966E0,1.854925036E0,3.888455051E0
6.077332184E0,-1.741469949E-1,-3.256453037E0,1.964766979E0,3.807246097E0
6.082254338E0,-3.991709948E-1,-3.076415062E0,2.044475079E0,3.715312297E0
6.087176492E0,-6.086480021E-1,-2.934318066E0,2.091357946E0,3.654374497E0
6.092098722E0,-8.360430002E-1,-2.851653099E0,2.160284996E0,3.673924953E0
6.097020801E0,-1.047747016E0,-2.780420065E0,2.224601984E0,3.711787108E0
6.101942953E0,-1.265293002E0,-2.754121065E0,2.269694090E0,3.786510331E0
6.106865174E0,-1.400073051E0,-2.715277910E0,2.307303905E0,3.828392612E0
6.111787253E0,-1.490288019E0,-2.725955963E0,2.327553988E0,3.881919868E0
6.116709477E0,-1.607640982E0,-2.706921101E0,2.339582920E0,3.922445616E0
6.121631556E0,-1.747164011E0,-2.732033968E0,2.347676992E0,4.003520819E0
6.126553722E0,-1.889629960E0,-2.707715988E0,2.341895103E0,4.048073608E0
6.131475876E0,-2.089947939E0,-2.688662052E0,2.302800894E0,4.110921791E0
6.136398107E0,-2.278697968E0,-2.658047915E0,2.242176056E0,4.157527704E0
6.141320277E0,-2.470192909E0,-2.661187887E0,2.159971952E0,4.224837608E0
6.146242354E0,-2.666805029E0,-2.695574999E0,2.085016966E0,4.327270431E0
6.151164505E0,-2.837435007E0,-2.701349020E0,2.005346060E0,4.401106312E0
6.156086751E0,-2.993289948E0,-2.736572027E0,1.927381039E0,4.490368452E0
6.161008907E0,-3.163836956E0,-2.766884089E0,1.842569947E0,4.589180303E0
6.165931061E0,-3.325100899E0,-2.792196989E0,1.746428013E0,4.680028933E0
6.170853181E0,-3.500988007E0,-2.817203045E0,1.672832966E0,4.794989067E0
6.175775258E0,-3.662750006E0,-2.872991085E0,1.579118013E0,4.915631097E0
6.180697400E0,-3.843919992E0,-2.938039064E0,1.518388987E0,5.070828292E0
6.185619553E0,-4.008594990E0,-3.026741028E0,1.457684040E0,5.230185255E0
6.190541716E0,-4.154364109E0,-3.091150045E0,1.385493994E0,5.360367838E0
6.195463870E0,-4.300398827E0,-3.198328972E0,1.304723978E0,5.515890041E0
6.200386024E0,-4.425207138E0,-3.314855099E0,1.215787053E0,5.661171319E0
6.205308197E0,-4.504821777E0,-3.471728086E0,1.123903036E0,5.797367781E0
6.210230351E0,-4.599127769E0,-3.601892948E0,1.029502988E0,5.931735450E0
6.215152505E0,-4.705748081E0,-3.736392021E0,9.449020028E-1,6.082559505E0
6.220074735E0,-4.815108776E0,-3.863123894E0,8.297430277E-1,6.228761694E0
6.224996891E0,-4.896142006E0,-3.958137989E0,7.322070003E-1,6.338390172E0
6.229919045E0,-4.977588177E0,-4.069126129E0,6.334519982E-1,6.460296661E0
6.234841165E0,-5.045132160E0,-4.143350124E0,5.480459929E-1,6.551416883E0
6.239763242E0,-5.117966175E0,-4.250094891E0,4.498260021E-1,6.667775325E0
6.244685390E0,-5.179378033E0,-4.360496998E0,3.749409914E-1,6.780890179E0
6.249607544E0,-5.236601830E0,-4.493565083E0,3.091920018E-1,6.907222710E0
6.254529682E0,-5.296875954E0,-4.641972065E0,2.790760100E-1,7.048594395E0
6.259451836E0,-5.329140186E0,-4.803183079E0,2.488150001E-1,7.178593993E0
6.264373990E0,-5.340641975E0,-4.974606037E0,1.946409941E-1,7.301167513E0
6.269296168E0,-5.372136116E0,-5.151243210E0,1.884640008E-1,7.445177750E0
6.274218322E0,-5.347098827E0,-5.309027195E0,1.251779944E-1,7.536106764E0
6.279140476E0,-5.323060036E0,-5.490730762E0,1.151570007E-1,7.648290893E0
6.284062712E0,-5.312047005E0,-5.650544167E0,9.133700281E-2,7.755954822E0
6.288984867E0,-5.261478901E0,-5.838484764E0,6.104100123E-2,7.859694051E0
6.293907021E0,-5.197758198E0,-5.984698772E0,5.294299871E-2,7.926923277E0
6.298829170E0,-5.144900799E0,-6.119932175E0,5.484300107E-2,7.995410046E0
6.303751324E0,-5.074265003E0,-6.229452133E0,5.956200138E-2,8.034786048E0
6.308673478E0,-5.012279987E0,-6.346280098E0,5.992199853E-2,8.087138703E0
6.313595560E0,-4.963836193E0,-6.460516930E0,7.512900233E-2,8.147612725E0
6.318517712E0,-4.931446075E0,-6.583934784E0,1.268189996E-1,8.226994633E0
6.323439870E0,-4.908027172E0,-6.735418797E0,1.598750055E-1,8.335475817E0
6.328362024E0,-4.845724106E0,-6.860599041E0,2.012329996E-1,8.401747201E0
6.333284178E0,-4.790462971E0,-6.994648933E0,2.875210047E-1,8.482706968E0
6.338206341E0,-4.691945076E0,-7.178504944E0,3.710460067E-1,8.583877735E0
6.343128572E0,-4.602788925E0,-7.345153809E0,4.609979987E-1,8.680407221E0
6.348050728E0,-4.496616840E0,-7.492531776E0,5.382210016E-1,8.754843075E0
6.352972892E0,-4.394909859E0,-7.625426769E0,6.476899981E-1,8.825070448E0
6.357895045E0,-4.252124786E0,-7.779992104E0,7.415429950E-1,8.897119104E0
6.362817199E0,-4.123257160E0,-7.960938931E0,8.340479732E-1,9.004078758E0
6.367739252E0,-3.962728977E0,-8.099057198E0,9.794340134E-1,9.069577687E0
6.372661404E0,-3.811165094E0,-8.239880562E0,1.141373992E0,9.150046210E0
6.377583558E0,-3.692423105E0,-8.309207916E0,1.283545017E0,9.182832482E0
6.382505712E0,-3.630328894E0,-8.340214729E0,1.417700052E0,9.205886326E0
6.387427881E0,-3.550596952E0,-8.256637573E0,1.550778985E0,9.120510852E0
6.392350034E0,-3.491425037E0,-8.199530602E0,1.670964956E0,9.067219792E0
6.397272188E0,-3.481414080E0,-8.123109818E0,1.785565972E0,9.016285429E0
6.402194342E0,-3.446257114E0,-8.015748024E0,1.925523043E0,8.935129740E0
6.407116496E0,-3.414555073E0,-7.929946899E0,2.050561905E0,8.874009708E0
6.412038727E0,-3.350302935E0,-7.806107998E0,2.122834921E0,8.755928273E0
6.416960869E0,-3.270178080E0,-7.678090096E0,2.156934023E0,8.619715573E0
6.421883023E0,-3.145332098E0,-7.500469208E0,2.165011883E0,8.416497419E0
6.426805176E0,-3.071403027E0,-7.266106129E0,2.158893108E0,8.178669469E0
6.431727325E0,-2.971616030E0,-7.049145222E0,2.107662916E0,7.934934981E0
6.436649479E0,-2.832964897E0,-6.901647091E0,1.989977002E0,7.721297245E0
6.441571652E0,-2.709602118E0,-6.834677219E0,1.855916023E0,7.582821415E0
6.446493729E0,-2.567909956E0,-6.848322868E0,1.746382952E0,7.519543940E0
6.451415972E0,-2.426939011E0,-6.854092121E0,1.668707967E0,7.460107107E0
6.456338128E0,-2.300971985E0,-6.852254868E0,1.622961998E0,7.408230186E0
6.461260281E0,-2.185123920E0,-6.828652859E0,1.620982051E0,7.350703995E0
6.466182358E0,-2.045763969E0,-6.701996803E0,1.588415980E0,7.185052310E0
6.471104510E0,-1.940256000E0,-6.556280136E0,1.532060981E0,7.006897560E0
6.476026741E0,-1.863684058E0,-6.382009029E0,1.485139012E0,6.812414800E0
6.480948888E0,-1.787281990E0,-6.198764801E0,1.444998026E0,6.611133130E0
6.485871042E0,-1.727810025E0,-6.066926003E0,1.413818955E0,6.464657968E0
6.490793196E0,-1.721258998E0,-5.889022827E0,1.365090013E0,6.285442955E0
6.495715344E0,-1.710237980E0,-5.708790779E0,1.286767960E0,6.096800627E0
6.500637421E0,-1.692451954E0,-5.591489792E0,1.207532048E0,5.965507971E0
6.505559650E0,-1.672845006E0,-5.468367100E0,1.139230967E0,5.830891557E0
6.510481734E0,-1.653936028E0,-5.359080791E0,1.096024990E0,5.714588532E0
6.515403886E0,-1.585569978E0,-5.230512142E0,1.106511950E0,5.576437763E0
6.520326044E0,-1.465479016E0,-5.169243813E0,1.077208042E0,5.479880246E0
6.525248198E0,-1.277001977E0,-5.158730984E0,1.031893969E0,5.413690476E0
6.530170351E0,-1.051291943E0,-5.201361179E0,9.630320072E-1,5.393218289E0
6.535092505E0,-7.739710212E-1,-5.297014236E0,8.390039802E-1,5.418608552E0
6.540014736E0,-5.096769929E-1,-5.419222832E0,7.023990154E-1,5.488270321E0
6.544936892E0,-2.702319920E-1,-5.567597866E0,5.744429827E-1,5.603673444E0
6.549859037E0,6.703000050E-3,-5.639004230E0,4.262700081E-1,5.655096795E0
6.554781191E0,3.021470010E-1,-5.724124908E0,2.723509967E-1,5.738560259E0
6.559703345E0,5.852299929E-1,-5.757933140E0,1.441870034E-1,5.789393585E0
6.564625474E0,9.208679795E-1,-5.771202087E0,1.576899923E-2,5.844229635E0
6.569547551E0,1.244737983E0,-5.720436096E0,-1.245459989E-1,5.855618967E0
6.574469785E0,1.456624985E0,-5.631560802E0,-2.431659997E-1,5.821972443E0
6.579391864E0,1.621333003E0,-5.468655109E0,-3.712410033E-1,5.716006411E0
6.584314016E0,1.710240006E0,-5.243783951E0,-4.968799949E-1,5.537967202E0
6.589236266E0,1.727560043E0,-4.977366924E0,-5.819659829E-1,5.300691427E0
6.594158422E0,1.671324968E0,-4.668893814E0,-5.977060199E-1,4.994912320E0
6.599080498E0,1.639528990E0,-4.342832088E0,-5.296229720E-1,4.672124394E0
6.604002702E0,1.598351955E0,-3.983088017E0,-4.207879901E-1,4.312398596E0
6.608924858E0,1.571562052E0,-3.649939060E0,-2.543700039E-1,3.982030453E0
6.613847012E0,1.546898961E0,-3.252947092E0,-6.608899683E-2,3.602628059E0
6.618769161E0,1.576843023E0,-2.866672039E0,7.220599800E-2,3.272530551E0
6.623691315E0,1.572677016E0,-2.429081917E0,2.061199993E-1,2.901075216E0
6.628613454E0,1.534266949E0,-1.976289988E0,3.189229965E-1,2.522183392E0
6.633535607E0,1.459012032E0,-1.489423037E0,3.819139898E-1,2.119659262E0
6.638457660E0,1.361127973E0,-9.901919961E-1,4.358350039E-1,1.738706904E0
6.643379889E0,1.305119991E0,-5.122640133E-1,4.470700026E-1,1.471605993E0
6.648302045E0,1.242987990E0,-5.812999979E-2,4.181100130E-1,1.312712544E0
6.653224137E0,1.229740977E0,3.841400146E-1,3.802039921E-1,1.343272682E0
6.658146366E0,1.157613039E0,8.241389990E-1,3.407700062E-1,1.461299844E0
6.663068445E0,1.105466008E0,1.211465001E0,2.950550020E-1,1.666361305E0
6.667990663E0,1.078068018E0,1.553321958E0,2.623200119E-1,1.908887515E0
6.672912819E0,1.044093013E0,1.871111989E0,1.876080036E-1,2.150903777E0
6.677834973E0,1.013002992E0,2.176748991E0,1.238949969E-1,2.404113392E0
6.682757137E0,9.838349819E-1,2.462199926E0,-5.326999817E-3,2.651487908E0
6.687679214E0,9.450600147E-1,2.711260080E0,-1.448079944E-1,2.874898087E0
6.692601428E0,9.085159898E-1,2.938263893E0,-3.281289935E-1,3.092970198E0
6.697523584E0,8.714399934E-1,3.128618956E0,-5.196020007E-1,3.289019682E0
6.702445737E0,8.144760132E-1,3.322959900E0,-7.239249945E-1,3.497070355E0
6.707367886E0,7.923409939E-1,3.461256027E0,-8.645190001E-1,3.654516471E0
6.712289963E0,7.688919902E-1,3.596122980E0,-9.510229826E-1,3.798386512E0
6.717212207E0,7.463560104E-1,3.698827982E0,-1.043161988E0,3.914915410E0
6.722134363E0,7.411379814E-1,3.824306965E0,-1.057011008E0,4.036320297E0
6.727056769E0,8.009449840E-1,3.864849091E0,-1.071207047E0,4.089750102E0
6.731978925E0,8.897380233E-1,3.882786989E0,-1.092473984E0,4.130516670E0
6.736901079E0,9.307829738E-1,3.926109076E0,-1.122877002E0,4.188262430E0
6.741823223E0,9.599829912E-1,3.987778902E0,-1.126345992E0,4.253540080E0
6.746745377E0,1.015516043E0,4.000835896E0,-1.174517035E0,4.291555774E0
6.751667300E0,1.106938004E0,4.046819210E0,-1.205093026E0,4.365123900E0
6.756589452E0,1.172148943E0,4.034986019E0,-1.203657031E0,4.370793471E0
6.761511851E0,1.287685037E0,4.097126961E0,-1.196264029E0,4.458209249E0
6.766434007E0,1.338603973E0,4.154367924E0,-1.240131974E0,4.537461929E0
6.771356165E0,1.363165975E0,4.180483818E0,-1.268049955E0,4.576310426E0
6.776278319E0,1.394768953E0,4.173157215E0,-1.332365036E0,4.597370788E0
6.781200242E0,1.466910005E0,4.101397991E0,-1.337115049E0,4.556442373E0
6.786122389E0,1.601124048E0,3.977303982E0,-1.368260980E0,4.500520335E0
6.791044468E0,1.847848058E0,3.803505898E0,-1.372918963E0,4.445908910E0
6.795966927E0,2.058808088E0,3.608943939E0,-1.386968017E0,4.380279372E0
6.800889108E0,2.325367928E0,3.417829990E0,-1.413035989E0,4.368703303E0
6.805811031E0,2.532345057E0,3.236607075E0,-1.417701006E0,4.347214394E0
6.810733183E0,2.754668951E0,3.100163937E0,-1.368479967E0,4.367144935E0
6.815655328E0,2.949855089E0,2.960962057E0,-1.322955966E0,4.383965538E0
6.820577482E0,3.077637911E0,2.859901905E0,-1.238428950E0,4.380022863E0
6.825499570E0,3.212608099E0,2.735016108E0,-1.181480050E0,4.381444855E0
6.830421799E0,3.295063972E0,2.646203041E0,-1.063858986E0,4.357939084E0
6.835343955E0,3.332371950E0,2.550544977E0,-9.640629888E-1,4.305740348E0
6.840266142E0,3.374660969E0,2.445704937E0,-9.003170133E-1,4.263845684E0
6.845188296E0,3.419255018E0,2.355612993E0,-8.740779757E-1,4.243139140E0
6.850110450E0,3.542112112E0,2.265634060E0,-8.871409893E-1,4.297286940E0
6.855032604E0,3.702527046E0,2.144695997E0,-9.296050072E-1,4.378651952E0
6.859954987E0,3.914516926E0,2.035706997E0,-9.846869707E-1,4.520747081E0
6.864877143E0,4.099152088E0,1.948189974E0,-1.000344992E0,4.647492025E0
6.869799296E0,4.263473034E0,1.898738980E0,-1.029814959E0,4.779427882E0
6.874721450E0,4.387950897E0,1.920585036E0,-1.064069986E0,4.906628669E0
6.879643353E0,4.484592915E0,1.944223046E0,-1.118056059E0,5.014142620E0
6.884565505E0,4.553288937E0,1.950324059E0,-1.166219950E0,5.088838084E0
6.889487650E0,4.622747898E0,1.917137980E0,-1.133371949E0,5.131252103E0
6.894409804E0,4.566360950E0,1.861425996E0,-1.020660043E0,5.035703128E0
6.899331958E0,4.505797863E0,1.825945020E0,-8.433989882E-1,4.934329889E0
6.904254121E0,4.460013866E0,1.743494987E0,-6.188039780E-1,4.828500474E0
6.909176505E0,4.502814770E0,1.628285050E0,-3.967880011E-1,4.804590906E0
6.914098430E0,4.518920898E0,1.547274947E0,-2.076250017E-1,4.780984626E0
6.919020568E0,4.551531792E0,1.414445996E0,-4.797499999E-2,4.766487252E0
6.923942953E0,4.569363117E0,1.275354028E0,4.748599976E-2,4.744245157E0
6.928865109E0,4.629674911E0,1.132352948E0,1.081440002E-1,4.767369097E0
6.933787215E0,4.749988079E0,9.484909773E-1,9.713599831E-2,4.844735007E0
6.938709368E0,4.818161011E0,7.946069837E-1,8.350399882E-2,4.883958303E0
6.943631310E0,4.910916805E0,6.228669882E-1,3.173299879E-2,4.950361011E0
6.948553462E0,4.968830109E0,4.693410099E-1,-1.535599958E-2,4.990970791E0
6.953475616E0,4.989730835E0,3.412509859E-1,-4.857499897E-2,5.001622294E0
6.958397780E0,5.019346237E0,1.812569946E-1,-9.873600304E-2,5.023588314E0
6.963319934E0,5.043210030E0,4.668699950E-2,-1.278789937E-1,5.045047088E0
6.968242088E0,5.004474163E0,-9.810499847E-2,-1.317279935E-1,5.007168711E0
6.973164227E0,4.910664082E0,-2.386150062E-1,-1.106880009E-1,4.917703801E0
6.978086381E0,4.821803093E0,-4.274109900E-1,-7.901799679E-2,4.841354053E0
6.983008535E0,4.693744183E0,-6.070730090E-1,-2.001300082E-2,4.732882062E0
6.987930919E0,4.546966076E0,-8.000929952E-1,6.436499953E-2,4.617271072E0
6.992853075E0,4.428596020E0,-9.064400196E-1,1.358560026E-1,4.522449897E0
6.997775205E0,4.381330013E0,-1.048550963E0,1.706289947E-1,4.508284159E0
7.002697359E0,4.309576988E0,-1.183325052E0,2.138540000E-1,4.474197753E0
7.007619272E0,4.177310944E0,-1.236742973E0,2.506299913E-1,4.363745558E0
7.012541423E0,4.030258179E0,-1.299749970E0,2.495310009E-1,4.242003853E0
7.017463587E0,3.944829941E0,-1.367802978E0,1.767629981E-1,4.178972769E0
7.022385741E0,3.859057903E0,-1.440891981E0,1.365150064E-1,4.121545092E0
7.027307895E0,3.759052992E0,-1.593039036E0,1.113250032E-1,4.084194660E0
7.032230294E0,3.640131950E0,-1.733309031E0,1.123170033E-1,4.033303351E0
7.037152450E0,3.547776937E0,-1.883350968E0,1.582249999E-1,4.019796913E0
7.042074354E0,3.469504118E0,-2.038861990E0,2.322400063E-1,4.030924517E0
7.046996736E0,3.424169064E0,-2.163921118E0,3.376460075E-1,4.064663972E0
7.051918892E0,3.414597034E0,-2.330106974E0,4.772770107E-1,4.161329687E0
7.056841037E0,3.352524996E0,-2.539617062E0,5.967090130E-1,4.247957193E0
7.061763191E0,3.254889965E0,-2.739695072E0,7.278310061E-1,4.316245561E0
7.066685345E0,3.159996033E0,-2.978286982E0,8.715029955E-1,4.428914736E0
7.071607489E0,3.046279907E0,-3.162096977E0,9.758589864E-1,4.497886095E0
7.076529412E0,2.918549061E0,-3.358242035E0,1.094293952E0,4.581833415E0
7.081451818E0,2.807921886E0,-3.497400999E0,1.232318044E0,4.651327427E0
7.086373974E0,2.716878891E0,-3.632311106E0,1.352190018E0,4.733237024E0
7.091296128E0,2.535471916E0,-3.707897902E0,1.451872945E0,4.720705428E0
7.096218079E0,2.366669893E0,-3.755454063E0,1.574722052E0,4.710022415E0
7.101140231E0,2.150682926E0,-3.736809969E0,1.680143952E0,4.627317743E0
7.106062385E0,1.887578011E0,-3.750298023E0,1.760889053E0,4.552847051E0
7.110984535E0,1.615686059E0,-3.812907934E0,1.773800969E0,4.505005908E0
7.115906919E0,1.423550010E0,-3.824392080E0,1.766651034E0,4.446743223E0
7.120829075E0,1.254014015E0,-3.916420937E0,1.724925041E0,4.459402482E0
7.125751238E0,1.123993039E0,-4.002927780E0,1.741919041E0,4.507890095E0
7.130673392E0,1.047616005E0,-4.094079018E0,1.748343945E0,4.573367342E0
7.135595320E0,9.801269770E-1,-4.194171906E0,1.759614944E0,4.652738077E0
7.140517472E0,9.122980237E-1,-4.238440037E0,1.829970002E0,4.705895434E0
7.145439616E0,8.612930179E-1,-4.245785236E0,1.908225060E0,4.733903338E0
7.150361769E0,8.059229851E-1,-4.242267132E0,2.010226011E0,4.763124068E0
7.155283914E0,7.130650282E-1,-4.225100040E0,2.127810001E0,4.784088992E0
7.160206068E0,5.662879944E-1,-4.189126968E0,2.284318924E0,4.804953673E0
7.165128222E0,4.304530025E-1,-4.146037102E0,2.457710028E0,4.838930875E0
7.170050399E0,2.578740120E-1,-4.107500076E0,2.637933016E0,4.888429858E0
7.174972553E0,7.263600081E-2,-4.073259830E0,2.829482079E0,4.960109925E0
7.179894937E0,-1.179450005E-1,-4.019114017E0,3.029772043E0,5.034551335E0
7.184817079E0,-3.017329872E-1,-3.978200912E0,3.176134109E0,5.099505189E0
7.189739233E0,-5.433570147E-1,-3.883296013E0,3.339951038E0,5.150776418E0
7.194661387E0,-8.021190166E-1,-3.808427095E0,3.465699911E0,5.211390192E0
7.199583334E0,-1.006168008E0,-3.741363049E0,3.545682907E0,5.251860508E0
7.204505486E0,-1.256049037E0,-3.693830013E0,3.603492975E0,5.311045186E0
7.209427630E0,-1.475142002E0,-3.615318060E0,3.657953024E0,5.350438199E0
7.214349784E0,-1.684985042E0,-3.527092934E0,3.651191950E0,5.348902860E0
7.219271938E0,-1.890385032E0,-3.440924883E0,3.628426075E0,5.345932603E0
7.224194091E0,-2.045770884E0,-3.342097044E0,3.544115067E0,5.283516136E0
7.229116476E0,-2.234919071E0,-3.256690025E0,3.426902056E0,5.229201744E0
7.234038382E0,-2.440511942E0,-3.115884066E0,3.289616108E0,5.146494553E0
7.238960765E0,-2.715816021E0,-2.964133024E0,3.133577108E0,5.097160655E0
7.243882921E0,-2.989109993E0,-2.851790905E0,2.951466084E0,5.077267174E0
7.248805074E0,-3.281959057E0,-2.776468992E0,2.712372065E0,5.083010676E0
7.253727228E0,-3.539326906E0,-2.762250900E0,2.450232029E0,5.114733813E0
7.258649382E0,-3.737221956E0,-2.763648033E0,2.199233055E0,5.142101169E0
7.263571310E0,-3.894761086E0,-2.763978958E0,1.981701016E0,5.170675247E0
7.268493462E0,-4.052595139E0,-2.741740942E0,1.803285956E0,5.214643899E0
7.273415842E0,-4.193864822E0,-2.742294073E0,1.583536029E0,5.255118009E0
7.278337998E0,-4.325713158E0,-2.789547920E0,1.373587966E0,5.327299111E0
7.283260156E0,-4.464900970E0,-2.857219934E0,1.174257994E0,5.429357998E0
7.288182080E0,-4.628180981E0,-2.923685074E0,9.886190295E-1,5.562855489E0
7.293104231E0,-4.762963772E0,-2.984348059E0,8.052200079E-1,5.678075069E0
7.298026611E0,-4.909989834E0,-3.053581953E0,6.247659922E-1,5.815728283E0
7.302948536E0,-5.004673958E0,-3.112304926E0,4.622850120E-1,5.911591225E0
7.307870919E0,-5.104548931E0,-3.208417892E0,3.207249939E-1,6.037651007E0
7.312793065E0,-5.209727764E0,-3.315804005E0,1.840659976E-1,6.178163147E0
7.317715218E0,-5.274788857E0,-3.432034016E0,3.356400132E-2,6.293121762E0
7.322637372E0,-5.328555107E0,-3.530839920E0,-6.314799935E-2,6.392520453E0
7.327559300E0,-5.373488903E0,-3.683970928E0,-1.535850018E-1,6.516871423E0
7.332481452E0,-5.409685135E0,-3.793277979E0,-2.085649967E-1,6.610382019E0
7.337403914E0,-5.432415009E0,-3.880192995E0,-2.804529965E-1,6.681742616E0
7.342326007E0,-5.453736782E0,-4.014095783E0,-3.375500143E-1,6.780129044E0
7.347248161E0,-5.425808907E0,-4.185104847E0,-3.886820078E-1,6.863350390E0
7.352170314E0,-5.375035763E0,-4.383484840E0,-3.926019967E-1,6.946947900E0
7.357092468E0,-5.294292927E0,-4.608956814E0,-3.870669901E-1,7.030066953E0
7.362014622E0,-5.178850174E0,-4.825450897E0,-3.406549990E-1,7.086713718E0
7.366936776E0,-5.088585854E0,-5.051702976E0,-2.820529938E-1,7.175859728E0
7.371858940E0,-5.023536205E0,-5.206085205E0,-1.995390058E-1,7.237337562E0
7.376781094E0,-4.952586174E0,-5.328968048E0,-9.830900282E-2,7.275690684E0
7.381703248E0,-4.918850899E0,-5.427241802E0,3.086500056E-2,7.324684320E0
7.386625377E0,-4.907989025E0,-5.479201794E0,1.754180044E-1,7.358041862E0
7.391547530E0,-4.912840843E0,-5.530181885E0,3.181270063E-1,7.404061157E0
7.396469688E0,-4.907092094E0,-5.604034901E0,4.704119861E-1,7.463648399E0
7.401391842E0,-4.883584023E0,-5.695952892E0,6.174780130E-1,7.528250219E0
7.406313996E0,-4.830368996E0,-5.836987019E0,7.230539918E-1,7.610892797E0
7.411236150E0,-4.754653931E0,-6.048612118E0,8.491200209E-1,7.740377727E0
7.416158401E0,-4.606175900E0,-6.275664806E0,9.618909955E-1,7.843854886E0
7.421080479E0,-4.425652027E0,-6.489252090E0,1.013290048E0,7.919819776E0
7.426002631E0,-4.246619225E0,-6.710581779E0,1.087064028E0,8.015447015E0
7.430924852E0,-4.035563946E0,-6.891562939E0,1.173519969E0,8.071961671E0
7.435847008E0,-3.826018095E0,-7.058255196E0,1.260637999E0,8.126905256E0
7.440769085E0,-3.629973888E0,-7.220069885E0,1.331387997E0,8.190159557E0
7.445691218E0,-3.457036018E0,-7.384191036E0,1.406926990E0,8.273863598E0
7.450613449E0,-3.321604967E0,-7.533929825E0,1.539397955E0,8.376329997E0
7.455535292E0,-3.238142967E0,-7.612029076E0,1.777989984E0,8.461075872E0
7.460457444E0,-3.182812929E0,-7.700228214E0,2.068989992E0,8.585134378E0
7.465379818E0,-3.129430056E0,-7.769989967E0,2.411231995E0,8.716657404E0
7.470301743E0,-3.054248095E0,-7.902991772E0,2.836879969E0,8.934964931E0
7.475224218E0,-2.945524931E0,-8.013327599E0,3.263226032E0,9.139922344E0
7.480146297E0,-2.865891933E0,-8.073168755E0,3.697352886E0,9.330584584E0
7.485068451E0,-2.806011915E0,-8.142253876E0,4.067780972E0,9.524538996E0
7.489990589E0,-2.780277967E0,-8.153738976E0,4.383984089E0,9.666060281E0
7.494912743E0,-2.803092957E0,-8.138668060E0,4.681649208E0,9.798626803E0
7.499834897E0,-2.754642963E0,-8.121089935E0,4.887092113E0,9.870351003E0
7.504757070E0,-2.675523043E0,-8.048274994E0,4.981643200E0,9.836153867E0
7.509679224E0,-2.582397938E0,-7.946265221E0,5.015727997E0,9.745226391E0
7.514601378E0,-2.523017883E0,-7.785839081E0,4.984679222E0,9.582898120E0
7.519523537E0,-2.367816925E0,-7.650554180E0,4.841767788E0,9.358432110E0
7.524445690E0,-2.228934050E0,-7.549102783E0,4.557553768E0,9.095515168E0
7.529367838E0,-2.084491014E0,-7.519247055E0,4.257715225E0,8.888887332E0
7.534289991E0,-1.989992023E0,-7.585804939E0,3.934453964E0,8.774077320E0
7.539212145E0,-1.933814049E0,-7.615925789E0,3.628108978E0,8.654775396E0
7.544134304E0,-1.875136018E0,-7.583447933E0,3.355844021E0,8.502147184E0
7.549056458E0,-1.777940035E0,-7.450266838E0,3.160898924E0,8.286062318E0
7.553978607E0,-1.704352021E0,-7.259338856E0,2.978761911E0,8.029684861E0
7.558900761E0,-1.649410963E0,-6.996174812E0,2.785862923E0,7.708959123E0
7.563822991E0,-1.624891996E0,-6.763761997E0,2.575686932E0,7.417743156E0
7.568745138E0,-1.597064972E0,-6.610198975E0,2.318133116E0,7.184642521E0
7.573667292E0,-1.587298036E0,-6.459239006E0,2.033371925E0,6.955277491E0
7.578589369E0,-1.621783018E0,-6.280120850E0,1.712623954E0,6.708440866E0
7.583511511E0,-1.626201987E0,-6.090040207E0,1.385143995E0,6.453816430E0
7.588433665E0,-1.679487944E0,-5.870243073E0,1.089689970E0,6.202246183E0
7.593355813E0,-1.750453949E0,-5.668894768E0,8.073070049E-1,5.987670792E0
7.598277967E0,-1.829514027E0,-5.474555969E0,5.764719844E-1,5.800879639E0
7.603200121E0,-1.897500038E0,-5.354738235E0,3.807820082E-1,5.693744190E0
7.608122051E0,-1.987939000E0,-5.252531052E0,1.681739986E-1,5.618653434E0
7.613044434E0,-2.045804024E0,-5.235626221E0,-3.910800070E-2,5.621265468E0
7.617966590E0,-2.063968897E0,-5.309313774E0,-2.501299977E-1,5.701872094E0
7.622888814E0,-2.028172016E0,-5.478963852E0,-4.525530040E-1,5.859806382E0
7.627810969E0,-1.905006051E0,-5.716166973E0,-6.898360252E-1,6.064609358E0
7.632733123E0,-1.742431045E0,-5.994658947E0,-9.242460132E-1,6.310802843E0
7.637655287E0,-1.562018037E0,-6.235276222E0,-1.154077053E0,6.530732253E0
7.642577364E0,-1.356516004E0,-6.454394817E0,-1.384435058E0,6.739140046E0
7.647499516E0,-1.120991945E0,-6.656319141E0,-1.557589054E0,6.927430340E0
7.652421785E0,-8.863829970E-1,-6.809320927E0,-1.788269043E0,7.095803864E0
7.657343941E0,-6.236870289E-1,-6.900743008E0,-1.968415976E0,7.203048037E0
7.662266094E0,-3.949010074E-1,-6.927547932E0,-2.179347038E0,7.272992552E0
7.667188267E0,-2.237060070E-1,-6.886871815E0,-2.370621920E0,7.286898933E0
7.672110421E0,-8.595400304E-2,-6.833480835E0,-2.513752937E0,7.281675785E0
7.677032575E0,-2.700199932E-2,-6.755379200E0,-2.589853048E0,7.234861164E0
7.681954744E0,-2.277299948E-2,-6.597514153E0,-2.539412022E0,7.069393540E0
7.686876898E0,-6.369999796E-2,-6.379452229E0,-2.410571098E0,6.819994241E0
7.691799052E0,-4.204199836E-2,-6.135046959E0,-2.201374054E0,6.518175852E0
7.696721214E0,-5.688999780E-3,-5.905333996E0,-1.936020970E0,6.214594047E0
7.701643367E0,3.579900041E-2,-5.635534763E0,-1.607282043E0,5.860365961E0
7.706565441E0,5.844600126E-2,-5.357112885E0,-1.239253998E0,5.498893058E0
7.711487593E0,1.213970035E-1,-5.019218922E0,-9.017149806E-1,5.101018106E0
7.716409804E0,1.535169929E-1,-4.670701027E0,-6.160650253E-1,4.713655870E0
7.721331960E0,2.170770019E-1,-4.222993851E0,-3.257150054E-1,4.241095348E0
7.726254124E0,2.210630029E-1,-3.750437021E0,-4.118800163E-2,3.757172228E0
7.731176200E0,2.731289864E-1,-3.317861080E0,1.718509942E-1,3.333516815E0
7.736098352E0,3.086270094E-1,-2.903773069E0,3.750779927E-1,2.944118233E0
7.741020511E0,3.634290099E-1,-2.462807894E0,5.558800101E-1,2.550785360E0
7.745942665E0,3.320670128E-1,-2.045500994E0,7.424610257E-1,2.201270358E0
7.750864896E0,2.885510027E-1,-1.590060949E0,8.797309995E-1,1.839967971E0
7.755787052E0,2.207899988E-1,-1.127910018E0,9.509760141E-1,1.491738788E0
7.760709206E0,1.428280026E-1,-6.811400056E-1,9.801340103E-1,1.202087444E0
7.765631359E0,5.442300066E-2,-2.310349941E-1,9.913979769E-1,1.019416000E0
7.770553455E0,-4.004399851E-2,1.978700012E-1,9.634529948E-1,9.843768244E-1
7.775475607E0,-1.577280015E-1,6.313580275E-1,8.391960263E-1,1.061951530E0
7.780397779E0,-2.845470011E-1,1.049937010E0,7.245119810E-1,1.307001274E0
7.785319933E0,-3.706189990E-1,1.398095012E0,5.552139878E-1,1.549287151E0
7.790242111E0,-4.377619922E-1,1.706725955E0,3.677330017E-1,1.799937946E0
7.795164342E0,-4.479230046E-1,2.004391909E0,1.767880023E-1,2.061425705E0
7.800086421E0,-5.263069868E-1,2.247301102E0,-4.346999899E-2,2.308517041E0
7.805008572E0,-5.936629772E-1,2.464662075E0,-2.612110078E-1,2.548573339E0
7.809930726E0,-6.455339789E-1,2.653889894E0,-4.425989985E-1,2.766900714E0
7.814852957E0,-6.701170206E-1,2.759938002E0,-6.065019965E-1,2.904162404E0
7.819775113E0,-6.843580008E-1,2.876200914E0,-7.359780073E-1,3.046726309E0
7.824697267E0,-6.883350015E-1,2.923804998E0,-8.430200219E-1,3.119795426E0
7.829619421E0,-6.774169803E-1,2.972244024E0,-9.372839928E-1,3.189299232E0
7.834541574E0,-6.659770012E-1,2.983412981E0,-9.877619743E-1,3.212468225E0
7.839463651E0,-6.348400116E-1,3.007800102E0,-1.051892042E0,3.249055272E0
7.844385798E0,-6.175670028E-1,3.043138981E0,-1.079362035E0,3.287416351E0
7.849307952E0,-6.093580127E-1,3.065649033E0,-1.108366966E0,3.316323041E0
7.854230183E0,-5.455579758E-1,3.046760082E0,-1.129400015E0,3.294833061E0
7.859152325E0,-5.195209980E-1,3.024935961E0,-1.149539948E0,3.277435236E0
7.864074479E0,-4.523189962E-1,2.990657091E0,-1.168982983E0,3.242706204E0
7.868996570E0,-3.893310130E-1,2.898674011E0,-1.207229972E0,3.164062873E0
7.873918721E0,-2.825720012E-1,2.789895058E0,-1.209506035E0,3.053893616E0
7.878840952E0,-1.750369966E-1,2.686070919E0,-1.243211985E0,2.964994262E0
7.883763108E0,-2.826499939E-2,2.568269968E0,-1.219964981E0,2.843435263E0
7.888685262E0,1.102000028E-1,2.458410978E0,-1.147209048E0,2.715145885E0
7.893607416E0,2.248159945E-1,2.354476929E0,-1.004089952E0,2.569494205E0
7.898529493E0,3.857139945E-1,2.292594910E0,-8.616489768E-1,2.479355897E0
7.903451645E0,5.223270059E-1,2.251406908E0,-7.037010193E-1,2.415958131E0
7.908373884E0,5.845419765E-1,2.207114935E0,-5.708220005E-1,2.353483251E0
7.913295963E0,6.010910273E-1,2.212403059E0,-4.007340074E-1,2.327364489E0
7.918218192E0,6.461189985E-1,2.200172901E0,-2.556479871E-1,2.307289849E0
7.923140262E0,6.884779930E-1,2.187160015E0,-1.328759938E-1,2.296807982E0
7.928062414E0,7.615900040E-1,2.111043930E0,-5.347099900E-2,2.244857447E0
7.932984645E0,8.797100186E-1,2.017232895E0,5.000900105E-2,2.201276713E0
7.937906800E0,1.011612058E0,1.874547005E0,1.300790012E-1,2.134058569E0
7.942828954E0,1.182551026E0,1.733803034E0,1.849139929E-1,2.106820608E0
7.947751108E0,1.329205990E0,1.530277967E0,1.924510002E-1,2.036068911E0
7.952673262E0,1.528228998E0,1.273597002E0,2.217720002E-1,2.001678299E0
7.957595416E0,1.734053969E0,1.023571014E0,2.629210055E-1,2.030706341E0
7.962517493E0,1.956269026E0,7.850059867E-1,2.541860044E-1,2.123165897E0
7.967439645E0,2.218727112E0,5.315060019E-1,2.435470074E-1,2.294463722E0
7.972361799E0,2.464236975E0,2.752529979E-1,2.503980100E-1,2.492173197E0
7.977284024E0,2.707231998E0,5.460799858E-2,2.487509996E-1,2.719184471E0
7.982206180E0,2.959729910E0,-1.662950069E-1,1.961909980E-1,2.970883047E0
7.987128563E0,3.209544897E0,-2.870309949E-1,1.478639990E-1,3.225744720E0
7.992050450E0,3.421212912E0,-4.245940149E-1,1.228170022E-1,3.449646631E0
7.996972602E0,3.592380047E0,-5.095170140E-1,6.867399812E-2,3.628983068E0
8.001894756E0,3.737323999E0,-5.610039830E-1,1.903999969E-2,3.779243134E0
8.006816909E0,3.855979919E0,-5.958510041E-1,-4.247200117E-2,3.901976862E0
8.011739063E0,4.007862091E0,-6.406170130E-1,-1.274479926E-1,4.060737826E0
8.016661217E0,4.245032787E0,-6.837120056E-1,-2.497870028E-1,4.306989554E0
8.021583390E0,4.459514141E0,-7.061309814E-1,-3.400709927E-1,4.527862146E0
8.026505469E0,4.674857140E0,-6.937419772E-1,-4.819279909E-1,4.750560156E0
8.031427679E0,4.878954887E0,-7.136650085E-1,-6.917939782E-1,4.979166340E0
8.036349835E0,5.073778152E0,-7.015129924E-1,-9.386950135E-1,5.207349954E0
8.041271993E0,5.187160969E0,-6.144019961E-1,-1.134794950E0,5.345267843E0
8.046194070E0,5.347631931E0,-4.767580032E-1,-1.273674011E0,5.517853836E0
8.051116222E0,5.418708801E0,-3.172950149E-1,-1.322618961E0,5.586806075E0
8.056038458E0,5.459736824E0,-1.171699986E-1,-1.282382965E0,5.609541966E0
8.060960614E0,5.463353157E0,3.253699839E-2,-1.222851038E0,5.598629389E0
8.065882700E0,5.445908070E0,1.675069928E-1,-1.094619036E0,5.557352259E0
8.070804929E0,5.354560852E0,3.044109941E-1,-8.723279834E-1,5.433686049E0
8.075727084E0,5.246406078E0,4.214909971E-1,-5.332260132E-1,5.290251542E0
8.080649224E0,5.075868130E0,4.947609901E-1,-1.283939928E-1,5.101540035E0
8.085571378E0,4.938583851E0,5.001909733E-1,3.391900063E-1,4.975424738E0
8.090493445E0,4.741549969E0,3.948870003E-1,7.930340171E-1,4.823601849E0
8.095415597E0,4.591941833E0,2.742030025E-1,1.242707968E0,4.765022579E0
8.100337828E0,4.480024815E0,1.403529942E-1,1.633304954E0,4.770535229E0
8.105259980E0,4.400773048E0,2.419400029E-2,1.915060043E0,4.799462860E0
8.110182133E0,4.332571983E0,-7.397000212E-3,2.071444035E0,4.802303103E0
8.115104287E0,4.264279842E0,-4.739499837E-2,2.109811068E0,4.757902017E0
8.120026455E0,4.223235130E0,-1.216019988E-1,2.056473970E0,4.698892125E0
8.124948532E0,4.133938789E0,-2.341669947E-1,1.878358006E0,4.546703520E0
8.129870761E0,4.031014919E0,-3.963899910E-1,1.685472012E0,4.387142829E0
8.134792931E0,3.879570961E0,-6.052410007E-1,1.404319048E0,4.170071882E0
8.139715313E0,3.732356071E0,-7.529659867E-1,1.059671998E0,3.952258135E0
8.144637238E0,3.599261999E0,-8.681049943E-1,6.331589818E-1,3.756219311E0
8.149559371E0,3.459120989E0,-9.743419886E-1,2.588210106E-1,3.603033256E0
8.154481525E0,3.340872049E0,-1.112683058E0,-6.362699717E-2,3.521865703E0
