Time (s),Linear Acceleration x (m/s^2),Linear Acceleration y (m/s^2),Linear Acceleration z (m/s^2),Absolute acceleration (m/s^2)
0.2045659583,-0.5366714197619048,-0.3268655641576191,0.9219183937142856,2.0025575788238092
0.2145119583,-0.5394790038647619,-0.1875264151690476,0.8880752663952381,2.1128577330952383
0.2244569583,-0.4504005576409525,0.0006631299242857277,0.8294458998190477,2.2943325357904762
0.2344029583,-0.291735414212381,0.19053026902095238,0.7315948689761904,2.5293120867428573
0.2443489583,-0.18625137935523806,0.34681228223047617,0.6021568380666666,2.696086393742857
0.2542949583,-0.18358692849809521,0.4553515290733333,0.46969962523333336,2.7466824287904763
0.2642409583,-0.20305562278380948,0.5065986710304762,0.35881203218095237,2.7408362501238095
0.2741869583,-0.23770297892666664,0.5044246205638094,0.29554973217619046,2.6976549381714285
0.2841329583,-0.2319183667647619,0.4731056805733333,0.27686185346190473,2.709495389647619
0.2940789583,-0.1782436905790476,0.42126167712571433,0.28011189602380954,2.752967684552381
0.3040249583,-0.08411356674571427,0.3488810828571428,0.2852257559761905,2.8057987141809524
0.3139709583,0.03931325847809527,0.2763947932047619,0.2649222811190476,2.866202453619048
0.3239169583,0.16300916002571433,0.23045244019523808,0.21527669849047615,2.9125832700000003
0.3338629583,0.28109537164476195,0.2215829379919048,0.16030891752380955,2.934828947619048
0.3438079583,0.4086229918828572,0.24189349215857142,0.11620003902857141,2.929552666523809
0.3537539583,0.5431188504066666,0.30607047071095234,0.08971527063809523,2.9026807178571428
0.3636999583,0.700293200944762,0.40761046116809524,0.05792160634761903,2.8016813793809527
0.3736459583,0.8580283064304762,0.506532068482381,0.028101808919047615,2.6707781773333337
0.3835919583,1.0579841653257145,0.5927230900390477,-0.008047850080952393,2.523851330714286
0.3935379583,1.1947474487590477,0.6100246113390476,-0.03388034765238096,2.417260356142857
0.4034839583,1.2583849833733334,0.5402588083771429,0.00710717923809524,2.4126973093809525
0.4134299583,1.263189929344762,0.4037350658533334,0.0978013817142857,2.4233650743809525
0.4233759583,1.2392320439,0.23061822267238097,0.18133654219999998,2.370521675380952
0.4333219583,1.108051420947619,0.05357274667238097,0.2682114095190476,2.2114656459999997
0.4432679583,0.8557488233619048,-0.10261061565619047,0.3959687279,1.976187807142857
0.4532139583,0.5728534299333334,-0.2213467383133333,0.5785406859,1.828359409761905
0.4631589583,0.3691641552190476,-0.27761416042285714,0.7485263799,1.7830974775714286
0.4731049583,0.2320776808380952,-0.23646947569904758,0.8734414989952383,1.7840958575238097
0.4830509583,0.1479717937952381,-0.11614669715619044,0.9351648188095237,1.849165048
0.4929969583,0.0902030451333333,0.06369644879619052,0.9300435001761906,1.8989734933333333
0.5029429583,0.04255162929999998,0.3106712548914286,0.8891198402042856,1.977819751666667
0.5128889583,-0.010579213182857173,0.5987378145104761,0.8514470372276192,2.091137424904762
0.5228349583,-0.0769573900114286,0.898043140272381,0.8384846998609523,2.2243180505714286
0.5327809583,-0.1312528456019048,1.1775502950342858,0.8363027904561905,2.3794277048095234
0.5427269583,-0.16228640668285718,1.4287012939233334,0.8468230938990476,2.559127602047619
0.5526729583,-0.1706950647780953,1.69653910469,0.8598107448428571,2.7791875613333334
0.5626189583,-0.1473349092066667,1.9723425495138096,0.841371431947619,3.028767875142857
0.5725649583,-0.07737281036380958,2.2807436368661906,0.7746421193999999,3.322310832047619
0.5825099583,0.02143379824571425,2.6289186545519048,0.6408112145904761,3.6338126281428567
0.5924559583,0.08589501063619044,2.9814913352809524,0.4531273701142857,3.9407886178571427
0.6024019583,0.133694070407619,3.3300251770666667,0.21280987659047618,4.226032647761905
0.6123479583,0.12858214212190472,3.6285361724857146,-0.07695763807619052,4.461172837285714
0.6222939583,0.0945316822933333,3.8211624734380956,-0.39338922874285714,4.638589333190477
0.6322399583,0.0019031930552380484,3.8433403220000004,-0.7243797807904763,4.82562686452381
0.6421859583,-0.06802647465904765,3.686070045809524,-1.015369088504762,5.054445055238095
0.6521319583,-0.13210614926380956,3.3464755386619047,-1.253492936457143,5.347654321761905
0.6620779583,-0.20524082554952386,2.807210923795238,-1.4279251247428573,5.763032951666666
0.6720239583,-0.27035654674000004,2.019290400857143,-1.4771385528904761,6.40868545247619
0.6819699583,-0.26937685274000006,0.9064142924761904,-1.4709313993666666,7.346578302095238
0.6919159583,-0.18740483395904764,-0.5699704323333331,-1.5679836797,8.615415508714285
0.7018619583,-0.03174649413523813,-2.3480422767619045,-1.8714749157333335,10.177483540333334
0.7118069583,0.1522030834790476,-4.159703479095238,-1.9930441814566666,11.658028122142857
0.7217529583,0.3433844774380952,-5.7553685356190485,-1.9966662600752383,12.84146571795238
0.7316989583,0.4275750203142857,-7.076593940809524,-2.0191601924085716,13.690177808047618
0.7416449583,0.3933660556819048,-8.157078340000002,-2.033299957141905,14.273410977857143
0.7515909583,0.2861429057152381,-9.066241464428572,-2.051240780984762,14.676014268904762
0.7615369583,0.14408872047714283,-9.854814759619048,-2.0513912597757145,14.905049050047618
0.7714829583,-0.04523450228476194,-10.522131364476191,-1.9997680374376188,14.971414170333333
0.7814289583,-0.2585655014752381,-11.061464113142858,-1.8647292057900002,14.876457869190476
0.7913749583,-0.47018911376095246,-11.468822225238096,-1.603556733599524,14.722096394285716
0.8013209583,-0.6443240685704762,-11.73253248647619,-1.225710771885238,14.628528628857143
0.8112669583,-0.7134239502419047,-11.842379254238095,-0.7829789263138096,14.612824212095239
0.8212129583,-0.6450494922419049,-11.777985900857143,-0.33744584678999995,14.678313298095238
0.8311589583,-0.4935935759085715,-11.506783156666668,0.06746304763857144,14.840970761809526
0.8411039583,-0.31216532638476197,-11.005230103666667,0.41588189421000005,15.071499081047618
0.8510499583,-0.16421996695619054,-10.304146580238095,0.6909263147242857,15.339409236333333
0.8609959583,-0.01859088109904766,-9.420254063857143,0.8803800000099999,15.559593512761905
0.8709419583,0.19180352113904758,-8.319230595761905,0.9566665621766666,15.61815182609524
0.8808879583,0.4096836889485714,-6.962214578619048,0.9040614774766667,15.453635231333331
0.8908339583,0.5298278977580951,-5.3061563605238105,0.7687520763814286,15.027904049428571
0.9007799583,0.560707945067619,-3.3094816814761905,0.7168867723814285,14.270910340857142
0.9107259583,0.5068400392580953,-1.0353860781428577,0.8748324159052381,13.215274233714286
0.9206719583,0.4204333598771428,1.2263965694761902,0.865422477857619,12.203127491333335
0.9306179583,0.3067973596390476,3.2139106109047617,0.7433948808957144,11.430633165142856
0.9405639583,0.27597106149619044,4.873792797095238,0.6571061551576192,10.935842675142856
0.9505099583,0.3408486513380952,6.261345870428571,0.5956086631576191,10.668561920857144
0.9604559583,0.4633828468619048,7.456158176142857,0.5477694803480953,10.556564971809525
0.9704009583,0.6023327627190477,8.490935419476191,0.4851972910333334,10.574774986571429
0.9803469583,0.7597185388142857,9.37591788452381,0.38918571069047625,10.720222966857143
0.9902929583,0.9127595517666668,10.11046585842857,0.24328288809523815,10.995597066666667
1.000238958,1.0619173174333334,10.698606541333334,0.01350297514761906,11.310788910666666
1.010184958,1.1970650012904762,11.148600795761904,-0.28804938685238096,11.565140116714286
1.020130958,1.2882564850904763,11.49499040795238,-0.6207182290428571,11.78024481552381
1.030076958,1.3102011446190476,11.749610921809523,-0.9235817317095237,11.96280443747619
1.040022958,1.2965929892380952,11.905735533333333,-1.1657777894714285,12.087565043333333
1.049968958,1.2875490729523809,11.953966542380952,-1.3421980589,12.130581765714286
1.059914958,1.2932275755714286,11.91830894047619,-1.483392842652381,12.10365755047619
1.069860958,1.3079559147619046,11.844937632857143,-1.6230856089857144,12.049590622857144
1.079806958,1.3259652763333334,11.748168886666667,-1.7619447015809524,11.977613637619047
1.089752958,1.3366997897142856,11.620255141142858,-1.9095635636380954,11.880768514285714
1.099697958,1.3292363061904762,11.454773675904761,-2.0101862512571427,11.742307474285715
1.109643958,1.3165003743809525,11.265847186857142,-2.048910550685714,11.567151997
1.119589958,1.304405353142857,11.065658236285714,-2.0375551256380953,11.369454720857144
1.129535958,1.2853429428571428,10.85443843,-2.0049882018761904,11.155607914
1.139481958,1.2662880365238094,10.651849002809524,-1.9886422548285714,10.95426366995238
1.149427958,1.2345421731857142,10.437462984666666,-2.009131956542857,10.75090883204762
1.159373958,1.110827800709524,9.982990514619049,-2.0152163881619045,10.339736108714286
1.169319958,0.6161493887571429,8.077995109380952,-1.9652975178095236,11.226412127285714
1.179265958,-0.03100698081428573,4.094098805095237,-1.9782460446190477,14.201624889666666
1.189211958,-0.8460740968619047,-1.3262777906190484,-2.104470362238095,18.63601370395238
1.199157958,-1.5900655257666667,-6.281865673,-1.3622228792619049,22.64355564442857
1.209103958,-1.6470205943333334,-9.773113899666667,-0.5095943388857143,25.172254668238093
1.219049958,-1.6461870528571427,-11.72811625252381,-0.30192080621904765,26.055488131095238
1.228994958,-1.6274224050476191,-13.012208803,-0.2797365535428572,26.223721928714287
1.238940958,-1.532635934761905,-13.978249910142857,-0.20471651219047624,26.06988103966667
1.248886958,-1.490865966904762,-14.701177183190477,-0.022223268904761936,25.712939490761908
1.258832958,-1.5774862506523808,-15.259907123214285,0.2747057762380952,25.38427030680952
1.268778958,-1.7256655961761904,-15.713267786738097,0.6466236706190476,25.14511294204762
1.278724958,-1.887428058414286,-16.055754716404763,1.0532543055238095,24.94678278719048
1.288670958,-2.0421605247,-16.26144751154762,1.4391245404761903,24.805283092142854
1.298616958,-2.199728570319048,-16.3466692875,1.8069482631904763,24.74095900361905
1.308562958,-2.334803156985714,-16.331944717690476,2.1099869525714285,24.74667671409524
1.318508958,-2.428289192604762,-16.244708213880955,2.3076272130952384,24.81280824185714
1.328454958,-2.494180052726667,-16.127249624261907,2.452900756942857,24.913038080857145
1.338400958,-2.541222176507619,-15.981722673214287,2.583823716080952,25.04385630961905
1.348346958,-2.5599932075314284,-15.786294469833335,2.7317591631142855,25.221377314619048
1.358291958,-2.5263419732885715,-15.486590670261906,2.9050915736571428,25.49909223538095
1.368237958,-2.350840440621905,-14.827045432595238,3.045722212504762,26.113019184428573
1.378183958,-1.747826863574286,-12.624329464023813,3.131308026342857,25.53340231585714
1.388129958,-0.9460357423838095,-8.33384788354762,3.3105237799619043,22.88969845538095
1.398075958,0.0365459403780952,-2.6673091330714294,3.6267242455333326,18.738389458714288
1.408021958,0.9343328749495238,2.47506298597619,3.0377371922952383,14.949825236333336
1.417967958,1.1160832295161904,6.102667780261904,2.2895026126761904,12.579168382047621
1.427913958,1.235238694992381,8.194464184071428,2.1611064164190474,11.851138371571428
1.437859958,1.352503358897143,9.614330084071428,2.221726342261905,11.839440471571429
1.447805958,1.4203957975161905,10.667064405023808,2.2162220484057142,12.109393569666667
1.457751958,1.5539582107066667,11.460775175214284,2.0787762034961905,12.571211527142856
1.467697958,1.8127583213114284,12.09747445047619,1.7972417634009525,13.013914858714285
1.477642958,2.118024124692381,12.622279624952379,1.4329507056390474,13.358518547285716
1.487588958,2.415684468549524,13.011834803190476,1.0635987992104763,13.626662996904761
1.497534958,2.6794611792161906,13.241333952142858,0.7251649922580953,13.805477742428572
1.507480958,2.929234518406667,13.340508409809523,0.4242315232104761,13.886400573333333
1.517426958,3.155306684073333,13.33914191552381,0.1912760848771428,13.89316247904762
1.527372958,3.3320716468828575,13.265514834000001,0.03232900821047613,13.847326645285715
1.537318958,3.4664996010999998,13.15990668495238,-0.09680433401809531,13.769704721333333
1.547264958,3.5751633518809522,13.025671904619045,-0.21838241929904767,13.661270070095238
1.557210958,3.654456336571428,12.847130515714284,-0.343421151332381,13.507151267333334
1.567156958,3.6898303484761903,12.59747534595238,-0.49317135135142864,13.28171056704762
1.577102958,3.6754556857619045,12.24148037338095,-0.6751056913419048,12.95288334647619
1.587048958,3.6026327078571425,11.804539498904761,-0.8904197737704762,12.53826028752381
1.596994958,3.491692190571429,11.377842946333333,-1.1315969263419048,12.113714159571428
1.606939958,3.3891966536666667,11.021041113714286,-1.3797088836752383,11.74471548857143
1.616885958,3.3077487542380957,10.716359078095238,-1.590546727627619,11.432997210380952
1.626831958,3.2499837975714287,10.451206086142857,-1.7529703707704762,11.169591130238095
1.636777958,3.192944362047619,10.176265217,-1.882240141084762,10.897775714190477
1.646723958,3.1123755984285717,9.875168917190475,-1.9957103483657146,10.595218162142856
1.656669958,2.997384673047619,9.587730237238095,-2.1023704706238098,10.300641110238095
1.666615958,2.861705713952381,9.277925483999999,-2.2347240102380956,9.99930122247619
1.676561958,2.582258841238095,8.638061556404761,-2.303434362904762,9.478697060666665
1.686507958,1.5754298547142855,5.9955792268809525,-1.9235644849523812,11.05945636447619
1.696453958,0.04175908104761916,1.3144623202142849,-1.3838644197619048,14.815202828761905
1.706399958,-1.543035486095238,-4.628871813119049,-0.5441058516190477,19.902994218761904
1.716345958,-1.935259194238095,-9.443723841690476,0.4958101476666665,23.809222878285716
1.726291958,-1.9310429062857142,-11.770115549595241,0.7647531379047617,25.19378302161905
1.736237958,-2.113331323028571,-13.035057466642858,0.7668526920952379,25.554826969666664
1.746182958,-2.3664761110761905,-13.890411366214286,0.7448948937619045,25.558355784142858
1.756128958,-2.590391078790476,-14.560584558690477,0.8120212635857141,25.375864077571425
1.766074958,-2.743182366947619,-15.097988338738096,0.9455366484619047,25.05920606933333
1.776020958,-2.8876950488285713,-15.539077534333334,1.111881552795238,24.685406503285716
1.785966958,-3.036977123533333,-15.916915170733335,1.354918676842857,24.357570619714288
1.795912958,-3.1743222675809526,-16.22489289182857,1.6568110614142855,24.09264027609524
1.805858958,-3.2910465373857143,-16.467238039638097,1.9426937416523808,23.87417352561905
1.815804958,-3.402676462302381,-16.640857409257144,2.1871382417952376,23.706154848428575
1.825750958,-3.5008727851642854,-16.73319716787619,2.386086413128571,23.60037823504762
1.835696958,-3.5783837960785716,-16.738163458733332,2.5314212935571425,23.57323752257143
1.845642958,-3.6309047331261906,-16.666154441114287,2.634914838795238,23.62395321052381
1.855588958,-3.658938602983333,-16.545435221304764,2.695544952033333,23.72707880352381
1.865534958,-3.6697543021738093,-16.395792025161906,2.7529985200809524,23.858348249714286
1.875479958,-3.659180601078571,-16.196620156209526,2.868859594652381,24.02006472938095
1.885425958,-3.4950251170785713,-15.636120542423813,2.9751585712761903,24.429293059761903
1.895371958,-2.585955102554762,-13.021899477185714,2.6851969290614286,22.786568718809523
1.905317958,-1.1160401965547617,-8.319092407661905,2.261534124128095,19.02534896690476
1.915263958,0.4451473929214285,-2.303562925280953,1.5582579503090472,13.990919065476191
1.925209958,0.8505645496357143,2.613105332814285,0.6565129934138094,10.176562621190476
1.935155958,0.8844872269690476,5.060765676147619,0.5142869000185714,8.909804888809523
1.945101958,1.1160422640928571,6.469689765671428,0.6330992870757142,8.69034801452381
1.955047958,1.419517851902381,7.481642486195237,0.764270011537619,8.842147034952381
1.964993958,1.695350845997619,8.313935774719047,0.7986165527995238,9.186638456095238
1.974939958,1.9057611401071428,9.019349940814285,0.7686532723376189,9.671488365666667
1.984885958,2.1259212974166664,9.64822374807619,0.723139269628095,10.232005811999999
1.994830833,2.3773743955023807,10.250600702761904,0.6200665011638095,10.779739016619049
2.004776833,2.6362962256452382,10.778866482142856,0.4613822568304761,11.260846704428571
2.014722833,2.8870893819261902,11.195560397761904,0.29798710577333326,11.664118298095238
2.024668833,3.1241267684619047,11.509541455238097,0.15383528061619042,11.992808755333334
2.034614833,3.3418470984666664,11.720417306142858,0.04299075509238087,12.24017125404762
2.044560833,3.543151078142857,11.821517919904762,-0.031206405493333412,12.391256743333335
2.054506833,3.718993955952381,11.822767330666666,-0.07847231753142865,12.445308901428572
2.064452833,3.863269032047619,11.763176908047617,-0.07788116403142865,12.433003296666666
2.074398833,3.9842403573333334,11.680624218809523,-0.05549317417428579,12.391184130000003
2.084344833,4.087822780238095,11.583479970285714,-0.034782169269523884,12.33102301809524
2.094290833,4.178397167,11.466573079238094,-0.029560515198095317,12.249570290190476
2.104236833,4.258349975142857,11.321793263380952,-0.04296806931190484,12.139203275238096
2.114182833,4.325131094761905,11.157162010904761,-0.07460636910238103,12.006999975571429
2.124127833,4.377551591904762,10.973910550857141,-0.11984700054523818,11.853729255809522
2.134073833,4.41397955052381,10.788259198619048,-0.16661798754523818,11.694321589857143
2.144019833,4.440970618142858,10.608252302666665,-0.2088618008880953,11.537957104952381
2.153965833,4.467597306809524,10.426878077095237,-0.24526344702619057,11.380803017523808
2.163911833,4.502660553095238,10.24387668290476,-0.28322648943095247,11.225380257619047
2.173857833,4.540831761619048,10.052520954095238,-0.31976342551666675,11.063651021
2.183803833,4.509088258095238,9.721021443857143,-0.26221838331190483,10.753118381666667
2.193749833,3.822348080142857,8.257925797190476,-0.057615564650000096,11.143170659761905
2.203695833,1.6937674969047616,4.202444704333333,0.4533129973857141,14.446170216904761
2.213641833,-1.1817491940476192,-2.7537701309047624,0.41193845443333316,20.66209694452381
2.223587833,-2.809746220619048,-8.494550531857143,0.42681490917047604,25.382620315
2.233533833,-3.7294559400000002,-10.902448861857144,0.7237090380895237,26.778664819285712
2.243479833,-4.446899861333334,-12.15499573995238,0.7788229715990473,27.069275381666664
2.253424833,-4.985759152571428,-13.082722186714287,0.8126948616466666,27.033092899761908
2.263370833,-5.358682371285714,-13.803201202904761,0.8783380712895237,26.784667339428573
2.273316833,-5.680452295809524,-14.340145224761903,0.9159509272561902,26.40288225109524
2.283262833,-5.99754870795238,-14.795296612038095,0.9618174892133333,26.016864536142855
2.293208833,-6.303845354571429,-15.190720751885713,1.0511925702609521,25.659186361809525
2.303154833,-6.586355820238095,-15.49668123926667,1.1711319942323808,25.359055244238096
2.313100833,-6.842714098809523,-15.695997228266666,1.2647566645609523,25.13070534866667
2.323046833,-7.050047177386191,-15.799261144980951,1.3030838849561903,24.978594829190474
2.332992833,-7.1876122950528565,-15.81648528812381,1.3219114494942854,24.916340181952382
2.342938833,-7.276958028671905,-15.768839529790476,1.344998009318095,24.927590234238096
2.352884833,-7.335303203148095,-15.683215882885712,1.367419072465714,24.983931792
2.362830833,-7.374629501243332,-15.594904939219047,1.3810895250547617,25.048566740857144
2.372776833,-7.409648169481428,-15.514464876933332,1.4143243418166667,25.10692175457143
2.382721833,-7.429885939719523,-15.419558134790478,1.4665890907214283,25.18439352738095
2.392667833,-7.352965149576668,-15.16216629121905,1.4427871919261903,25.44286946242857
2.402613833,-6.591288155671905,-13.73513148169524,1.2969557123071427,25.049586636238093
2.412559833,-4.364893525243334,-9.66655084407619,0.8605621372119046,21.798309053857142
2.422505833,-1.3496467153861906,-2.5300428502666676,0.9827541592595236,15.80376293909524
2.432451833,0.40723632313761876,3.4152865192571418,1.0643964403414283,11.325516964333335
2.442397833,1.4893157868519045,5.942543561161903,0.8789152976747617,10.116715507666665
2.452343833,2.391544168994762,7.322791958304761,0.9405979932604761,10.034232271952382
2.462289833,3.1155688810899997,8.397416667447617,1.0286216992747617,10.29520848957143
2.472235833,3.6660752411852378,9.27560728535238,1.0449206806699998,10.76967443895238
2.482181833,4.135990834042381,9.951834712685713,1.018281624965238,11.345379429666666
2.492127833,4.5718183569471424,10.524859145866666,0.9449372981985713,11.89355106747619
2.502072833,4.982238586232857,11.008996963285714,0.8021115589128569,12.383609232285712
2.512018833,5.368125193423333,11.379999761238095,0.6009964303414284,12.799732047285715
2.521964833,5.72656420461381,11.624137637523809,0.40148430900809506,13.13101717447619
2.531910833,6.02377366552381,11.745300633095237,0.2250192927176189,13.365614232190476
2.541856833,6.249047560952381,11.75838533738095,0.034170848108095064,13.503248283476191
2.551802833,6.424036292761905,11.686376431095237,-0.1625884580585716,13.552491474761904
2.561748833,6.560792726619047,11.560567404809522,-0.35103127113476207,13.539348387142857
2.571694833,6.669556715380953,11.422141562904761,-0.5251175931190478,13.504326218095239
2.581640833,6.763275915714285,11.28684835290476,-0.7091849869380954,13.464302814666667
2.591586833,6.834195123714285,11.143667499523808,-0.9034428246523811,13.403530896285712
2.601532833,6.871787861619047,10.97680639742857,-1.105067545,13.302965070714286
2.611478833,6.870197836619047,10.76336272790476,-1.3178128759523813,13.13812518438095
2.621424833,6.827399392238094,10.477448834761905,-1.5239460501428572,12.886150183761904
2.631369833,6.731269384904762,10.035803931047619,-1.7154823953333338,12.468286430666668
2.641315833,6.631061724285714,9.610235111523808,-1.9169397739523812,12.060313317190476
2.651261833,6.487292446285714,9.297433827285712,-2.137949197571429,11.72907684552381
2.661207833,6.3192505964761905,8.997882918571426,-2.35943922052381,11.39537103390476
2.671153833,6.147834986761904,8.700472202238094,-2.572545422190476,11.062356380809524
2.681099833,5.982251028,8.41446283238095,-2.7402891266666667,10.747764957714285
2.691045833,5.840422106761904,8.150030328666665,-2.830644844952381,10.462828933809524
2.700991833,5.5330634109,7.7124886943809505,-2.8269228694761908,9.942404073380953
2.710937833,4.234750292709523,6.094264300095237,-2.587421076428572,10.817701603380954
2.720883833,1.9304355830428572,2.529804868666665,-1.8088944321904765,13.960559284333334
2.730829833,-1.612636487957143,-3.2622267094285733,-1.123404931714286,19.655699620047617
2.740775833,-4.41179482162381,-7.612525946761908,-0.7868192068571431,23.763227277190474
2.750721833,-6.059939000290476,-9.303783400714288,-0.05581523009523826,25.167746292904763
2.760666833,-7.414619361195238,-10.254171845761906,0.42195936866666645,25.882293793857137
2.770612833,-8.357063249957143,-10.938993065190479,0.7221029623809522,26.11861237671428
2.780558833,-9.013104418290476,-11.462372409857144,0.9864133359047619,26.051379073857145
2.790504833,-9.496029745814285,-11.872550522666668,1.2511892939999998,25.812970608571423
2.800450833,-9.90522870062381,-12.200594300790478,1.515257349142857,25.52059456852381
2.810396833,-10.272363315052381,-12.4685571306,1.752778871190476,25.213037768428574
2.820342833,-10.558485146414286,-12.689816021457144,1.9610653382380951,24.89808107280952
2.830288833,-10.7644906007,-12.846326493742858,2.1492030310476187,24.650183451238096
2.840234833,-10.901801183509525,-12.929696484314288,2.318294734533333,24.494055058666667
2.850180833,-10.975631942938096,-12.957560304600003,2.4522420545952377,24.41491347728571
2.860126833,-11.006536036938096,-12.93578605317143,2.552866412890476,24.400595635761903
2.870072833,-11.020456196938095,-12.871930142409527,2.6407616471809523,24.43212078166667
2.880017833,-11.024873462080953,-12.77999122436191,2.7295242324190476,24.492795284761904
2.889963833,-11.016239045795238,-12.68021673102857,2.820084711142857,24.565725950714285
2.899909833,-10.977838515080952,-12.5677240146,2.9067478744619044,24.66718799461905
2.909855833,-10.708861193361905,-12.244782739600002,2.9513730377523806,25.06821970123809
2.919801833,-9.409270931885715,-10.699304891885717,2.790023437621333,24.12787746742857
2.929747833,-7.0825927663619055,-7.171375216076193,2.113624519546857,20.95861394933333
2.939693833,-3.4974866491238097,-1.3893300140761926,1.5494086941223333,15.26687276742857
2.949639833,-0.6420185428380953,2.9772058552095224,1.353312404793762,11.184925988857142
2.959585833,1.0582425650190475,4.702978894114284,0.7784077366556668,9.807910283619048
2.969531833,2.458807837019047,5.70937756730476,0.4396336495842381,9.133535784571428
2.979477833,3.451739982685714,6.477652893685713,0.2615079143937618,8.96333984552381
2.989423833,4.193063710161905,7.157320599780951,0.11687892163185708,9.175835099333334
2.99936975,4.798682500209524,7.760138629257142,-0.02898382665385723,9.61170573852381
3.00931475,5.357011878019048,8.239784476476189,-0.17698239573957153,10.087903211238094
3.01926075,5.892547918161905,8.638932707904761,-0.29656092815385726,10.578234739761905
3.02920675,6.357901638666665,8.977152311857141,-0.3923343945348096,11.07518729695238
3.03915275,6.753826522904761,9.236912222047618,-0.49262176524909534,11.50637222152381
3.04909875,7.081093373095238,9.39066514742857,-0.5976852322110001,11.826425658142856
3.05904475,7.337038838238094,9.454736625523807,-0.6782131697014764,12.042457454904762
3.06899075,7.542062879190476,9.439804061904761,-0.7308519211395715,12.169681706666667
3.07893675,7.725705545857143,9.356654288571425,-0.7823905328586191,12.233305521904763
3.08888275,7.893949236,9.224749484476188,-0.8447441129062382,12.252400201904761
3.09882875,8.050017380333333,9.071119935333332,-0.9095608394871907,12.251705201428571
3.10877475,8.189283105,8.909876670999997,-0.9862389771395715,12.240228878095238
3.11871975,8.299565852333334,8.737272016047617,-1.080717354906238,12.20665884952381
3.12866575,8.390947113095237,8.550656736285713,-1.1829378220609048,12.154258205238095
3.13861175,8.46867715790476,8.347996919523808,-1.285378367272143,12.084553883809525
3.14855775,8.527933036238096,8.134037859714285,-1.3847801701809523,11.99703759142857
3.15850375,8.56580252842857,7.907815406714284,-1.4665627530904763,11.885988217095237
3.16844975,8.56807083042857,7.670027606619046,-1.5236657562380953,11.738761013000001
3.17839575,8.540189524190476,7.409569427523808,-1.5444453545476193,11.549625095666666
3.18834175,8.44615204042857,7.074514977095236,-1.502078295452381,11.25703853342857
3.19828775,8.254863805142858,6.594714735961904,-1.4438938497709526,10.806870910095238
3.20823375,7.967660795761904,6.013197361342855,-1.3755235753328574,10.255524269380953
3.21817975,6.913495076142858,4.947066790390474,-1.4259108146280954,10.465562951285714
3.22812575,2.6354355155238096,1.3115216441999984,-2.2691705839757144,14.87580186604762
3.23807175,-2.930658679666667,-3.428268786038097,-2.6994760660233332,20.921960459857143
3.24801675,-5.867928970904762,-4.3294619606095255,-1.926624374547143,22.90799530652381
3.25796275,-8.899809438904763,-4.512655143466668,-1.3531132581185716,24.928933990809522
3.26790875,-11.897756119666667,-5.035522870704764,-1.4151472599757144,26.89662074842857
3.27785475,-13.694129498523811,-5.4583810883238115,-1.825164379642381,27.77372139795238
3.28780075,-14.622712840857142,-5.706660463942859,-2.188191631356667,27.901108381761908
3.29774675,-15.170048395142858,-5.860526254514288,-2.3622061892138095,27.706521490571433
3.30769275,-15.473144248047618,-5.941765784228573,-2.389622774070953,27.45885850366667
3.31763875,-15.640254218714286,-6.010858976419049,-2.40234857769,27.292619523666666
3.32758475,-15.742878171619045,-6.058445691752383,-2.407528911404286,27.185301074142856
3.33753075,-15.712052903666667,-6.096343751752383,-2.37416740669,27.187648683190478
3.34747675,-15.631368511142858,-6.123819024514288,-2.3423101051661903,27.240298955095238
3.35742275,-15.527970108619048,-6.1477874297047626,-2.3179909505471428,27.317299440333333
3.36736875,-15.414364917571428,-6.164748281085715,-2.2904207161661905,27.407108438952378
3.37731375,-15.231046771238098,-6.165137399371431,-2.2062824501550002,27.56487681971429
3.38725975,-14.903403193190476,-6.129904026942858,-1.9712608982026194,27.895163285619045
3.39720575,-14.47076567461905,-6.018889027276193,-1.7707799628216667,28.362368549285716
3.40715175,-14.072725379238095,-5.820541546000002,-1.7088108650745237,28.804310492142857
3.41709775,-13.697003599428573,-5.536309312000002,-1.7702875228697619,29.22919612619048
3.42704375,-12.62044490942857,-4.7180102480000015,-1.7784097509173813,28.885077704285717
3.43698975,-8.357923266333334,-1.3077386630476213,-1.0234760721554763,24.33265219095238
3.44693575,-2.8172195748571434,3.2144944700952363,-0.679108148774524,18.142180042380954
3.45688175,0.09387573904761878,3.895760526761902,-1.525944492822143,16.013161493809523
3.46682775,3.1079799197142854,3.8784261775238074,-2.1580988942507147,13.870850432380951
3.47677375,6.1106806095238095,4.232468347047617,-2.1514259403935716,11.821626133333334
3.48671975,7.931000870285715,4.52177344438095,-1.7920477408697622,10.900257625714286
3.49666475,8.911749952190476,4.658318668476189,-1.4707942229173812,10.766585453333333
3.50661075,9.56027121152381,4.711876894571427,-1.3417267384411906,11.008576312142859
3.51655675,9.98184618795238,4.679677461333331,-1.3383133010126191,11.314718915714286
3.52650275,10.273961665714285,4.622193470333332,-1.3227588232983336,11.54002176047619
3.53644875,10.51535950895238,4.529774829999998,-1.3009274362030954,11.716842526190478
3.54639475,10.62499772590476,4.391190995095236,-1.2989925020602382,11.77976339
3.55634075,10.670763715428572,4.200312433833331,-1.2726287432126193,11.776467317619048
3.56628675,10.683703548285715,3.9749209353857125,-1.2264711569983333,11.743000589047618
3.57623275,10.703638822571428,3.7273333375952364,-1.185933246217381,11.722029419999998
3.58617875,10.691075829238095,3.456655325357141,-1.202689747852381,11.677843978095238
3.59612475,10.56869026447619,3.153695844833331,-1.3820181717428572,11.509374568095238
3.60607075,10.406288472095238,2.814155368785712,-1.5675640340490475,11.301627315714287
3.61601575,10.339480524952382,2.4454066583095218,-1.6258188655585717,11.208182463333333
3.62596175,10.349460775428572,2.038044021595236,-1.5713652201728572,11.187057527142857
3.63590775,10.388833169238094,1.5910312624047596,-1.4539931415204763,11.189807437142857
3.64585375,10.436273356142857,1.1113201632619027,-1.3146692509585716,11.203926492380953
3.65579975,10.471003645285714,0.6165547809285694,-1.17833000203,11.21656132
3.66574575,10.482648263857143,0.11950700754761698,-1.0385798494538097,11.221785419523808
3.67569175,10.473981910619049,-0.3839543817380973,-0.8965505914585715,11.223507136666667
3.68563775,10.440439051761905,-0.9008911389285734,-0.7482095721633334,11.212374992857141
3.69558375,10.384969189857141,-1.4326854761666687,-0.597685841234762,11.187976744761906
3.70552975,10.296487201333333,-1.9622490171190496,-0.44190518499190495,11.142063730476192
3.71547575,10.156058047666667,-2.470449825309526,-0.26903815711571444,11.048604346666666
3.72542175,9.971372516285715,-2.8970546045952403,-0.10818604366809541,10.903813277714285
3.73536775,9.587480088333333,-3.1793421382142877,0.0044658631604760305,10.539119121809524
3.74531375,5.653843386904762,-3.426018917309526,-1.0287929416490478,13.539044842285714
3.75525875,0.3996070164285714,-3.0277796979761926,-2.4481149674585714,17.939518532761905
3.76520475,-1.6508430016666669,-0.9043192220476213,-2.4250101977395238,20.03169413609524
3.77515075,-3.447337975,3.359415653209522,-2.2201341749061907,23.94575399752381
3.78509675,-5.046391465000001,8.121673985142856,-1.1828130586395238,28.361016486095238
3.79504275,-6.059893753571428,10.959481732095236,-0.08328971125380964,30.842560816095244
3.80498875,-6.698449867809524,12.31991601038095,0.39900305887476184,31.668980986571427
3.81493475,-7.275608602714285,12.998451779380948,0.5155008360857142,31.712194413714283
3.82488075,-7.818018490276191,13.27773548695238,0.497543255447619,31.324405368904763
3.83482675,-8.335572504819048,13.370597749999998,0.4321724964666666,30.895249396619047
3.84477275,-8.782196312933333,13.337983957999999,0.3191934866238095,30.631103257761907
3.85471875,-9.140228552790475,13.21533063242857,0.20790878410952374,30.49348964809524
3.86466475,-9.427527637504761,13.006699277095235,0.1291078704666666,30.467083676666665
3.87461075,-9.666895397028572,12.669003639333331,0.13147806021428562,30.588944617142857
3.88455575,-9.956233169171428,12.180639565809523,0.20990765474285708,30.865848857142858
3.89450175,-10.274391275600001,11.717451598142857,0.2399508732571428,31.122451900476193
3.90444775,-10.529686098742857,11.198486817809522,0.3252321237571428,31.46052378285714
3.91439375,-10.66829303712381,10.609706532999999,0.4916770989904761,31.91414903714286
3.92433975,-10.757109124361905,9.967141470428569,0.6682207168285713,32.43821544285714
3.93428575,-10.719056335933333,9.228806199285712,0.8735487294285713,33.0968540127619
3.94423175,-10.479852507314286,8.33083581485714,1.202908325980952,34.04908811390476
3.95417775,-6.822678788790476,7.466860530047618,2.7426782328380948,31.585228413904762
3.96412375,-1.8886251438857147,6.066360886238094,4.614502745838094,27.65136975342857
3.97406975,-0.21779825117142887,3.0548153914761893,4.81391655217619,25.910917187714283
3.98401575,1.1754388167333332,-1.988011946142858,4.682495257128571,22.27318472342857
3.9939625,2.367043729780952,-7.416935889476191,3.638259564719047,18.050099096761905
4.0039085,2.9756544147809523,-10.827248015190477,2.4657100939571426,15.697044454380952
4.0138545,3.195815073257142,-12.670871434714286,1.8699109786714285,14.936337617714283
4.0238005,3.3360865608285715,-13.749721481380954,1.5816254547666664,14.913222474857141
4.0337465,3.331596925952381,-14.119186656714286,1.3104699877714285,15.140701128238092
4.0436925,3.2240424755428565,-14.326116444476192,1.0641384867714283,15.47791964047619
4.0536375,3.0638980979428565,-14.587701103476192,0.9154660121523809,15.790535303142855
4.0635835,2.794015599371429,-14.68338847657143,0.8331741437238094,15.920379618047619
4.0735295,2.537632762514286,-14.640369787047618,0.760907702438095,15.877219741380951
4.0834755,2.383679476028571,-14.440766365619051,0.6403760877809521,15.660816326714285
4.0934215,2.3485783829333333,-14.063674082047621,0.7267028622095235,15.319190141190477
4.1033675,2.3596335674095235,-13.601046361190479,1.0087874139238093,15.015873279761903
4.1133135,2.45567326307619,-13.19208800547619,0.8877871101047616,14.652325811666666
4.1232595,2.4925715048857144,-12.764146051380955,0.7230087305523808,14.25154557547619
4.1332055,2.4253878880285713,-12.236942321333334,0.5650087705523807,13.717033702428571
4.1431515,2.2485750059333336,-11.624296542476193,0.06768556550476171,13.124659167190476
4.1530975,2.0691645817904765,-10.928783187809525,-0.8640227797333334,12.675539155761905
4.1630435,1.9449327864095238,-10.189663805142859,-2.0263071918285713,12.362865586714287
4.1729895,1.743956289085714,-9.391436784952383,-2.899540930066667,11.841640385285714
4.1829355,1.492759473085714,-8.545475407000001,-3.2111774210666666,11.114028283952381
4.1928815,1.168107998895238,-7.715541163514287,-3.192074038495238,10.527192742809524
4.2028265,0.7682450427523809,-6.960101338590478,-3.050345396990477,10.111783210857144
4.2127725,0.33558487303809514,-6.231945318209525,-2.861928151561905,9.790445433285715
4.2227185,-0.06464147362857153,-5.529434823638097,-2.6541730710857143,9.524726464952382
4.2326645,-0.3844314892000001,-4.897690646209525,-2.4618692858428575,9.236549166714285
4.2426105,-0.44241574780952386,-4.6611012468928585,-2.30134394822381,9.023618506095238
4.2525565,-0.40803153028571437,-3.106428763892858,-2.3137071339380952,9.90731222804762
4.2625025,-0.3626413354285715,0.9039235180119027,-2.371591951557143,12.87198624995238
4.2724485,0.3534537029999999,5.27357979563095,-2.4628635491761903,16.334928526619045
4.2823945,1.4804218653809524,8.83125308825,-2.601862919271429,19.217167168523808
4.2923405,2.433808216057143,11.502672647297619,-2.6167719827,21.291443444142857
4.3022865,2.955295910057143,13.33248193658333,-2.9013943861285716,22.425842376333332
4.3122325,3.011617377152381,14.316015267630952,-3.354682627747619,22.690285903476187
4.3221785,2.793975566919048,14.96919355563095,-3.4262305228333334,22.47045862566667
4.3321245,2.481829644233333,15.402291640026188,-3.5081652899714286,21.983592243666667
4.3420695,2.211528210090476,15.583494681264286,-3.5847776464571433,21.748898688380955
4.3520155,1.9503312039476193,15.585462102264284,-3.3298354764904765,21.62910853742857
4.3619615,1.6895654682809522,15.458257986216662,-2.718892655561905,21.387186048857142
4.3719075,1.5010855427809524,15.177491925930948,-1.928150405466667,21.124617661714286
4.3818535,1.4386133338714284,14.735832960978572,-1.3757211189904766,21.190915068380953
4.3917995,1.5036984546380954,14.170626255407141,-1.1777122054190479,21.609796260666666
4.4017455,1.678143148304762,13.547830350492855,-1.1754634219904763,21.98328643847619
4.4116915,1.9429656996190479,12.905497227473807,-1.222240889657143,22.278745954238094
4.4216375,2.2455727044000002,12.188549428521426,-1.2087853048476194,22.581231127523807
4.4315835,2.505867018757143,11.413599171092855,-1.1524501942761907,22.912399758714283
4.4415295,2.674823261709524,10.683311924140474,-1.0971455023285717,23.273248170761907
4.4514755,2.7545447742190476,9.999679471490476,-0.9080044551380954,23.799928595190472
4.4614215,2.876458141604762,7.8819787881571415,-0.5583370122523812,23.328540183285714
4.4713675,2.9659238092666667,3.5155748433952363,-0.15495696287142882,20.650837714714285
4.4813135,2.553332230361905,-1.2056689985095257,0.256561832938095,17.50105651995238
4.4912595,1.5794773323619047,-5.135397755176192,0.5836228333190474,14.962991005190478
4.5012055,0.5018713018857142,-8.132295361842859,0.6369469898428568,13.20705909757143
4.5111505,-0.25619897663809543,-10.211829096604763,0.5885881705571426,12.300597981380953
4.5210965,-0.563881608257143,-11.489257770414289,0.5124788346999998,12.211010344714285
4.5310425,-0.7218116661666668,-12.27862960031905,0.3734015017476188,12.558001835380951
4.5409885,-0.8092044575761906,-12.759183742619049,0.19720269210476166,13.06672709642857
4.5509345,-0.8483889781000002,-13.01541329914286,0.006348431590475971,13.367892121904761
4.5608805,-0.8714733295761908,-13.111377468333336,-0.19450916537619067,13.504817186190476
4.5708265,-0.9001010816238096,-13.109051891476192,-0.39703886940000016,13.53763234047619
4.5807725,-0.9401730911714288,-13.036655509714286,-0.601517003161905,13.492913959047618
4.5907185,-0.9925465217000002,-12.922611499190477,-0.7915332741142859,13.399200998619046
4.6006645,-1.0510454988476192,-12.797528419000002,-0.9611052289238098,13.289891926857143
4.6106105,-1.120705839609524,-12.652251561666668,-1.1192192304952382,13.160296760857142
4.6205565,-1.205809512257143,-12.471743308857144,-1.2122359365666668,12.989155795095238
4.6305025,-1.2717451592761908,-12.29014418857143,-1.2686187994238098,12.807234530857142
4.6404485,-1.3159094540619047,-12.09151535852381,-1.279676357566667,12.617452052761905
4.6503945,-1.3304007756809526,-11.895252869238098,-1.194473654661905,12.449938237714285
4.6603405,-1.4067305620000004,-11.568926696809525,-1.0840316890428574,12.172191107666666
4.6702855,-1.5615693919095242,-10.994957771238097,-0.9333241536428574,11.678028072952381
4.6802315,-1.7094285153333333,-10.383641927523811,-0.8838878874047621,11.135478174476189
4.6901775,-1.9690022195714287,-9.828555610285715,-0.9575908155476192,10.59284614247619
4.7001235,-2.0979184386666665,-9.240765927476192,-1.0388127061619048,10.015381509904762
4.7100695,-1.9820570717238097,-8.564202508042857,-1.1624575106857147,9.479847775666666
4.7200155,-1.6960140524857146,-7.65488323499524,-1.2246051852095239,9.186987989666667
4.7299615,-1.207664597152381,-5.335084290709525,-1.0691770568952381,10.32483745347619
4.7399075,-0.02219920467619051,0.09825385500476054,-0.7353897537523811,14.721350981571428
4.7498535,2.073288184514286,6.190484881671427,-0.5203377414380955,20.071010773476193
4.7597995,3.3229082107523813,9.772402874528572,-0.2530397713428574,22.83870688919048
4.7697455,3.7725952567047623,11.876857999099999,-0.0983251460476193,24.006261119666668
4.7796915,3.979695435085714,13.082327969338095,-0.026222099619047867,24.277736809190475
4.7896375,4.044567605828571,13.846687304052379,0.08171538518571404,24.109833689809527
4.7995835,4.047020394447619,14.42028543252857,0.24584038011904738,23.788668822285715
4.8095285,4.037968904638096,14.91469118322857,0.4016965768333331,23.43222851347619
4.8194745,4.0332622649714285,15.264389734657144,0.5563065091666664,23.1225678522381
4.8294205,4.0235868494,15.4510588088,0.671411462190476,22.962443253380954
4.8393665,3.977044558161905,15.552936239323808,0.724297133190476,22.88723337704762
4.8493125,3.9254256446857143,15.566448931942857,0.7132059118095235,22.88311965371429
4.8592585,3.8734232234476194,15.487635397895236,0.6639370778095236,22.954584709238095
4.8692045,3.835258077971429,15.296398618323808,0.5723334836666665,23.11550802452381
4.8791505,3.848253055352381,14.992724419895236,0.4578125630476188,23.353572789714285
4.8890965,3.90232128392381,14.64026247427619,0.39440817571428544,23.643741893428576
4.8990425,3.964773960352381,14.266659252276188,0.4393618828571426,23.993584886380955
4.9089885,3.999173547671429,13.811675652323808,0.598503964185714,24.44838262276191
4.9189345,3.943738706433334,13.174918406223806,0.8971468003761901,24.94634766414286
4.9288805,3.7605663229476187,12.179718960795237,1.1847083833285712,25.29870861109524
4.9388265,3.337844401138095,9.664810347461904,1.2530666466285711,24.312787331095237
4.9487725,2.0968013074238097,3.9216341474619036,1.1428433460095235,20.189882486809523
4.9587185,-0.2155477272904762,-2.5311383125380966,1.1510498331280947,15.202905514428572
4.9686635,-1.6996528095761905,-6.38547429587143,1.0984874887799998,12.722286790142856
4.9786095,-2.397883532242857,-8.697690348252383,1.0561474173895236,11.796170838238094
4.9885555,-2.849585271147619,-10.053465307776193,0.9696799339609521,11.741993986333332
4.99850025,-3.096056095985714,-10.88937880234762,0.7520981063942853,12.06802004904762
5.00844625,-3.202224429128571,-11.468346094823811,0.42620150941333296,12.485064570333334
5.01839225,-3.2532732878428576,-11.918934955428572,0.10407764736571395,12.880903669952383
5.02833825,-3.2681366455095238,-12.20929844052381,-0.20698982601523844,13.200105216761905
5.03828425,-3.2706658725571423,-12.343403858190479,-0.5312731483485719,13.379849302761906
5.04823025,-3.268851620747619,-12.35443641252381,-0.859381287586667,13.433503873142858
5.05817625,-3.2596206910333327,-12.282712432761906,-1.15740120044381,13.387942460809525
5.06812225,-3.251382423604762,-12.154744892904763,-1.3905134973009527,13.269999419857143
5.07806825,-3.261658668461905,-11.991782296761906,-1.5364443238723813,13.115027643285714
5.08801425,-3.308478410128571,-11.807913370476191,-1.6188787947628576,12.947707240142858
5.09796025,-3.3952154641285714,-11.62998012004762,-1.6866712042104766,12.793105259761903
5.10790625,-3.488852566747619,-11.450587321095238,-1.7978342776722385,12.626715733571427
5.11785125,-3.56659057492381,-11.245513829476193,-1.95033223050081,12.422392977142858
5.12779725,-3.618899348485715,-11.008998299857145,-2.094845810334143,12.183604587809523
5.13774325,-3.6222877542666665,-10.722347378904763,-2.2091509199627146,11.895145442571428
5.14768925,-3.552217032933333,-10.35876617304762,-2.2863112232150953,11.529297051619048
5.15763525,-3.3530530576238093,-9.887621537428574,-2.351750949738905,11.042205195238093
5.16758125,-3.000781703409524,-9.37001776604762,-2.4234536916003337,10.473012751809524
5.17752725,-2.6392208359285716,-8.935706941047622,-2.4984271152998576,9.983246686571428
5.18747325,-2.242770927404762,-8.525214554190477,-2.49737404568081,9.515918574666667
5.19741925,-1.7477288882142856,-8.051387800619048,-2.4056639208236668,9.043280148666666
5.20736525,-1.1189819656904763,-7.378887416428573,-2.2139410146808096,8.801569905666666
5.21731125,-0.25286692026190477,-6.0475549320000015,-1.8814319685808099,9.335643909000002
5.22725725,0.9841943864999999,-2.6589813899047634,-1.1491475631998573,12.028806260428572
5.23720325,2.3035043691190475,3.5982257383333316,0.18075352265728536,17.654911972285714
5.24714825,2.3021396916428567,8.398336490476188,1.2144649299429997,21.713708032809524
5.25709425,1.7476358127857143,10.863432840666665,1.9166746687049043,23.540944774428574
5.26704025,0.45723978273809524,12.047397113476189,2.4992999236096662,24.798775101523812
5.27698625,-0.491504202357143,12.836746027857142,2.8926802527525233,25.573271882476188
5.28693225,-0.607230011357143,13.768164462666665,3.124229964704904,25.792309277142856
5.29687825,-0.47887298097619063,14.640429985428572,3.257345929023952,25.870007081238093
5.30682425,-0.24266341402380973,15.394466478571427,3.307969249662047,25.776284468047624
5.31677025,-0.017018791214285907,15.964373454714282,3.346558179071428,25.470817667666672
5.32671625,0.17690646873809504,16.324352859190476,3.411879019185714,25.13602665866667
5.33666225,0.35528638378571414,16.503143896095235,3.5146205080666664,24.977820994523807
5.34660825,0.5068376654333331,16.520149659666668,3.6316621911714284,24.97976743857143
5.35655425,0.6313318198142855,16.407337211904764,3.751654316666666,25.10711482285714
5.36650025,0.7095802968857141,16.185585567714284,3.87404755947619,25.333613821619046
5.37644625,0.7358209788142855,15.887883102999998,4.02342749147619,25.62985762790476
5.38639225,0.7349342972857141,15.549750567047615,4.2178674107619045,25.97049339266666
5.39633725,0.7065051348047617,15.142183124476189,4.419411947666666,26.368500717904762
5.40628325,0.5667664051714284,14.593179109,4.612764159571428,26.818356014380953
5.41622925,0.20620974826333316,13.729657039095239,4.765288139476191,27.13730532309524
5.42617525,-0.49496470612714305,12.061928613857143,4.788467810995238,26.827379522142856
5.43612125,-1.6345726762223813,8.137235368142857,4.330182260441428,24.568342218809523
5.44606725,-3.05442120227,1.1848250105238083,3.1695320963461895,19.573211880714286
5.45601325,-3.1853867834604768,-4.189746835666669,2.2218735213938094,16.047045960238094
5.46595925,-2.77094560479381,-7.107122198047621,1.4817118307747617,14.672059077857144
5.47590525,-1.637786285127143,-8.66044923661905,0.7754524633938091,13.831547162142856
5.48585125,-0.76815148027,-9.718690158952384,0.16887381115571398,13.397612761190477
5.49579725,-0.6806075800795238,-10.822999428000003,-0.3165007478919051,13.427213089285715
5.50574325,-0.8031906798890477,-11.796412258952383,-0.6923887833204765,13.502216899285717
5.51568925,-1.0185578466509524,-12.579024150666669,-0.9554937881300002,13.65566573238095
5.52563525,-1.2384203249842858,-13.126793484857144,-1.1434231599823814,13.962929991285716
5.53558025,-1.4420828278414288,-13.450098985714286,-1.288360551601429,14.276315315809525
5.54552625,-1.6425525630319047,-13.59057873157143,-1.416373281934762,14.404101690904762
5.55547225,-1.837978789317619,-13.574406808809526,-1.5171725902823812,14.374717414142857
5.56541825,-2.0233272489366665,-13.443432268809525,-1.5893832255004763,14.23309288890476
5.57536425,-2.1759538335557145,-13.233433054714288,-1.6398767797004763,14.018982297666666
5.58531025,-2.2934113720319047,-12.980026923952384,-1.710966642867143,13.764698561238095
5.59525625,-2.405655087555714,-12.722153019428575,-1.8378188400757145,13.500975589666666
5.60520225,-2.5257059914557143,-12.459740672809525,-1.9707137378852384,13.23381160361905
5.61514825,-2.641186997012857,-12.188502566904763,-2.096491488356667,12.964178262095237
5.62509425,-2.729477885961905,-11.87599598252381,-2.2242527535947625,12.658082882238096
5.63504025,-2.7772058254761904,-11.473769414904764,-2.321279695975715,12.26043671395238
5.64498625,-2.782707080904762,-10.91074942861905,-2.3280760887528573,11.70012088947619
5.65493225,-2.582026080285714,-10.204437603285717,-2.2481874050880952,10.96949431252381
5.66487825,-2.3237285796,-9.62508241757143,-2.117263325216667,10.347545916142858
5.67482425,-2.0300108531190477,-9.158198787000002,-1.8970175688500002,9.805573565142858
5.68476925,-1.6899182119285716,-8.744819351238098,-1.6397778642976195,9.293404053857143
5.69471525,-1.3876053986428571,-8.377113380428572,-1.3610576682500002,8.83632224552381
5.70466125,-1.0733732729285714,-8.016553069190477,-1.1092781354404766,8.427485288666666
5.71460725,-0.6671836712142857,-7.571321984442859,-0.906765417964286,8.114480201809524
5.72455325,-0.08457566559523803,-6.726677761490477,-0.6905448779261908,8.197843341809524
5.73449925,0.7935565359285716,-4.364993902871431,-0.27186945211666697,9.831032597571427
5.74444525,1.961764553452381,1.0572703976047602,0.6058693503119045,14.574584281333333
5.75439125,2.0798999913333334,7.237123124557141,1.7084978513119047,20.018406954
5.76433725,1.4509979226190477,10.4810498887,2.59697945732619,22.663170748142857
5.77428325,1.0849163012857144,12.108388393461903,3.0624541943538097,23.646780745761905
5.78422925,0.7391730083333333,13.039750193652381,3.42923384103,24.017271111761904
5.79417525,0.3009926491904761,13.592394991890474,3.7963926865776187,24.257072867714285
5.80412025,-0.07095239990476196,14.027544725057142,4.0171979031195235,24.341250096904762
5.81406625,-0.31483988314285716,14.492714369676188,4.138971640405238,24.266826586142855
5.82401225,-0.3637526286666667,14.941428306633332,4.255464736352857,24.007227473761905
5.83395825,-0.3311054588095238,15.285036648871426,4.425347686448095,23.74088591095238
5.84390425,-0.262596267752381,15.500659798395237,4.5991386161623815,23.57016075861905
5.85385025,-0.19463886413333337,15.574655672061903,4.732171744969524,23.518323015714287
5.86379625,-0.1730744528814286,15.507420432680952,4.836949533638095,23.597718037285713
5.87374225,-0.17341940553857146,15.335517276490478,4.9416444241,23.775542969857142
5.88368825,-0.18362454927666672,15.09757084972857,5.059574960542856,24.015764398
5.89363425,-0.22058304527666672,14.818101841109524,5.1964647318,24.293110617857142
5.90358025,-0.2915540376861905,14.48721183315714,5.345485568228571,24.609496752380952
5.91352625,-0.40021235193380955,14.077017013823806,5.493675577942857,24.969669147809523
5.92347225,-0.5903421702671429,13.505647788123808,5.657149276609523,25.338292861809524
5.93341825,-0.9433686506004764,12.465309592361901,5.739464199761905,25.396649578476193
5.94336325,-1.6017663860290476,9.87958501617143,5.4795145892,23.942143536095237
5.95330925,-2.5504785247433337,4.185411321409522,4.61751731272381,19.452347732285716
5.96325525,-2.4075056009576192,-2.4254354390666686,3.386315333438095,14.459975103238094
5.97320125,-1.633696803719524,-6.135527183352384,2.2574874085333327,12.312657077999999
5.98314725,-1.1492136666052382,-8.094292637161905,1.561476344628571,11.690235687047618
5.993093625,-0.7399792769776191,-9.390498836685715,0.9688129240095235,11.708668575142857
6.003039625,-0.2566369175109524,-10.276123242828573,0.3996651949142854,11.822136729904761
6.012985625,0.16812541106523804,-10.964575805757145,-0.002777566704762173,12.010421433238097
6.022931625,0.44605853016999997,-11.61389949794762,-0.27488723489523836,12.285254596238095
6.032877625,0.5179566804080952,-12.183917348428572,-0.49325528322857165,12.676361640619048
6.042823625,0.49982506331285703,-12.607693161238094,-0.7414007715142861,13.03210933995238
6.052769625,0.4250029049699999,-12.88056216695238,-1.01141164432381,13.275947588380951
6.062715625,0.32305706377952376,-12.99601115204762,-1.2578935580380954,13.39016948
6.072661625,0.22492650990857138,-12.973149151428572,-1.4630210320380956,13.37682752266667
6.082606625,0.1271963232609523,-12.853829253809526,-1.6243938887523814,13.266611401333334
6.092552625,0.027870838660952312,-12.685701867523811,-1.7614387991333336,13.103141431190476
6.102498625,-0.06605728129142865,-12.506030156333335,-1.8921019539761905,12.923903882476193
6.112444625,-0.15236940807238103,-12.32716165752381,-2.0155038415,12.743006787142857
6.122390625,-0.23807995901523815,-12.153582188000001,-2.1320485391190482,12.566306371857143
6.132336625,-0.33512410194380965,-11.971304901714287,-2.2803185234285714,12.37411574547619
6.142282625,-0.4405054033628572,-11.768220688714289,-2.417964701604762,12.161281908190476
6.152228625,-0.5360497111152381,-11.554578130380955,-2.4721561045904767,11.94625714447619
6.162174625,-0.6441243444771428,-11.288418748761906,-2.4452641472571433,11.67237344857143
6.172120625,-0.8098455562166665,-10.848620506952383,-2.3310023905428574,11.203132123333333
6.182066625,-0.8570468947880954,-10.361808980476193,-2.154213106114286,10.685340199095238
6.192012625,-0.8640764000452382,-9.990189134190476,-2.022704074971429,10.292365069857143
6.201958625,-0.7917555134823809,-9.535480408904764,-1.9135112764952384,9.83327592304762
6.211904625,-0.6450701037109523,-9.00628021657143,-1.8262144977333334,9.336468346142858
6.221849625,-0.37680470138238104,-8.343103802559526,-1.7254071076857147,8.912975702666667
6.231795625,0.1346550037033333,-7.156820969226192,-1.5424205890904765,9.051336962666667
6.241741625,1.0079392719414284,-4.231960613511906,-1.1858368576619052,11.036902741238096
6.251687625,2.1083749347033334,1.8081100241071415,0.025407126623809194,16.290716927428573
6.261633625,1.89658439837,7.6769724017261884,1.5897075510047616,21.436272644857144
6.271579625,1.3850899647985713,10.645764698297617,2.483274007338095,23.715354129666668
6.281525625,0.9756033061795238,12.142902695059522,3.068958859766666,24.569595926190477
6.291471625,0.20333194384619024,12.960218173630953,3.665638085385714,25.22345390514286
6.301417625,-0.5560436977252382,13.51377850663095,3.9630720236714283,25.679622797666667
6.311363625,-0.9054132180109524,14.178849195916666,3.940945205990476,25.742253532571425
6.321309625,-0.9884272593442858,14.866428073630951,3.8656774167523813,25.630580380904764
6.331255625,-0.9461429418680954,15.418493663392857,3.8375435943238094,25.33231180266667
6.341200625,-0.8479823148919049,15.83291521197857,3.881290436195238,24.960955367333334
6.351146625,-0.7539364675204764,16.099324603645236,3.9615014685238092,24.70933121152381
6.361092625,-0.6658830555776192,16.222759576645238,4.057808277547618,24.59442979647619
6.371038625,-0.5865357718347619,16.215008563264284,4.177918182690476,24.60770069057143
6.380984625,-0.5250543492380954,16.104619285264285,4.324632278595239,24.72081144009524
6.390930625,-0.4948293710714286,15.908142174978568,4.487305681357143,24.915050464809525
6.400876625,-0.5004438953809525,15.655810651073807,4.67415693802381,25.160053463095238
6.410822625,-0.5339812411857144,15.348468911978568,4.876293895357143,25.451098092285715
6.420768625,-0.6238147926952382,14.928033613454762,5.09387642597619,25.823677593
6.430714625,-0.8316442441619049,14.27368120468095,5.284206664595239,26.222337866476188
6.440660625,-1.2466340690190478,12.996502290395236,5.354638841333333,26.159384981238095
6.450606625,-1.980943810876191,9.87339871468095,5.195183091666666,24.36006083647619
6.460552625,-2.9457914457333336,3.48940827325238,4.128949136699999,19.432683796
6.470497625,-2.740482492257143,-2.9251838738904774,2.6312648707952375,14.814450628380953
6.480443625,-2.2812890081142863,-6.377044309128572,1.7760326210809516,13.00789049647619
6.490389625,-1.9225482110190477,-8.296461287223812,1.1546303024619042,12.577003635047621
6.500335625,-1.2503990912571428,-9.48103163817619,0.40439138103333283,12.328998402190477
6.510281625,-0.5495314969714287,-10.283145135557143,-0.09762660915714334,12.172962018380954
6.520227625,-0.21927158930476207,-11.099557608890477,-0.27019461458571475,12.307058903619046
6.530173625,-0.13524278459047634,-11.869994706842858,-0.36293028539523864,12.537091905857142
6.540119625,-0.18228389901904776,-12.45515570427143,-0.46687311953809574,12.895627334142857
6.550065625,-0.2971655649714287,-12.866936678095241,-0.6126720913857149,13.286194255809525
6.560011625,-0.4240610246380954,-13.110710300714285,-0.7816406831095244,13.536064766142859
6.569957625,-0.5615853510666668,-13.208703119571432,-0.9516926107285719,13.645872098285716
6.579903625,-0.7108695349714287,-13.186641853333334,-1.1207398475380959,13.63627308509524
6.589849625,-0.858505500161905,-13.081432623666668,-1.292024110680953,13.542464298333332
6.599795625,-0.9921393259476192,-12.915230085000003,-1.4584782673952386,13.387656011571428
6.609740625,-1.1165357726380953,-12.725256136761905,-1.6290239923952385,13.207248775285715
6.619686625,-1.2443064351666668,-12.53488780757143,-1.7986746270619054,13.02353310095238
6.629632625,-1.3587753642761906,-12.342289127761907,-1.98330518082381,12.834129945666668
6.639578625,-1.4622963496666668,-12.143396449428574,-2.1701539663476197,12.637043568857141
6.649524625,-1.5640137857380954,-11.910429873571431,-2.3142088460619052,12.401749223714287
6.659470625,-1.679894114366667,-11.621129551333334,-2.4007754606952383,12.107108495142857
6.669416625,-1.7675293912238097,-11.221961439428574,-2.4359491080142863,11.705780247190475
6.679362625,-1.6915470026,-10.645600334619049,-2.4107711714142863,11.125340897904762
6.689308625,-1.556876757852381,-10.14547235957143,-2.387578977128572,10.614669379666665
6.699254625,-1.4111923427033335,-9.700400931619049,-2.320090755176191,10.152312053142857
6.709200625,-1.2078355169557144,-9.280893418952383,-2.1621496362714288,9.686128419238097
6.719146625,-1.0333419885985715,-8.91137806904762,-1.9753862827476198,9.266438184714286
6.729092625,-0.859024886074762,-8.533556248238098,-1.8223384480333338,8.869532370714285
6.739037625,-0.636399654027143,-8.070783098652383,-1.6827859592238097,8.500037089333334
6.748983625,-0.3157981145509526,-7.15677160222381,-1.4629006906523816,8.53248714695238
6.758929625,0.12988103397285697,-4.425307904223811,-0.9601149889380958,10.437270662238095
6.768875625,0.8207482256871427,1.9780557246809511,0.33833423049047573,16.141706364999997
6.778821625,0.6130073038776189,7.970183507919048,1.7730258019190472,21.471034190190476
6.788767625,0.12394041611571402,10.60528801534762,2.5397093212999997,23.45042224852381
6.798713625,-0.2431150033128574,11.899581896633332,3.0527888164904757,24.10993934147619
6.808659625,-0.7790605157890479,12.664750096157144,3.5468915143476183,24.505010835380954
6.818605625,-1.3319594660747622,13.28404218234762,3.951006607490476,24.816351145952382
6.828551625,-1.6070207878366667,14.027938990966666,4.205080016966666,24.895123121238097
6.838497625,-1.5985676213128575,14.847490806776188,4.410199214347618,24.8631291942381
6.848443625,-1.5650383223938096,15.564909334633333,4.621113914347619,24.697816416380956
6.858388625,-1.4930373934080954,16.117810408014286,4.761987024680952,24.375635790190476
6.868334625,-1.4234714816890477,16.499041406395236,4.8233861720619045,24.012094864904764
6.878280625,-1.3955241993652383,16.702218924490474,4.876949110738095,23.81176410909524
6.888226625,-1.395420599231905,16.743389253442857,4.968585978328571,23.773982674809524
6.898172625,-1.4045955575461906,16.653790613633333,5.100224539233333,23.865735117333333
6.908118625,-1.4196989295000002,16.47658726282381,5.251215219090476,24.043269501476193
6.918064625,-1.4458422770523813,16.22629605539524,5.434492372138095,24.295743404428574
6.928010625,-1.4840072757157143,15.88781471882381,5.666023567947619,24.641400084666667
6.937956625,-1.543743217406191,15.441490037538095,5.928608100947618,25.07918720104762
6.947902625,-1.6402628024538097,14.828546690809523,6.159808748090476,25.58306947195238
6.957848625,-1.8082882591680955,13.702050301095236,6.258864256614285,25.756623470047618
6.967794625,-2.0893181124061906,10.710698750142857,6.021685513661904,24.10722707242857
6.977740625,-2.6089817951680954,4.020371736333333,4.9136150856142855,18.677767436714287
6.987685625,-2.200591064834762,-2.2929292074761913,3.5756953787190477,13.658152661952382
6.997631375,-1.469791406739524,-5.412326761761905,2.7853438060999998,12.164597405285715
7.007577375,-1.0324294073776192,-7.227058365095239,2.131315277242857,12.035076293380953
7.017523375,-0.42102096873476214,-8.335452443285716,1.4655344296714283,12.008085522904762
7.027469375,0.11458562088428549,-9.296638607238098,0.8480795107666663,12.083267436238096
7.037415375,0.31672765274142833,-10.335998926,0.3694185297666663,12.360234465285714
7.047361375,0.23484240945571405,-11.360440268761906,-0.03340654228095277,12.656131023761905
7.057307375,0.11704923382238068,-12.194860774476192,-0.38683347332857176,12.986839985571427
7.067253375,-0.056010633806190736,-12.796099638000001,-0.6470667713285717,13.401310317857142
7.077199375,-0.24234829608714312,-13.179486226333333,-0.830696741219048,13.81201073647619
7.087145375,-0.40627531407761935,-13.359150252571428,-1.0057871240857146,14.038343804571427
7.097091375,-0.5461385267395241,-13.366001490809523,-1.1970487336095244,14.089816172857143
7.107037375,-0.6685335080776194,-13.243204170333334,-1.4039555431809527,14.006926413857142
7.116982375,-0.8488582070347622,-13.021032055761907,-1.609029814514286,13.847762642047618
7.126928375,-1.0830593032776192,-12.734044168380953,-1.8068072897047622,13.641183225666666
7.136874375,-1.3310308096857146,-12.417768273666669,-2.012528548466667,13.393204087952384
7.146820375,-1.5186771971857145,-12.099221403809524,-2.210035325414286,13.087992443761905
7.156766375,-1.5982031585761909,-11.78844005395238,-2.3794136190052386,12.752260544523809
7.166712375,-1.5801639344809528,-11.486556885619049,-2.532966517409524,12.443787985333334
7.176658375,-1.5423975203380957,-11.204190609380953,-2.68609632452381,12.16851874804762
7.186604375,-1.5493552405761908,-10.920120538142859,-2.821755117666667,11.891692601238097
7.196550375,-1.6224042551000004,-10.59145650961905,-2.9157897334857146,11.571750607333334
7.206496375,-1.7290482244333336,-10.074209975380953,-2.902864518961905,11.052874777
7.216442375,-1.625439955461905,-9.471810133047619,-2.775950062819048,10.449366458333333
7.226388375,-1.4564663518190482,-8.946797354714286,-2.6050193612952386,9.942313003
7.236334375,-1.1223271646285717,-8.259437691952382,-2.357621390795239,9.361658341238094
7.246279375,-0.664402804914286,-7.408850693190477,-2.0472564255619052,8.889326581999999
7.256225375,-0.15533900343809556,-6.337169862190477,-1.6689648851333334,8.750462329619047
7.266171375,0.14377884946666636,-4.725551540761906,-1.0839455017047623,9.236476210095239
7.276117375,0.3326407547476188,-1.5338478745714295,-0.25018083089523835,11.458145940571429
7.286063375,1.4545947767476186,3.9930334688571416,0.5970940263904758,16.190240899142857
7.296009375,1.4880057948428569,8.523629094619046,1.4949395861999994,19.935415396714284
7.305955375,1.3120736704619043,10.885926938619045,2.265695440771428,21.609174991047617
7.315901375,1.6421500242714282,12.342488628142856,2.6577871131999995,22.32011627052381
7.325847375,2.116179592795238,13.243115179761904,2.897415616819047,22.53758104519048
7.335793375,2.6292375159380947,13.822003924619047,2.9810272157538087,22.496666089761906
7.345739375,3.0946901657476182,14.175500994447615,2.9015465215633327,22.35199847804762
7.355685375,3.4177252746047615,14.365773930304758,2.7614624651299997,22.253444588761905
7.365630375,3.5418978042809526,14.443175361590477,2.6524452571495236,22.216631675761906
7.375576375,3.5022986361380952,14.441847765209523,2.605859379772857,22.210609966714287
7.385522375,3.3949338860904756,14.392825544495238,2.6450836161252376,22.234311951333332
7.395468375,3.3031704749714286,14.292285316590474,2.767278617458571,22.31868053957143
7.405414375,3.2432608291952376,14.127345219971428,2.9497105763633327,22.46711671395238
7.415360375,3.1725233930047616,13.89374522335238,3.1314501970776187,22.682211591428572
7.425306375,3.0464697792809523,13.59109971720952,3.287461202315714,22.95898498009524
7.435252375,2.829725621042857,13.196195060780951,3.3975934081871424,23.295976906857142
7.445198375,2.5145267417571424,12.642138605638095,3.4636092594919043,23.68815564195238
7.455144375,2.0793669708523805,11.871006134971427,3.4877276388252376,24.021569062619047
7.465090375,1.520079359757143,10.780641890638094,3.447005408444285,24.140226486904762
7.475036375,1.1035640346142854,9.067297052542855,3.160045281253809,23.75051626595238
7.484982375,0.7462351729999998,5.708558426828571,2.5670763296347614,21.72080054261905
7.494927375,-0.5569260946666669,-0.028207775552381437,1.8998364348395234,17.232623698809526
7.504873375,-0.7208394204285715,-4.74690852364762,1.1357478577690474,13.691650757380952
7.514819375,-0.6455955560476192,-7.253928518885715,0.4206845882928568,12.175173918809524
7.524765375,-1.093984861190476,-8.825464733647621,0.011001957388094905,11.616439808809524
7.534711375,-1.6043617106666666,-9.807681299885715,-0.3160008214690479,11.512861652142858
7.544657375,-2.0378419802380954,-10.444120707933333,-0.5308347361180956,11.608668156190475
7.554603375,-2.366020564476191,-10.842896833761905,-0.5893247684038099,11.770887663190475
7.564549375,-2.6334343685714288,-11.07375493152381,-0.5908719138323812,11.918714557190476
7.574495375,-2.870302568714286,-11.186596197666667,-0.5946557863085717,12.025907848428572
7.584441375,-3.0718061681904762,-11.210241920142858,-0.6162125143847623,12.062949092
7.594387375,-3.238206913380953,-11.166381704952382,-0.6565617828704765,12.035879855666666
7.604333375,-3.370445823214286,-11.077572272476191,-0.7017946806847624,11.961383385523808
7.614279375,-3.4801995715333343,-10.950063126857142,-0.7482820812180956,11.845100659238096
7.624224375,-3.574896502866667,-10.776875866285716,-0.7858180001561909,11.683646015809524
7.634170375,-3.647430113190476,-10.579907005095238,-0.803940717646667,11.499182413714285
7.644116375,-3.7000914320952383,-10.389165902238096,-0.8061511078609529,11.320203459761904
7.654062375,-3.7269603764761907,-10.194536595952382,-0.827629824336667,11.134227051761904
7.664008375,-3.692911622095238,-9.969656636,-0.8911137686176195,10.907232732190476
7.673954375,-3.5763721034285716,-9.695387389285715,-1.0011937846080956,10.611535432809523
7.683900375,-3.388971041428571,-9.39330544347619,-1.1315955758461906,10.267179190761905
7.693846375,-3.1312122294285714,-9.085921743619048,-1.2545108706080956,9.894281495809523
7.703792375,-2.8126364856714288,-8.776460194285715,-1.3408710124319052,9.507805417761906
7.713738375,-2.4869909709000004,-8.48586766547619,-1.3862141163328574,9.156786860761905
7.723684375,-2.125455956471429,-8.161238076761904,-1.3597965282852384,8.803351043142857
7.733630375,-1.6757282097571429,-7.6930690612142865,-1.2349238432757146,8.42691913047619
7.743575375,-1.1084418025190477,-6.765656609738096,-0.9688234142757146,8.50355888
7.753521375,-0.2463337282809524,-4.433676912976191,-0.5669115798471431,10.116379473
7.763467375,0.9556068761952381,0.06692291449999946,0.053615995152856755,14.001379019238097
7.773413375,1.5347899309571427,4.720556905119047,0.8988540447242853,17.965637482523807
7.783359375,1.3282067299571427,7.842651947261904,1.6727323126290474,20.386912185904762
7.793305375,1.1266801175285714,9.648776588261905,2.2105531871052375,21.48295227961905
7.803251375,0.9229033711952381,10.776381470880953,2.727836948590952,21.97457255290476
7.813197375,0.7064052554333333,11.663734063261904,3.192552995452856,22.272568259238096
7.823143375,0.6395737941,12.4943383975,3.50271966698619,22.37795743361905
7.833089375,0.6739106212904762,13.219998018976193,3.691244059162381,22.312959321238093
7.843035375,0.7636135014285714,13.800825923309523,3.817629384033809,22.08892389485714
7.852981375,0.8617500086571427,14.260080858699999,3.917046027757619,21.762623727714285
7.862926375,0.9560184017380952,14.598146903652381,4.024713176285713,21.458248895857142
7.872872375,1.0354912753142858,14.797019952176191,4.1518372620952375,21.26923071542857
7.882818375,1.0919703735619049,14.846879160033334,4.280068253657142,21.218509286
7.892764375,1.151628286238095,14.793131637319046,4.383027725323809,21.26301700147619
7.902710375,1.209742293858095,14.668699797461906,4.451013768119047,21.378565095
7.912656375,1.218746967677143,14.478428337176192,4.5002695398580945,21.564902823047618
7.922602375,1.1641572300866667,14.21163013360476,4.535751756581904,21.82611938861905
7.932548375,1.0424791643961904,13.839975454414283,4.557944613005714,22.165390576238092
7.942494375,0.8476160319880952,13.278000894580952,4.550374250743809,22.553309360809525
7.952440375,0.5175169993166667,12.179838552676191,4.461719268205714,22.546802213190478
7.962386375,-0.15622282081666672,9.607103983628571,4.254715979591428,21.08801369938095
7.972332375,-1.2086050835976192,4.816707349819048,3.7898180356057143,17.435049011285713
7.982278375,-1.6558726352261905,-0.15556096827619056,3.056254315005714,13.74416922747619
7.992223375,-1.3414962433833335,-3.5906026954190473,2.352282663548571,11.602066534142857
8.002170583,-1.1007793223833333,-5.700492054942857,1.8445944891247612,10.791756192714287
8.012116583,-0.9038266387166668,-7.110034223038094,1.27980562969619,10.57923469557143
8.022062583,-0.7480090057642858,-8.244996712657143,0.663453690600952,10.551336575095238
8.032008583,-0.7699514481928572,-9.2694146668,0.13595289417238055,10.685520845571428
8.041954583,-0.871828461002381,-10.132953610276191,-0.2996187852085718,10.940862178047619
8.051900583,-1.0320963471404763,-10.824829161038096,-0.6737941294466671,11.33170080652381
8.061846583,-1.1996356983690477,-11.369354738333334,-0.9682246593514289,11.786756978571427
8.071792583,-1.3650690078309524,-11.768598808619046,-1.213358511351429,12.18927695557143
8.081738583,-1.523925727597619,-12.017868479809525,-1.421825302399048,12.461509850333332
8.091684583,-1.6660027448452381,-12.12475566547619,-1.5729899090657147,12.594445431047617
8.101630583,-1.8213567875690477,-12.12706258695238,-1.6479516940371435,12.628778311952383
8.111576583,-2.005549962665238,-12.066715729428571,-1.6506022368942859,12.607124039809523
8.121521583,-2.1901705100509523,-11.95556110647619,-1.613036660714286,12.538217099380953
8.131467583,-2.426195451184286,-11.812326932333333,-1.535913285419048,12.46861678652381
8.141413583,-2.720798599255714,-11.66364318095238,-1.41142552122381,12.426854306523808
8.151359583,-2.8641996070857143,-11.526858429904761,-1.302738667019048,12.31873883390476
8.161305583,-2.917411002804762,-11.388182633476191,-1.2049352979571433,12.18620057095238
8.171251583,-2.901225039757143,-11.226601594904762,-1.1599129625619051,12.026004993571428
8.181197583,-2.8267312060714285,-11.023605730380952,-1.1893314461000004,11.83964788890476
8.191143583,-2.7436492047761907,-10.756217598142857,-1.23568616702381,11.594539114666667
8.201089583,-2.63936458,-10.447900794190476,-1.3016355271380955,11.30832786052381
8.211035583,-2.494529145714286,-10.108678727,-1.3989254550000003,10.991684933619048
8.220981583,-2.3094275987142856,-9.717287523095237,-1.4486749788571431,10.613330643619047
8.230927583,-2.0459897202857142,-9.209141790142857,-1.39735906252381,10.108367386857143
8.240872583,-1.729910855952381,-8.521597856428572,-1.2581315953333336,9.566821022809524
8.250818583,-1.3914540359999998,-7.550738977666666,-1.0309027808095244,9.37130490647619
8.260764583,-0.9447440511904762,-5.778254565761904,-0.7092532949523813,10.027424869333334
8.270710583,-0.1591151770952381,-1.610733693380952,-0.3464568133809528,13.151887102190477
8.280656583,0.7255549356666667,4.264999941857143,-0.14328856733333376,18.031944628857143
8.290602583,0.8215866610476192,7.92874701647619,0.3377421787619043,20.740480785523808
8.300548583,0.5756274467142857,9.910040957095239,1.1453909291904758,22.02472322409524
8.310494583,0.19494487538095248,11.220385946904761,1.9360202795904757,22.85978980547619
8.320440583,0.09841223157142867,12.34800029604762,2.521238475080952,23.360603918571428
8.330386583,0.44155409133333345,13.492206342619046,2.827801058590476,23.708296287095237
8.340332583,0.9880580044761906,14.51683437895238,2.8660671381619043,23.885938236619047
8.350277583,1.5372454276666667,15.356780030000001,2.6912957069714283,23.839053296142858
8.360223583,1.8627520710476193,16.037911879142857,2.445766443971428,23.704901679142854
8.370169583,2.0645475927714285,16.569151078952384,2.183445543828571,23.498928479523812
8.380115583,2.152411266047619,16.950785423809524,1.9999674692857137,23.258628753238092
8.390061583,2.1170466862857147,17.144710864714288,1.9744734698095232,23.072070006809522
8.400007583,2.0240949121333336,17.161301448095237,2.0543895449095233,23.03162254590476
8.409953583,1.8987016996285715,17.050017434619047,2.204092995033333,23.122778135761905
8.419899583,1.757396299057143,16.846383499809523,2.4341685752238087,23.311563301714283
8.429845583,1.6101614737714285,16.542997569238093,2.699997254842857,23.608704781714284
8.439791583,1.462888210009524,16.089880094380952,2.959596617223809,24.04403951704762
8.449737583,1.3025019386761905,15.38873364352381,3.191248182128571,24.563152623476192
8.459683583,1.0911054628666668,14.309761362380952,3.3810215708904754,24.82899371695238
8.469628583,0.7591566148190476,12.371339095714287,3.467289719985714,24.295490660761903
8.479574583,0.058773573771428576,8.000510089523809,3.409288459271428,21.33375389838095
8.489520583,-0.7584288449428571,1.8559736580952382,3.401780209747619,16.68166978647619
8.499466583,-0.8396221190380954,-2.2311360261904762,3.0026624081571422,14.36613264647619
8.509412583,-0.7090752333238095,-4.76354440952381,2.1474930020142855,13.642921096476192
8.519358583,-0.3274066404190476,-6.481696271428571,1.2767391789666664,13.205154825523808
8.529304583,-0.19989290032380952,-7.91364987,0.5371296882999997,12.999908433619046
8.539250583,-0.5105070474666666,-9.305283185714286,-0.0014848830333336273,12.902889066476192
8.549196583,-0.9013760462285713,-10.504431397142858,-0.3226800680333336,12.871309073142857
8.559142583,-1.2178897485619047,-11.450040328142856,-0.4740094339380955,12.968227805047619
8.569088583,-1.4691196709428571,-12.152510811190476,-0.5412619365571432,13.155054546095238
8.579034583,-1.6784189384190473,-12.644500965714284,-0.5630338769857146,13.371158752
8.588980583,-1.8458237480190474,-12.960899039285712,-0.5894642662714289,13.588332161238096
8.598925583,-1.965491861204762,-13.09547014590476,-0.6525023464142861,13.726409279380954
8.608871583,-2.037203847242857,-13.087255921666667,-0.74389606032381,13.73545690552381
8.618817583,-2.076397413547619,-12.982456247571427,-0.8464468046857146,13.63942615742857
8.628763583,-2.0956338898809523,-12.817063242333333,-0.9684161382809526,13.473404971809524
8.638709583,-2.1153294979285713,-12.618015417666667,-1.1140036219285716,13.266610220047621
8.648655583,-2.1667902442142855,-12.414981017380953,-1.2770555205733336,13.054962816666665
8.658601583,-2.234775514309524,-12.196584449761904,-1.457584043711429,12.827082064238095
8.668547583,-2.286393000785714,-11.945525948333332,-1.6633597790257146,12.558867090571429
8.678493583,-2.3035432045,-11.675513001238095,-1.856494537159048,12.269305892619048
8.688439583,-2.272732582452381,-11.402076704190476,-1.9928945762685717,11.982886398761904
8.698385583,-2.191651484409524,-11.072343192047619,-2.0624750155209526,11.643670941047619
8.708331583,-2.0198564251876188,-10.581328882,-2.0473314335209527,11.136180838285714
8.718276583,-1.6967891844685716,-9.95974134595238,-1.9376866244066668,10.468900007428571
8.728222583,-1.459475684087619,-9.460629950857143,-1.8263159608561907,9.951420031761904
8.738168583,-1.1879590976114285,-9.025443825714285,-1.6891710212847624,9.508769934095238
8.748114583,-0.8648282057542855,-8.569415411809524,-1.5193613354180955,9.064750553095237
8.758060583,-0.5451342863733333,-8.02817802995238,-1.3316340544800003,8.651847627571428
8.768006583,-0.14202437832571424,-7.26678752147619,-1.0874044325752383,8.47045766852381
8.777952583,0.3847631830552382,-5.762518650047619,-0.6479104409085716,9.094010296619047
8.787898583,1.2733595686266665,-2.039112378428571,0.11840720990095206,12.068236831857142
8.797844583,1.9330013410838096,3.811020059809524,1.2667706824247615,17.20357906152381
8.807790583,1.3559723516980953,8.342941026714286,2.226315532948571,21.054629760190476
8.817736583,0.6527904923171428,10.506105259238094,2.7206140847104754,22.61893458395238
8.827681583,-0.04038524958761903,11.68998992657143,3.1315403835676188,23.372913336333333
8.837627583,-0.5254290095876192,12.591463739428573,3.345155042353333,23.75013594004762
8.847573583,-0.6344513199685715,13.486390425238096,3.4165781968104754,23.863601390857145
8.857519583,-0.5409003367495239,14.333795508523808,3.46588777336,23.868768420238094
8.867465583,-0.3488238620352381,15.026997375142859,3.497710263050476,23.721220236238096
8.877411583,-0.11586141403523807,15.528087885571427,3.5413388589028565,23.442058822904762
8.887357583,0.09517557634571429,15.867512907,3.6516302656552377,23.18860536090476
8.897303583,0.24117910329809522,16.057145544904763,3.796932634907619,23.03887713295238
8.907249583,0.33030304644571423,16.098879879571427,3.9386103082076187,23.018906498333333
8.917195583,0.36314887544761904,16.01605368,4.035106887226666,23.110462361095237
8.927141583,0.3433844338238095,15.841866128238093,4.078719939231428,23.28440494861905
8.937086583,0.2815259319847619,15.587607501238093,4.084787427852381,23.532546392857142
8.947032583,0.17947083661809524,15.284824000857142,4.085411938328571,23.812939074333332
8.956978583,0.04417568461333332,14.90008656647619,4.092813232523809,24.14117307438095
8.966924583,-0.1343260683104762,14.346479372238097,4.109614113828571,24.522608291333334
8.976870583,-0.4200322392009524,13.477964754714286,4.119170858780952,24.760989339428573
8.986816583,-0.85374632082,11.75875905757143,3.971735599304761,24.294212476095236
8.996760958,-1.7042817736057145,7.7072148675714285,3.500458266447619,21.595813298
9.006706958,-2.4057509837009525,1.407835922333333,2.6276630414476188,16.873461102285713
9.016652958,-2.0073587274152382,-3.6916832338571433,1.8533405246571426,13.585690967047618
9.026598958,-1.5391179859866666,-6.376719705285715,1.4080322775142855,12.572280105142857
9.036544958,-1.0321590430342857,-7.928909543857142,0.9338599534190473,12.22846311704762
9.046490958,-0.6619721957961905,-9.087905982904763,0.5649159598952378,12.153130023238095
9.056435958,-0.5484630593200001,-10.135652517666667,0.2942295805619044,12.222875776571428
9.066381958,-0.5772086902057142,-11.051243792666666,0.024691427323809193,12.319700970095239
9.076327958,-0.6973270807199999,-11.749848932047618,-0.22265416880000036,12.513762902238094
9.086273958,-0.8594549452342858,-12.221337217142857,-0.4632367361000004,12.802809431285715
9.096219958,-1.0220098583961903,-12.50913728295238,-0.7480714560523813,13.037826569428573
9.106165958,-1.1519501651104762,-12.634825271666667,-1.0370346165761908,13.150065547047618
9.116111958,-1.2730134935390478,-12.630526036761905,-1.2814003184809528,13.145105836904762
9.126057958,-1.4059916167152382,-12.542735773857142,-1.441859547766667,13.06748188604762
9.136003958,-1.540837051715238,-12.399689434619047,-1.5144782629333338,12.941823523000002
9.145949958,-1.6677413517809523,-12.223712384095238,-1.5378960762238099,12.784363356333333
9.155895958,-1.8089594269380953,-12.052708696619048,-1.5428885194428572,12.631615087095238
9.165841958,-1.9706739977428573,-11.893023603904762,-1.5422297053000003,12.49054070857143
9.175786958,-2.153430685961905,-11.739985570238096,-1.5434327490380955,12.356573997142856
9.185732958,-2.331754439880952,-11.576905834857143,-1.5647547810195241,12.210279808095239
9.195678958,-2.4628470448333335,-11.385520674857142,-1.6055023005957147,12.028488438095238
9.205624958,-2.529999671428571,-11.14366569057143,-1.6560833959814287,11.790000032857144
9.215570958,-2.5017821015714286,-10.806135222476192,-1.7099728946719048,11.447953304761905
9.225516958,-2.2947674387190475,-10.334331465809523,-1.7123554679861908,10.952215274285715
9.235462958,-1.9740268677714288,-9.860533057047618,-1.6341325237623814,10.43316497157143
9.245408958,-1.6436413424380951,-9.455691391761905,-1.5115692244204288,9.980254130190476
9.255354958,-1.3291826719142859,-9.070070498857143,-1.3839756037537623,9.559549038904763
9.265300958,-1.0786546033428572,-8.690273209952382,-1.2854480152299526,9.206354697238094
9.275246958,-0.7900132554380952,-8.205992553395715,-1.1804205782775719,8.936100318428572
9.285192958,-0.3007205328285715,-7.254394347300477,-0.9685357834442385,9.146915559857142
9.295137958,0.5705332546857143,-4.582234391205239,-0.482466073968048,11.148390552095238
9.305083958,1.9733680886095237,0.9053911417947612,0.27885398946052337,16.040268760095238
9.315029958,2.256599098323809,6.279099661747143,1.2308519502224282,20.681342164285713
9.324975958,1.6834087714190478,9.077347360985238,1.9066017784129041,22.828183912
9.334921958,1.1240179985619048,10.587657324747143,2.4580558048890944,23.798100719047618
9.344867958,0.6684025930857143,11.643004014556666,2.8803849886986184,24.333615578285713
9.354813958,0.5283176317047618,12.595949391175715,3.0698647010557614,24.531937128761903
9.364759958,0.6827148367142856,13.569462487985236,3.1394594311795707,24.640867884190477
9.374705958,0.9975475549999999,14.49556229527095,3.15115116162719,24.701594972238095
9.384651958,1.3793338579047618,15.296953132604285,3.1124917384557618,24.646083885714287
9.394596958,1.7689271960476187,15.963962396699523,3.0430700719609995,24.47771487890476
9.404542958,2.039586302285714,16.48631302117571,2.99844053023719,24.14201463347619
9.414488958,2.1767959997619046,16.873397472128097,2.9566867327086186,23.76001585152381
9.424434958,2.230222914108095,17.133457567032856,2.918616513975285,23.496320235285715
9.434380958,2.2029061913461905,17.255000631461428,2.917940763794333,23.37700151485714
9.444326958,2.100188481160476,17.224416825651904,2.976600887427666,23.418373001857145
9.454272958,1.92220382397,17.025447493223332,3.094314965514285,23.634692867523807
9.464218958,1.6942082097319044,16.702026663175715,3.3031008022285713,23.968796220714285
9.474164958,1.4377520668747616,16.283057372842382,3.598400952323809,24.355020367619048
9.484110958,1.094495914922381,15.654856635809525,3.924212959609523,24.762552137857142
9.494056958,0.5422931313509523,14.469450495333334,4.128277340204762,24.76499967690476
9.504002958,-0.38592053479190497,11.496035306285714,3.9591553425857136,23.026983392619048
9.513947958,-1.817041538934762,5.612361206761904,3.4053072917190472,18.492824060714288
9.523893958,-2.109294704934762,-0.4052494389523812,2.56488180697619,14.466629226904761
9.533839958,-1.593742276077619,-3.9369689180000003,1.9417788118809518,13.039311186428572
9.543785958,-0.9706242034109523,-5.94475018847619,1.4236378695952376,12.549475378333332
9.553731958,-0.4592652236966668,-7.351495549428573,0.9641458992142851,12.352619061666665
9.563677958,-0.3382207037919049,-8.515761555142857,0.6549186838333328,12.377104399761905
9.573623958,-0.5248910865633335,-9.564972900857143,0.3773189534999994,12.393988945
9.583569958,-0.8421074083728574,-10.469330310095238,0.14585845332380898,12.372966161666666
9.593515958,-1.1823688043728573,-11.177079965666666,-0.030989720914286253,12.391047202857143
9.603461958,-1.489279840182381,-11.706352524095237,-0.16990605353333385,12.46384722695238
9.613407958,-1.6535448898909526,-12.06591273890476,-0.3069776522809529,12.66406816138095
9.623353958,-1.674938327519524,-12.265836309333334,-0.4137778954142862,12.875639273904762
9.633298958,-1.6541759019228575,-12.340647479761904,-0.4862003668952386,12.960390915142858
9.643244958,-1.6612553347419048,-12.345461046904761,-0.5684733571809529,12.967736138904762
9.653190958,-1.6816151586942858,-12.293500238333333,-0.6948358292142862,12.916064442142856
9.663136958,-1.6863020918371432,-12.17932227109524,-0.8585590647476196,12.796178396190477
9.673082958,-1.6958384968371432,-12.03438338304762,-1.0506826443904766,12.640230840428572
9.683028958,-1.7331444914561904,-11.883541201476191,-1.274283484371429,12.475842880428573
9.692974958,-1.7798470312180954,-11.697288810952381,-1.5245211203428577,12.273797813095237
9.702920958,-1.8101801933133335,-11.47432559604762,-1.7662551853904769,12.038070862476191
9.712866958,-1.8337105863609522,-11.211392680333333,-1.9451127483428579,11.780699507142858
9.722812958,-1.8542252292657142,-10.847384934333334,-2.0645088754761907,11.431987072142858
9.732758958,-1.8608455442657141,-10.203492136285714,-2.1452798622571434,10.809274253761904
9.742704958,-1.7897523885514288,-9.432095705571427,-2.2199080426857147,10.059266207047619
9.752649958,-1.7952290160276192,-8.859380590142857,-2.313938280066667,9.514753067428572
9.762595958,-1.742201536127619,-8.395973129285714,-2.3612803172571435,9.069326641285715
9.772541958,-1.583742451389524,-8.02408687247619,-2.3348819484476198,8.68968755747619
9.782487958,-1.388872789589524,-7.727713563238096,-2.2198447674476194,8.352873720333335
9.792433958,-1.1542747848752382,-7.436731581904763,-2.080536253685715,8.043220308523809
9.802379958,-0.857044538541905,-7.0445612505333335,-1.8747083110952385,7.804661716142858
9.812325958,-0.4763889201133334,-6.396933780057142,-1.5530445970476197,7.872678918380951
9.822271958,0.019426622214285552,-4.964261614009524,-0.982650241571429,8.781330161285714
9.832217958,0.7417899522238094,-1.8211131988190477,0.05584573352380893,11.501073958333333
9.842163958,1.4250505987095237,2.980456350038095,1.5463733698095232,15.921101614285714
9.852108958,1.1746244318190473,7.313284162752382,2.4761589275238087,19.622509495714286
9.862054958,0.5860853307238094,9.749033894561906,2.759964760319047,21.34204651485714
9.872000958,0.009928753247618988,11.158878113038096,2.9062003660428566,22.07803702604762
9.881946958,-0.35281538194285716,12.275284936895238,2.9998057544952377,22.437661552761902
9.891892958,-0.3344666382285714,13.359038681038095,3.1096609311428565,22.612958433714287
9.901838958,-0.06854069294285717,14.307361081942858,3.247265350495238,22.674096914380954
9.911784958,0.3535881680571428,15.090907024609525,3.3710450934476186,22.67349937752381
9.921730958,0.8423971658190477,15.677584399942857,3.4601905251380947,22.629939287666666
9.931676958,1.259027639342857,16.070523166847618,3.5270809597952373,22.528809538809526
9.941622958,1.4856827445333334,16.26481731646667,3.606249628499999,22.372149786666665
9.951568958,1.6043521184380953,16.29593207727619,3.674941409309523,22.323749420142857
9.961513958,1.6555492458190475,16.213314177847618,3.735523853785714,22.383489658285715
9.971459958,1.6362916568571426,16.028965473800003,3.808088433471428,22.54699218147619
9.981405958,1.5669841920714285,15.741746676990477,3.909400800190475,22.814629716238095
9.991351958,1.4747655543666667,15.36743911584762,4.053489231785714,23.16478878290476
10.00129833,1.3476277693952379,14.899614361847616,4.235566090690476,23.576688039476192
10.01124433,1.1416131753380951,14.258247226952381,4.353389219385714,23.994686398142857
10.02119033,0.7970268027619047,13.303504750190475,4.328855820004761,24.17959101957143
10.03113633,0.26298894448571425,11.523508057809526,4.025621109623809,23.587468246238092
10.04108233,-0.5674865002285715,7.988931684952381,3.182087015290475,21.24263471052381
10.05102833,-1.3809890514190477,2.7406973420952383,1.7716971332038092,17.26679442195238
10.06097433,-1.2900043711333333,-2.134662230761905,0.8089620697752377,14.128265010047617
10.07092033,-0.9175049362285715,-5.135329008380953,0.4094251098228567,13.021079813380952
10.08086533,-0.4244611971809525,-6.8878353226666675,0.14915632482285662,12.651020345285716
10.09081133,-0.14870347189523822,-8.178513508380952,-0.14216405717714337,12.522983876714285
10.10075733,-0.20861049337142873,-9.32616495695238,-0.4953313161771433,12.486591531476192
10.11070333,-0.4423647239904763,-10.278852916904762,-0.8698915882247624,12.494539369571427
10.12064933,-0.7845901092285716,-11.02860295547619,-1.1970873530342863,12.513642672761906
10.13059533,-1.1525203278333334,-11.56749652252381,-1.4242590319152386,12.541500902238097
10.14054133,-1.4366223847238095,-11.926793250619047,-1.5591892271914292,12.625022753095239
10.15048733,-1.5604733244666666,-12.128582333428572,-1.6382499312295244,12.78487618890476
10.16043333,-1.606383657004762,-12.218311922809525,-1.646814876991429,12.869042349857144
10.17037933,-1.628824372714286,-12.238390927238097,-1.635300386753334,12.886989508428572
10.18032533,-1.6404667916428572,-12.194996930047617,-1.669030614105715,12.849846117142858
10.19027133,-1.6483312270714283,-12.089793436238097,-1.7678463311104768,12.758654369523807
10.20021633,-1.6711632816428574,-11.94555936004762,-1.922599408800953,12.632297448666666
10.21016233,-1.7246873920047618,-11.787308923285714,-2.115038487515239,12.487914722285714
10.22010833,-1.7660497915380955,-11.609472820428572,-2.3022833592771437,12.315168459952382
10.23005433,-1.7864250305285714,-11.405661659,-2.4701714551819056,12.112622299619048
10.24000033,-1.7743470392809524,-11.173744546809523,-2.634643050800953,11.877325686809524
10.24994633,-1.7242319252190474,-10.90178695504762,-2.7620738787533337,11.601834385142856
10.25989233,-1.6410798687142858,-10.551016553428571,-2.813766209619048,11.247137507904762
10.26983833,-1.4555172478857143,-10.019044113,-2.768585219761905,10.691052468
10.27978433,-1.1378969530476193,-9.372588480238095,-2.6422901090714292,9.986449787380952
10.28973033,-0.8941986968714287,-8.873571002571428,-2.5248860238952386,9.453005834190476
10.29967633,-0.5924772737761905,-8.454021111857143,-2.315416901757143,8.969236397619047
10.30962133,-0.2844482224904763,-8.017661561904763,-2.0009129780000006,8.498252810714284
10.31956733,0.036097559604761804,-7.446786231142857,-1.5689177341428575,8.243927594571428
10.32951333,0.44653146722380943,-6.504100657285715,-0.9921554823333338,8.49185722552381
10.33945933,1.0796006444,-4.560228145095238,-0.32712976090476253,9.80630627552381
10.34940533,1.854515087195238,-0.9710748913333331,0.3432497824761899,12.74115915995238
10.35935133,2.2720932481761906,3.8836029128571434,1.0410975540952374,16.851148863238095
10.36929733,2.037057119952381,7.068271988809523,1.7220871207619042,19.28517467838095
10.37924333,1.6485038204714284,8.73545253009524,2.43656855047619,20.322605274619047
10.38918933,1.2083828682714288,9.89009276609524,3.094026401619047,20.929151872190477
10.39913533,1.0491591486999998,10.922317783238096,3.6096933523809516,21.239839197428573
10.40908033,1.2846924782238094,12.026540875619048,3.994167453238094,21.522396939238096
10.41902633,1.6839612040809524,13.135147847904761,4.214935101428571,21.81818941466667
10.42897233,2.0538213692904765,14.089199267428572,4.257247127095238,21.982009831761907
10.43891833,2.329067898142857,14.837866373809524,4.186257710714285,21.949522117142855
10.44886433,2.512997137552381,15.406840301380953,4.087966127,21.757831909095238
10.45881033,2.6027186939666667,15.808599314666667,4.0187266013333325,21.45949662647619
10.46875633,2.6068419764238095,16.02860653942857,3.98891178795238,21.25209826390476
10.47870233,2.5573217400238097,16.06967612919048,4.007994037014285,21.216171452761905
10.48864833,2.4585088213285715,15.965000750285716,4.071872014019046,21.328922966714284
10.49859433,2.3227084351047615,15.736344546904764,4.163652681366666,21.561653059428572
10.50854033,2.1484241326285716,15.362944612857142,4.26573452775238,21.933042234095236
10.51848533,1.9604438273904758,14.843542683380953,4.328545130328571,22.39886705433333
10.52843133,1.724416310690476,14.116220976857143,4.259797856661904,22.72487076666667
10.53837733,1.349748442942857,12.969871229714288,3.996979017328571,22.60859581095238
10.54832333,0.6868732580047618,10.796473645904761,3.574039906285714,21.472912449523808
10.55826933,-0.18834081375714304,6.955541931142857,3.06804717392857,18.757555925714286
10.56821533,-0.736951645757143,1.778070368761905,2.469125276704761,14.957573042380952
10.57816133,-0.7623562385190478,-1.9704659831428573,1.778686129228571,13.113919146666666
10.58810733,-0.7076330382333335,-4.272019609809524,1.0078810466571422,12.76767517047619
10.59805333,-0.4364894625190478,-5.857878273142857,0.42295234389047576,12.608197532857142
10.60799933,-0.4714167193285716,-7.186148988380952,-0.05309318449047671,12.623252107142857
10.61794533,-0.870941831709524,-8.434342642190476,-0.47646008206190527,12.530297203333332
10.62789133,-1.3967102651380956,-9.59533448552381,-0.803000060728572,12.350023128571431
10.63783633,-1.8703861049476191,-10.544781389761905,-0.9907990675380958,12.253478482380952
10.64778233,-2.2063562015190477,-11.251877048238095,-1.0660519533476196,12.304291939904763
10.65772833,-2.4129963571857145,-11.770649343857142,-1.0763589239190483,12.479381654047618
10.66767433,-2.493595226961905,-12.129179502,-1.067492282680953,12.747106400761904
10.67762033,-2.4700269453261905,-12.334931521285714,-1.0532133263952386,12.941818024190477
10.68756633,-2.40468938498,-12.41685702685714,-1.055617771080953,13.016810573904763
10.69751233,-2.3400942121800004,-12.415958532523812,-1.0848996664542863,13.006588587619046
10.70745833,-2.2980794966085716,-12.34276013552381,-1.1551411543304768,12.92624341857143
10.71740433,-2.2749006812752386,-12.201171868761906,-1.2927694776638101,12.781910040666665
10.72735033,-2.2888707514657147,-12.043109071952381,-1.4688114600923814,12.626011080190475
10.73729633,-2.3438154916228573,-11.881552953619048,-1.6294553639495244,12.472304583000001
10.74724133,-2.4061254820657147,-11.715627684714285,-1.7514817775209528,12.314458050285715
10.75718733,-2.445308105746667,-11.536309813809524,-1.8368985372400002,12.140964251857142
10.76713333,-2.4351431668419052,-11.322326111999999,-1.889625317120953,11.929635020666668
10.77707933,-2.365402583470476,-11.001393550380952,-1.9205016368495242,11.606273764904762
10.78702533,-2.126719873999048,-10.403105971238094,-1.8929739688495242,10.97863302652381
10.79697133,-1.7543517857800002,-9.704072092,-1.8447925220400003,10.225912900571428
10.80691733,-1.4780066382085717,-9.170589649666667,-1.9154491343685716,9.682925547571429
10.81686333,-1.1084909331609525,-8.71397178052381,-1.9253241000828578,9.211853082380953
10.82680933,-0.6946735411609526,-8.301606085142858,-1.8429289099400006,8.81507193852381
10.83675533,-0.23702363863714307,-7.76769857794762,-1.6773538889876196,8.50243649
10.84670133,0.2980445685533331,-6.741824221804761,-1.3800219010352386,8.696753132380953
10.85664633,1.089283442172381,-4.4324445425666665,-0.8416350091304766,10.28625481552381
10.86659233,2.0375366230771426,-0.20811696766190496,0.20634911763142802,13.885803385571426
10.87653833,2.00936239222,4.8319052378142855,1.683487165774285,18.313770388857144
10.88648433,1.579097144574762,8.129236376909525,2.6057573529647615,20.95531642047619
10.89643033,1.3337173197047616,9.880165474195238,3.1387020883504757,21.986913262761906
10.90637633,1.0824799978095236,11.00483363457619,3.45680681107619,22.356500669523808
10.91632233,0.8181843467619045,11.886229222814285,3.64781804147619,22.48001723190476
10.92626833,0.5303418608095236,12.68007642805238,3.8349143521904754,22.553775311714283
10.93621433,0.37015497252380936,13.426552165052382,3.950378950766666,22.49566070442857
10.94616033,0.41177729819047604,14.11749026814762,4.017344250680952,22.296423083904763
10.95610633,0.514062437995238,14.715061423957142,4.090153842647619,22.00665378638095
10.96605133,0.5973394474238093,15.203096967338094,4.162786451933333,21.630699754285715
10.97599733,0.6564661405714284,15.543685723861906,4.2174837434857135,21.286988348999998
10.98594333,0.667346634238095,15.708489107195238,4.254662937066667,21.118928399190477
10.99588933,0.6452736318238094,15.730832237052379,4.292707595133332,21.09360744233333
11.00583521,0.585249707795238,15.641594342814287,4.350685299961904,21.176341008761902
11.01578121,0.4814323103666665,15.45233653905238,4.427441887761904,21.35110259842857
11.02572721,0.3285669992619046,15.1637982761,4.510853727685714,21.609092794095236
11.03567321,0.11946469943809507,14.75052119452857,4.609843998014285,21.941132662714285
11.04561921,-0.17506739800000015,14.106649279238097,4.708482147585714,22.283897182666664
11.05556521,-0.6001982229666668,12.895203093047618,4.719040471823809,22.19622558647619
11.06551121,-1.3219763233952382,10.352864467333333,4.478588624585714,20.776922603619045
11.07545621,-2.2486152681428573,5.868779794476191,3.6581904310619042,17.401186477904762
11.08540221,-2.2653228306523814,0.5402915254285715,2.3280459896523804,13.248387292190474
11.09534821,-1.9311918574142861,-3.0743181945714286,1.4825545053047615,10.925038169809524
11.10529421,-1.7952621154619048,-5.184463718380952,0.955215342423809,10.260450059809523
11.11524021,-1.6453725289857144,-6.725689637904762,0.6105938726047614,10.316460893619048
11.12518621,-1.4548159892238097,-7.984794084571428,0.40943393627618996,10.57722670457143
11.13513221,-1.2029623707952384,-9.029081824190476,0.23623030369047568,10.753870002666666
11.14507821,-1.0715629122714287,-9.948443328,0.08508814616190426,10.990721802809524
11.15502421,-1.1149938652714289,-10.721702487047619,-0.055174640133333855,11.285035617190475
11.16497021,-1.1853322690285715,-11.343631584,-0.2192174399571434,11.614039363142856
11.17491621,-1.2347929508666668,-11.832915647142856,-0.3894844059095243,12.009194943714286
11.18486121,-1.2636983168761906,-12.175317653095238,-0.5449183501285719,12.37537765047619
11.19480721,-1.256813138652381,-12.360183473761904,-0.6782324028047624,12.58492056595238
11.20475321,-1.2398551830380955,-12.424577913047617,-0.8009070985857148,12.671950081333334
11.21469921,-1.2191847605952384,-12.393599475904761,-0.9184637543190481,12.65978199252381
11.22464521,-1.191473879809524,-12.287373860714286,-1.0196007811666672,12.565168437761905
11.23459121,-1.158653465309524,-12.145967832285715,-1.0875467844238098,12.426537752523808
11.24453721,-1.1480216192666668,-12.015631529714286,-1.1484351357571434,12.296425923714285
11.25448321,-1.1512408943380954,-11.889097894333332,-1.2302627909428576,12.169609439619048
11.26442921,-1.1604467541333334,-11.764916955761905,-1.3224133712428578,12.043263693428571
11.27437521,-1.1856139081809527,-11.64220918147619,-1.4082262171476196,11.918269329142857
11.28432121,-1.2036817801952384,-11.500637008619048,-1.4621030677928577,11.775893555333333
11.29426621,-1.1758845833904763,-11.301498385285715,-1.4982471858452386,11.574457028666666
11.30421221,-1.1035748309238098,-11.015827346285715,-1.532641200930953,11.283763066619047
11.31415821,-1.0004706650238098,-10.624007068000001,-1.577528493478572,10.888342819857144
11.32410421,-0.8733256963219049,-10.109005279857143,-1.644798203611905,10.376505082285714
11.33405021,-0.7312388780314288,-9.573400715904762,-1.712079580330953,9.848229812857143
11.34399621,-0.5558925819838096,-9.070747801571429,-1.79623802617381,9.385699635285714
11.35394221,-0.2935886526980954,-8.475617357147618,-1.810016878507143,8.94678504147619
11.36388821,0.07852207449238077,-7.337386385242858,-1.6243498501023816,9.073704448142857
11.37383421,0.7680074854923807,-4.306758363004762,-1.0135928610547624,11.269612553857144
11.38378021,1.617499955092381,1.1907675920428569,0.7732021378499996,16.196354716190477
11.39372521,1.3004581030495237,6.224174842519047,2.8881189337071422,20.775079407333333
11.40367121,0.6074271976923808,8.76710328537619,3.9510413040404755,22.75523209457143
11.41361721,-0.2009049180266668,10.140464998995238,4.420528003659523,23.616726468238095
11.42356321,-1.5202175942314287,10.934289817757142,3.7865687060404762,24.764615429428574
11.43350921,-1.7688397906838096,12.099019229233333,3.3606361406595235,25.300312993714286
11.44345521,-1.6358757425552382,13.27727698175714,3.2161492630880946,25.673092035619046
11.45340121,-1.4736336067266669,14.261038577280951,3.0553311609499993,25.807103424428572
11.46334721,-1.260278940217143,15.04712649947143,2.9879446387547617,25.70046911628571
11.47329321,-1.0433747423123811,15.650674790233333,3.03517221672619,25.405806804476192
11.48323921,-0.8936180685980953,16.05742003042381,3.1918093230119045,25.096976671523812
11.49318521,-0.832712655917143,16.282004678280952,3.432507477228571,24.95930438395238
11.50313021,-0.8238809517838097,16.33793165328095,3.7053226885476183,24.979879672999996
11.51307621,-0.8584416855838098,16.23454895475714,3.961772570028571,25.133613813619046
11.52302221,-0.9177709151504765,16.004906381709525,4.223129939504761,25.394520687047617
11.53296821,-0.9879792270428573,15.68081551642381,4.46571983507619,25.72562473461905
11.54291421,-1.0396865170285716,15.281784090090474,4.657887018219047,26.114573375000003
11.55286021,-1.0706471201904764,14.779960478138094,4.84477052155238,26.568992033047625
11.56280621,-1.1175404323333336,14.093581894666666,5.000607645223809,27.086210748761903
11.57275221,-1.2464720386666668,12.765793825619047,4.960726961460047,27.13635973923809
11.58269821,-1.743554644571429,9.48023822704762,4.4566986985409995,25.184033469714283
11.59264421,-2.487027613571429,3.6927346751428574,2.746214708731476,20.52960975590476
11.60259021,-2.164597044152381,-1.648495456761905,0.6969451877314758,16.237828305904763
11.61253521,-1.566430237866667,-4.5116220229523805,-0.28568307807804794,14.562456299714283
11.62248121,-0.9321228082000003,-6.191642019619048,-0.6545983332304288,14.007838786857143
11.63242721,0.13684989879999987,-7.24557048147619,0.06348321317433306,13.150849656857144
11.64237321,0.18312344089523802,-8.506413277666667,0.49409096860290447,12.749922278761906
11.65231921,-0.09593814210476204,-9.676645169809523,0.5537043345552853,12.415482211666667
11.66226521,-0.3586840722000001,-10.60146602409524,0.6032459968409997,12.265717726904763
11.67221121,-0.6236351404380953,-11.29025393895238,0.5647479637933807,12.30810036995238
11.68215721,-0.8677452912000002,-11.768877915380951,0.41069693483623776,12.504542710523811
11.69210321,-1.0395913952,-12.041089805428571,0.1418666288362378,12.702496101380952
11.70204921,-1.1331835299761905,-12.15634146090476,-0.21641429868757175,12.752632641380952
11.71199521,-1.1841946462952382,-12.149299352809525,-0.5841306553542384,12.685983500238097
11.72194021,-1.1987393237714286,-12.054385761428572,-0.8984842152113812,12.55223333695238
11.73188621,-1.1946521757238096,-11.901261912857143,-1.1578787092113814,12.371248421666667
11.74183221,-1.185466882104762,-11.713104249142857,-1.3420017177113814,12.168335675952381
11.75177821,-1.2127905310285716,-11.510287504380953,-1.4538190319542383,11.962543261190476
11.76172421,-1.3119878693428573,-11.302373658190476,-1.514653947373286,11.755980489761905
11.77167021,-1.485018507866667,-11.076514874380953,-1.5401529865780479,11.527947697857144
11.78161621,-1.7095658310571429,-10.835578293142857,-1.5307545897952384,11.27741445452381
11.79156221,-1.9222249921999999,-10.578184110619048,-1.482167680367143,11.010290725857143
11.80150821,-2.061251892914286,-10.293065856285713,-1.4246925855004764,10.72208826404762
11.81145421,-2.1020941652380953,-9.973733009285715,-1.3854420366719051,10.403218267523808
11.82140021,-2.0373893223285715,-9.631069465761906,-1.3949718913861908,10.059643156
11.83134521,-1.8786675375000002,-9.28957745352381,-1.4489092850433336,9.706687323666667
11.84129121,-1.6290018009857146,-8.972168618904762,-1.5145442528766668,9.355630409095237
11.85123721,-1.4112883275666668,-8.743001786333334,-1.5714883649242861,9.115732428809524
11.86118321,-1.1825586441380953,-8.419290182476189,-1.619043059781429,8.878046629857144
11.87112921,-0.8252385672809526,-7.582244026428571,-1.5882915850671433,8.958273954142857
11.88107521,-0.188616614709524,-5.017673618190476,-1.3671309970195242,10.803334814761905
11.89102121,0.8795281475285712,0.043559807476190336,-0.5815520611147623,15.246910425523808
11.90096721,1.1667742592428572,5.565606840190476,1.101166342075714,20.227891787142855
11.91091321,0.8408720726238093,8.601037347809525,2.2200107590757137,22.649739902809525
11.92085821,0.5376306031952379,10.211502514238095,2.855665052932857,23.567702284428574
11.93080421,0.1442369298619045,11.273418996666667,3.2949452661709517,23.96519835009524
11.94075021,-0.2336124009476193,12.141398009380952,3.495337623170952,24.113185601571427
11.95069621,-0.4242655938047621,12.988285307761906,3.5206535261947614,24.083789322142856
11.96064221,-0.38902694494285733,13.834093627857143,3.4871090036280954,23.97203328952381
11.97058821,-0.25146811303809546,14.569490561857142,3.50999392674238,23.752862197285715
11.98053421,-0.03999837303809547,15.125338353619046,3.6123487893709516,23.461686428857142
11.99048021,0.21398679915238072,15.484792789476192,3.7738552898042856,23.25609166747619
12.00042621,0.4527237346285712,15.659341365142858,3.9646478482476186,23.174986892142858
12.01037221,0.6522750671523807,15.680605795095238,4.149217187238095,23.203520515904763
12.02031821,0.785251032485714,15.58455879047619,4.301606152123809,23.312768879095238
12.03026321,0.8563122443095236,15.416943397428573,4.445284109171428,23.47608095157143
12.04020921,0.8820534278538094,15.214740303761905,4.584849851685714,23.66663543342857
12.05015521,0.8836259529728568,14.993073555809522,4.712527926333333,23.87122883657143
12.06010121,0.8770458236423806,14.68625775990476,4.866726862038095,24.137122223047623
12.07004721,0.8153262070614282,14.164672257238097,5.069441266695238,24.522344397190473
12.07999321,0.608717744728095,13.07485386452381,5.212788612390476,24.650673014333332
12.08993921,0.08322219525190457,10.195223894047619,5.156907231833333,23.084917829571427
12.09988521,-0.9446525491385716,4.592472308809524,4.509750378742857,19.153864943380956
12.10983121,-1.406795730614762,-1.7148483797619043,3.0053176390285707,14.959572718619048
12.11977721,-1.2208116717576192,-5.422090692619046,2.012267623128571,13.207991200523809
12.12972321,-1.1199717322338096,-7.474497021666665,1.3551313828904756,12.765531559095239
12.13966821,-1.0142392602814287,-8.793057739285715,0.7519522739857138,12.735206223380953
12.14961421,-0.864053275662381,-9.76691788247619,0.32145723074761856,12.81783876909524
12.15956021,-0.7810266001385715,-10.61601514995238,0.04379970346190427,12.949550012333335
12.16950621,-0.8211507160004763,-11.402592901761903,-0.17127316734761952,13.079926305428572
12.17945221,-0.9226831050861906,-12.052431260190476,-0.43409150547142905,13.279823312190477
12.18939821,-1.072470880405238,-12.512773527095238,-0.7720096089000005,13.534263503857144
12.19934421,-1.2424404458623808,-12.771884869666664,-1.1536789814238102,13.68959505457143
12.20929021,-1.4008281945909524,-12.85265440852381,-1.5382575386142863,13.717473348142857
12.21923621,-1.5511930344290477,-12.812358488904763,-1.8786407516142862,13.65937810452381
12.22918221,-1.6779692178671428,-12.696239440857141,-2.1377930525666673,13.555044904095238
12.23912821,-1.7762778838385715,-12.535853990714285,-2.334914623328572,13.415447167238096
12.24907421,-1.851716307401905,-12.360728823714286,-2.4925683655095243,13.261643334619047
12.25901921,-1.9208788377971429,-12.197540218714286,-2.6035950735857147,13.116586279095237
12.26896521,-2.0050120362190476,-12.032416324333333,-2.6649681799571434,12.964715933619047
12.27891121,-2.108449796209524,-11.83612674252381,-2.701181865952382,12.77846471552381
12.28885721,-2.2208337544,-11.588545942333333,-2.737659644228572,12.539879173857143
12.29880321,-2.317023368542857,-11.27515812690476,-2.7615248043204765,12.234963976904762
12.30874921,-2.3244149243428573,-10.724482949190476,-2.7519023478061913,11.686744917571428
12.31869521,-2.075258828364286,-9.898526538619047,-2.780777033344286,10.833986206523809
12.32864121,-1.8248730002642857,-9.13230862447619,-2.7581962907395243,10.048391856904763
12.33858721,-1.4959971981690476,-8.537868569333332,-2.604045893891905,9.409117751809523
12.34853321,-1.0746582542642857,-8.051287674047618,-2.347399960163334,8.809186642095238
12.35847921,-0.6854110782166667,-7.594431767714284,-2.078856306910953,8.256913804380952
12.36842421,-0.41908780074047625,-6.850112456,-1.7299970536252385,7.967397359333334
12.37837021,-0.30503595216904766,-4.996190084761904,-1.2394182498633337,8.917933510285714
12.38831621,-0.18500395422619048,-1.751729720333333,-0.7554298985300006,11.313464212904762
12.39826221,0.1433095336642857,2.796438654333334,-0.21647649495857194,15.056619520142858
12.40820821,0.7017347917880953,6.525113100285715,0.9805302152795233,18.17561268509524
12.41815421,1.1388337778023807,8.468981714285714,2.694529412279523,20.001420792190476
12.42810021,1.4322710049738094,9.68015093752381,4.124484572184285,21.12550740480952
12.43804621,1.6074585142690476,10.686727477571429,5.146556456136667,21.782502859999997
12.44799221,1.8694427192214282,11.710034655523812,5.90082985894619,22.261426402571427
12.45793821,2.2617072952214285,12.73722861709524,6.484914578898572,22.66888080757143
12.46788421,2.664018974792857,13.69442678495238,6.901828628470001,22.942464256428572
12.47783021,2.984254102697619,14.524540677000001,7.13896259847,23.01654265
12.48777521,3.2046879096499996,15.175042054000002,7.215280164808095,22.869946661238096
12.49772121,3.336774812769047,15.621599816285714,7.204528666636667,22.534020812904764
12.50766721,3.3984199887261903,15.85751531009524,7.162632559014285,22.295674002333335
12.51761321,3.379095734535715,15.894749070714287,7.106297754719047,22.26369233742857
12.52755921,3.284272203985714,15.767406737571429,7.051368356547618,22.400520560238096
12.53750521,3.145076778171428,15.526499002476193,6.996340335338095,22.649579754142856
12.54745121,2.9877617429333334,15.21883285447619,6.936921653819047,22.96076235495238
12.55739721,2.8283259574095236,14.854595201095238,6.903628401442856,23.323471243238096
12.56734321,2.6511517799809523,14.388271260476191,6.901358832533331,23.758372606666665
12.57728921,2.476198750980952,13.53937722557143,6.7954041803,24.053968493142854
12.58723521,2.3430086314571428,11.507448569380953,6.487699941823809,23.211218704095238
12.59718121,2.1586664498380954,7.8441673503333345,6.07367174377619,21.187628507904762
12.60712721,1.6288971843619044,2.5058147170000007,5.657971764109523,18.194292009809523
12.61707221,0.8887631565047618,-2.1053780663333326,4.677252586333332,15.91357630647619
12.62701821,0.3114707572190475,-4.781984912999999,3.063248740333332,14.785834943142856
12.63696421,-0.2672212705904763,-6.5105317872857125,1.6102320505238088,14.210300447428573
12.64691021,-0.7295160202095239,-7.8143598044285705,0.4889324992857137,13.935292612666666
12.65685621,-1.201210642352381,-8.970989680619047,-0.3891784851904769,13.682295461714283
12.66680221,-1.6840730705428573,-10.023670959142857,-1.0997595018571436,13.367753471714284
12.67674821,-2.0976848981142857,-10.951775358857143,-1.6580849536190483,13.122750453047619
12.68669421,-2.4001843628761903,-11.749533850142857,-2.0691417359047626,13.075026585714287
12.69664021,-2.5844810336380952,-12.381314586619046,-2.3504954691904767,13.25807063390476
12.70658621,-2.669787775190476,-12.831153416523808,-2.5529305301047627,13.646221431238095
12.71653221,-2.6872778204714285,-13.091926259380951,-2.7190591152619055,13.951001775809525
12.72647821,-2.6628757049857144,-13.170577964619048,-2.8444434942952386,14.054956903238097
12.73642421,-2.6111909267619047,-13.110182296857142,-2.931933446966667,14.002505057285713
12.74636921,-2.54850591402381,-12.960710452190474,-2.9866721563190484,13.851808677714287
12.75631521,-2.4925648640238096,-12.782403035714285,-3.0096498622190486,13.669352244190478
12.76626121,-2.452989342309524,-12.609864843904761,-3.016695910219048,13.493385725666666
12.77620721,-2.433736465928572,-12.445088162857143,-3.0155401523571435,13.327645410428572
12.78615321,-2.423903419166667,-12.276003921619045,-2.983042009933334,13.157358856
12.79609921,-2.408028388785714,-12.077617695571428,-2.8978402537571433,12.953068888571428
12.80604521,-2.3829074208333334,-11.658009805714286,-2.731899893238096,12.515618453952381
12.81599121,-2.231673893595238,-10.89036146795238,-2.6572103100666675,11.729946109333333
12.82593721,-2.1009001010761903,-10.05629566542857,-2.7046631729047625,10.888251823238095
12.83588321,-1.9939525150857145,-9.381214459571428,-2.6436709081809533,10.20343962
12.84582921,-1.7050831606380954,-8.910263283142857,-2.464845957385715,9.665114567285714
12.85577521,-1.373067995439524,-8.616642258714284,-2.230364534985715,9.256870704571428
12.86572121,-1.1125119172490476,-8.437422982809522,-2.010106172285715,8.961219040761906
12.87566621,-0.9657626475204762,-8.319580426047619,-1.8200660947619052,8.757997875333334
12.88561221,-0.8748347687309523,-8.172622271523808,-1.6424828420000008,8.542110344095239
12.89555821,-0.7965070201357145,-7.780364677419047,-1.4366154098047625,8.117953865785715
12.90550421,-0.7425503898266668,-6.470998428323808,-1.161742911338096,8.5750557635
12.91545021,-0.7124205020076191,-3.7465849132761906,-0.9268688344904769,10.443729751880952
12.92539621,-0.45537933825523813,0.8784777998666665,-0.650223209633334,14.221422614357143
12.93534221,0.4992710934971428,5.838646279628571,0.3626414259857136,18.515221515452385
12.94528821,1.1031543462733333,8.422209279676188,2.169787436366666,20.912859998214287
12.95523421,1.3649308288685713,9.802393106914286,3.5909137735571415,22.182220856357144
12.96518021,1.4617024428209524,10.86955203567619,4.388497864842857,22.7819500375
12.97512621,1.6628766770114285,11.94966847767619,4.895257223061903,23.213736294595236
12.98507221,2.0731192484400003,13.120980573295236,5.241320282095238,23.69313189554762
12.99501821,2.5275330025352383,14.217676071580952,5.432788973571427,24.082947100928575
13.00496321,2.8602262707257147,15.13471116315238,5.49999178877619,24.262562698357144
13.01490921,3.0455002201066668,15.875863288723808,5.513828096938094,24.228793737547623
13.02485521,3.1232310723876187,16.44507210729524,5.50386575012857,23.989094008214288
13.03480121,3.1082060252971426,16.844148334490477,5.497750376980951,23.643154111833333
13.04474721,3.05295567764,17.06117320082381,5.513282920642856,23.43943915602381
13.05469321,2.9697651756685715,17.109766681395236,5.55748912395238,23.402862441166665
13.06463921,2.8540788632319045,16.99473087172857,5.646356325599999,23.535319374357147
13.07458521,2.7451378708985716,16.757795178204763,5.791229850280952,23.79316068245238
13.08453121,2.656012055265238,16.45488521091905,5.976320733042856,24.11467979454762
13.09447721,2.576825817094762,16.063235532300002,6.180937153471428,24.52068178635714
13.10442321,2.5157869347852384,15.418925521147619,6.338251812847617,25.139266707714288
13.11436921,2.4701441193190474,13.860294223052378,6.363762490809522,24.871315275333338
13.12431521,2.4309071513619047,10.86908874114762,6.356536766223808,23.212475638190476
13.13426021,2.1466259120761904,5.8348098659095236,6.181305952699999,19.80248849390476
13.14420621,0.9948443521714286,0.11538683781428578,5.188988906223808,16.266647966761905
13.15415221,0.18955823912380954,-3.217333404566666,3.502902145157142,14.625486196761905
13.16409821,-0.14074623263809521,-5.109009576947619,2.108219973014285,13.866230681523808
13.17404421,-0.44723332444761904,-6.518061024090476,1.2065006045857136,13.661408256285716
13.18399021,-0.8567248071142857,-7.800477316947618,0.49222061139523743,13.522760657238095
13.19393621,-1.4095270625428573,-9.068236867900001,-0.10863258650952448,13.239274972952382
13.20388221,-1.932358105495238,-10.198242505852381,-0.5578781188904769,12.970311909142858
13.21382821,-2.268022970447619,-11.12165000442381,-0.8804827195571434,12.869645942952383
13.22377421,-2.411130747395238,-11.854409398614285,-1.1459546494285722,12.969596642666664
13.23372021,-2.4295840031185714,-12.400531265804762,-1.359616447933334,13.25835158390476
13.24366621,-2.3695208749166667,-12.762870188857143,-1.5426392958380957,13.628010111047619
13.25361221,-2.29263679692,-12.944658146571427,-1.7139516604142864,13.836166526809526
13.26355821,-2.2139568440676194,-12.965512296857144,-1.8802580288047628,13.867548204761906
13.27350321,-2.142518744396191,-12.86387437947619,-2.0471460907095245,13.760824921142856
13.28344921,-2.0836118334438094,-12.689140864904763,-2.207884044233334,13.571144196666667
13.29339521,-2.0572244003485713,-12.493698461190476,-2.361844712852382,13.360730811000002
13.30334121,-2.076453727777143,-12.30002019042857,-2.5211104628000007,13.156983368761907
13.31328721,-2.1117147283485713,-12.11651468247619,-2.6842380341619054,12.968605437047621
13.32323321,-2.1486393800961903,-11.941685329142857,-2.804252232876191,12.798116493238096
13.33317921,-2.1762986800961905,-11.754897695333332,-2.840375064280953,12.616700098952382
13.34312521,-2.178806404667619,-11.41811678504762,-2.739588049010477,12.275712409904761
13.35307121,-2.010101494524762,-10.717068317095238,-2.5712115574628576,11.547898093238095
13.36301721,-1.8311908054771429,-9.995608305095239,-2.5298457923009527,10.808226086142858
13.37296321,-1.7679074207152379,-9.475235682190476,-2.4539872532580955,10.28345517657143
13.38290921,-1.53857664352,-9.093020931714287,-2.3334136012961912,9.844864677761905
13.39285521,-1.2827054449628572,-8.820813496857143,-2.182795396058096,9.487666201333335
13.40280021,-1.0669751799914284,-8.625493745761904,-2.0264310762961912,9.209771941380952
13.41274621,-0.9163221559580952,-8.464072252714285,-1.8862944367247627,8.984179957809525
13.42269221,-0.8237401694771429,-8.268640875333332,-1.7713075904866675,8.753019618190475
13.43263821,-0.7608679274866668,-7.952793860047619,-1.618148923200953,8.42009836152381
13.44258421,-0.7061337149490476,-7.203025555904762,-1.308800934962858,8.336287503714285
13.45253021,-0.6479275441033333,-5.011689159714285,-0.7673398693914292,9.725877103333332
13.46247621,-0.45178212424285713,-0.6596793056190473,-0.24256622829619112,13.277436921857142
13.47242221,0.05711501095238093,4.683138843857143,1.160054701989523,17.989827932904763
13.48236821,0.7446081923761905,7.8166801445714285,3.556863495370475,21.19887400557143
13.49231421,1.2648063315190476,9.369316933333334,5.1281224126561895,22.728598824333332
13.50226021,1.5454606960428572,10.434571646761905,6.002773488037143,23.383380166190477
13.51220621,1.8817060572809523,11.387294077428571,6.606626892318094,23.75312754747619
13.52215121,2.331781581090476,12.382361487095238,7.0374675338228565,24.051485030619048
13.53209721,2.8249640803761906,13.386130611857144,7.405779805299047,24.319930245380952
13.54204321,3.2268327289476186,14.28397425047619,7.68201004115619,24.418033301571434
13.55198921,3.4643122624238094,15.036327246714285,7.850731685504761,24.30479367461905
13.56193521,3.5464138666333334,15.620792397666667,7.898467449147619,23.98719905995238
13.57188121,3.532820976680952,16.017479591766666,7.841608316671428,23.63724356661905
13.58182721,3.4710004538714285,16.205346481957143,7.764990648961903,23.480665604000002
13.59177321,3.381281278104762,16.204198228004763,7.720923678999999,23.506361809904764
13.60171921,3.2680492856904757,16.060533810290476,7.692738456761904,23.667347349190475
13.61166521,3.1418491922428573,15.834788044433335,7.672478731619047,23.900416678666666
13.62161121,3.026966586542857,15.57526021314762,7.661458567809523,24.157874529380955
13.63155721,2.914897654061905,15.244931343385716,7.698241689095237,24.462624873285716
13.64150321,2.793827538685714,14.75034973067143,7.764161875799999,24.901504726142857
13.65144821,2.663647050638095,13.780915289290476,7.7239796845476185,25.132026386190475
13.66139421,2.531042035495238,11.287619209766667,7.425901271690476,23.983527005714286
13.67134021,2.184209009495238,6.24777317262381,7.0499128590047615,21.089886505714286
13.68128621,1.4267262507809524,-0.005497078328570382,5.880625347814284,17.294656750476193
13.69123221,0.7522246567238094,-3.8752060040428566,3.6794062381952375,14.814104902857142
13.70117821,0.16602227019999996,-5.954136194995238,2.1176413335952375,13.812616776666667
13.71112421,-0.2352727525619048,-7.339606545471428,1.1148276164523803,13.51113572
13.72107021,-0.6437016290380952,-8.438004223566665,0.3124549758809517,13.336484910952382
13.73101621,-1.127779999657143,-9.452637252138095,-0.32714000740476257,13.121335510476191
13.74096221,-1.5928707834190479,-10.404653228042857,-0.8999018169761912,12.865910212380955
13.75090821,-1.9201617116333334,-11.216771757042856,-1.4034319806428577,12.750987919428573
13.76085421,-2.0652281526809526,-11.884135780042856,-1.8329611195476196,12.85537188052381
13.77080021,-2.0566493058190476,-12.40461329085238,-2.1381073682142864,13.166777296619049
13.78074521,-1.9713042998047616,-12.777303484095238,-2.3036715021666674,13.521451585714287
