Time (s),Linear Acceleration x (m/s^2),Linear Acceleration y (m/s^2),Linear Acceleration z (m/s^2),Absolute acceleration (m/s^2)
0.2056860833,0.1327005683971905,-0.1541658014682381,-1.112516532295238,1.1701001737285714
0.2156320833,0.13350977431623812,-0.1776656010734762,-1.2652086614190476,1.320643536452381
0.2255780833,0.1274446663495714,-0.22910313950538094,-1.4073428908761905,1.4702852012190477
0.2355240833,0.1257387133389524,-0.3150245208901429,-1.5309305040809524,1.6157672352809522
0.2454700833,0.10691988134371429,-0.422179495103381,-1.6304509776666665,1.7510147417857143
0.2554160833,0.0781009949532381,-0.5556381689152856,-1.6986266999190476,1.8811216598952383
0.2653620833,0.09906177341990477,-0.7519707136038571,-1.7748843044523808,2.0705167558333337
0.2753080833,0.15325411611990478,-1.0031113824281428,-1.8449184110999999,2.309477417361905
0.2852548333,0.19268112557228573,-1.3022832802900477,-1.9105135900238093,2.581819279447619
0.2952008333,0.10791801495800002,-1.5946717258138572,-1.983590448452381,2.851405822638095
0.3051468333,-0.06820555700866668,-1.9259320433119522,-2.114845292785714,3.2113824209714283
0.3150928333,-0.28713575947057146,-2.3063524018000003,-2.3132075452523813,3.664353011185714
0.3250388333,-0.5470483376943809,-2.7054813931714286,-2.580842290566667,4.191086581742857
0.3349848333,-0.8400016312324762,-3.1460853046952377,-2.945232500395238,4.821459988066667
0.3449308333,-1.1429387809562859,-3.6431555900428574,-3.3755357271285713,5.538845544933333
0.3548768333,-1.3802269295216192,-4.134343332433334,-3.8119024607952374,6.234754804590476
0.3648228333,-1.539901177088762,-4.603334598828571,-4.204756777180953,6.865233140095238
0.3747688333,-1.607913525384762,-5.052037669733333,-4.52072079247619,7.412343429190476
0.3847148333,-1.5732506532371429,-5.4612477203,-4.7544996023333335,7.862543158190476
0.3946608333,-1.4593640232657141,-5.84015520922381,-4.933499022904762,8.255938506333333
0.4046068333,-1.3142249932085714,-6.200949235252381,-5.036477818238096,8.591263099285715
0.4145528333,-1.176668646332381,-6.522652431928572,-5.0310749630952385,8.828937711380954
0.4244988333,-1.034769391418095,-6.808114690428572,-4.93552321752381,8.994005562571427
0.4344448333,-0.9106933408085714,-7.030769061095238,-4.778811407838095,9.109532299285714
0.4443908333,-0.7672355105428572,-7.140006535095237,-4.572247850690475,9.173724444095237
0.4543368333,-0.5955655191047619,-7.120153191428572,-4.340970173404762,9.204069089809524
0.4642828333,-0.42112081501904763,-6.961044435780952,-4.117087636880952,9.228142013666666
0.4742288333,-0.2542816121523809,-6.596691926590477,-3.848760135738095,9.295053464333334
0.4841748333,-0.09551210981904758,-6.038261252780952,-3.5161129004047615,9.456532293428571
0.4941208333,0.10875598356190481,-5.2365924221619045,-3.0847905875476185,9.792727067571429
0.5040668333,0.49774448294285717,-4.2967548046857145,-2.598618885928571,10.280455206904762
0.5140128333,1.011867629561905,-3.2155224912095237,-2.036142328690476,10.783159480809523
0.5239588333,1.6071617403714287,-1.9628734539714283,-1.3748951893571426,11.330761949857143
0.5339048333,2.298942482942857,-0.6401837670666666,-0.636669344595238,11.87942294747619
0.5438508333,3.0319401929904766,0.6040899967428572,0.19677996630952388,12.228797872238095
0.5537968333,3.843246265466667,1.830828267219048,1.1180432352619047,12.471170045095237
0.5637428333,4.877034939657143,3.0041337896,2.0629006043095237,12.878315276523809
0.5736888333,6.231760518990476,4.095661156742858,3.0357120912142856,13.644534779857143
0.5836348333,7.965008638514286,5.145693117504761,4.0794898980714285,14.934279862714286
0.5935808333,9.992853376619047,6.1345069023142855,5.18837519797619,16.70388886461905
0.6035268333,12.076628709476191,6.979437360409524,6.371707080690475,18.639137878904762
0.6134728333,14.127383423285712,7.650408029552381,7.575960189357143,20.597562805571428
0.6234188333,16.35165345404762,8.112269375219048,8.654967470404761,22.737674420714285
0.6333648333,18.826798133333334,8.383689607980951,9.548552582261905,25.119157624666666
0.6433108333,21.370096203809524,8.448079258123808,10.21277782157619,27.561767025666665
0.6532568333,23.71366886885714,8.277554917219046,10.631724892333333,29.87068405733333
0.6632028333,25.72809828457143,7.875289535028571,10.92009684361905,31.927959896952384
0.6731488333,27.42312073290476,7.266253531095238,11.178632792380952,33.710286401380955
0.6830948333,28.787321585666664,6.414566420238096,11.393327097809523,35.15762740790476
0.6930408333,29.825462286761905,5.327629284666667,11.476750325904764,36.23033139142857
0.7029868333,30.47918573033333,3.948629574666667,11.396644473857142,36.85994530476191
0.7129328333,30.736424906047617,2.307743711809524,11.232677548619048,37.210123330476186
0.7228788333,30.751356662238095,0.47469216942857156,10.977570824809524,37.44199560619048
0.7328248333,30.594284940761906,-1.5504463105714283,10.483645965809524,37.57687561809524
0.7427708333,30.22465548652381,-3.726878376761905,9.731064955999999,37.76476386714286
0.7527168333,29.69957148357143,-5.854135359142857,8.817832782095238,38.169512614285715
0.7626628333,28.98182102861905,-7.956088209619047,7.8522275711428575,38.667616627142856
0.7726088333,27.868488057857142,-10.025628885333333,6.931858285571428,39.038976172380956
0.7825548333,26.19544930261905,-12.03066831295238,6.028451605666667,39.1297883
0.7925008333,23.860700976904763,-14.02317242390476,5.0235215580000006,38.8391515047619
0.8024468333,20.949337108809523,-16.002754745333334,3.915068617952381,38.21818773
0.8123928333,17.760325389285715,-17.867523868952382,2.710999195095238,37.524884151904764
0.8223388333,14.522077440714286,-19.546034782666666,1.4467711676190478,36.846397488095235
0.8322848333,11.126023722619047,-21.03423840104762,0.24882675890476177,36.0408037952381
0.8422308333,7.504165237380952,-22.387489590666668,-0.8387865656190476,35.061504623809526
0.8521768333,3.7608581897619047,-23.583054989809522,-1.7771242889047618,34.12419392428571
0.8621228333,0.07329938738095214,-24.608341533809526,-2.5619704852380956,33.43522026714285
0.8720688333,-3.381971701190476,-25.47277407095238,-3.287139024095238,33.06541249761905
0.8820148333,-6.524428224047618,-26.18429852190476,-3.988336317666667,32.94060853285714
0.8919608333,-9.288821156904763,-26.714900040952383,-4.6215738182857145,32.9207295552381
0.9019068333,-11.575585783095239,-27.06633769380952,-5.1145503702857145,32.94147919714286
0.9118528333,-13.326942200714283,-27.247056864285717,-5.480324142714285,33.00975463428572
0.9217988333,-14.569219530238096,-27.24430588857143,-5.763450027809523,33.04486766
0.9317448333,-15.44494638204762,-27.090494323809523,-5.959763248809524,32.96153478904762
0.9416908333,-16.08182589057143,-26.81080729761905,-5.958039350428571,32.74957414857143
0.9516368333,-16.501669896380953,-26.379776844285715,-5.71489661452381,32.350514957142856
0.9615828333,-16.74648223509524,-25.839411699999996,-5.312054474142857,31.792087864761903
0.9715288333,-16.844550343857144,-25.215903270000002,-4.875391760238095,31.126626030952384
0.9814758333,-16.810032837666668,-24.53428677047619,-4.4911975600476195,30.39896189857143
0.9914208333,-16.59554655395238,-23.81770135952381,-4.179511284204762,29.61101037952381
1.001366833,-16.179471273619047,-23.067162336666666,-3.8840749775190475,28.72416099333333
1.011312833,-15.587298629238097,-22.291600794761905,-3.5802997060100004,27.736406254761906
1.021259833,-14.858003042190475,-21.48809373857143,-3.260278502681429,26.650154583809528
1.031205833,-14.07658760204762,-20.679735498095237,-2.945539228452857,25.526565477619048
1.041151833,-13.313792119142859,-19.861773067142856,-2.651924740167143,24.40362895809524
1.051097833,-12.595155003714286,-18.983995736190476,-2.3358293539623807,23.253386642380953
1.061043833,-11.814020313428571,-18.04132945852381,-1.9753657582957143,22.01196647
1.070989833,-10.88799760595238,-17.066386995761906,-1.570268284200476,20.65259292904762
1.080935833,-9.832511529571429,-16.08193924357143,-1.1337865413433332,19.200110882904763
1.090881833,-8.685154362666665,-15.106643441761905,-0.7205693452004761,17.704205274476188
1.100827833,-7.531662130333333,-14.160792101904763,-0.3697565789623809,16.262134351904763
1.110773833,-6.519484125042856,-13.230253144,-0.09338692181952377,14.944945812619048
1.120719833,-5.707278945695238,-12.336932702285713,0.10480364522809527,13.770593482952382
1.130665833,-5.084976880071428,-11.533299095619048,0.24174621541857147,12.771182568190476
1.140611833,-4.544341706019047,-10.81509555142857,0.30690734299666667,11.918474576142856
1.150557833,-3.8403887589238095,-10.156721803285715,0.2982139255204762,11.327639847523809
1.160503833,-2.726633647209524,-9.548633608666666,0.3289481230633334,11.226766065142858
1.170449833,-0.8005315750190478,-9.112480577047618,0.6168866843014286,12.025831392285715
1.180395833,2.3006297944095233,-8.806505722238095,1.2675969184919047,14.095139778952381
1.190341833,6.5653272146952375,-8.435778578428572,2.157070129110952,17.396191832285712
1.200287833,11.940450315266666,-8.237171884619048,2.976451428887143,21.844223027047615
1.210233833,17.900054466361905,-8.334746599857144,3.5341939412966665,26.91319297038095
1.220179833,23.187399051504762,-8.288673714619048,3.8029796692638094,31.31057829752381
1.230125833,27.28147522017143,-8.388217103666667,3.991338449506667,34.57461179990476
1.240071833,30.044898295266666,-8.766962256047618,4.13216730199238,36.64139549752381
1.250017833,31.949989734266666,-9.161156252714285,4.284703359182857,37.92569196990477
1.259963833,33.57128402788572,-9.464447430333333,4.37260666474,38.887079842761906
1.269909833,35.02068457664762,-9.721949841809524,4.362501276930476,39.677331330857136
1.279855833,36.14781034917142,-10.006628552666665,4.217583208978096,40.27502321657143
1.289801333,36.74319946331428,-10.395682234380953,3.9196154059304766,40.7038920317619
1.299747333,36.828669216885714,-10.858910074285713,3.520310295073333,41.190448397809526
1.309693333,36.78464394312381,-11.238891160809525,3.094282566359048,41.64547368895238
1.319639333,36.59276597440476,-11.64971277347619,2.5929893733590474,42.19039352680953
1.329585333,36.25656159939047,-12.104461468523809,2.1564068774542853,42.81263998314286
1.339531333,35.72784388614762,-12.586446201857143,1.892145195930476,43.52168558933333
1.349477333,34.88509132114285,-13.061879310809523,1.8258936809714288,44.3802341937619
1.359423333,33.66328100047619,-13.483842445142857,1.8639196244571428,45.128589939523806
1.369369333,31.867080170476193,-13.85250965642857,1.8518089514380953,45.516706764761906
1.379315333,29.197775994761905,-14.044151286142856,1.5824549576761904,45.05823360904762
1.389261333,25.332869359523805,-14.07499754857143,0.9417956417238096,43.338884003333334
1.399207333,20.31251548904762,-14.209857257142858,0.04233772567619038,40.404954624761906
1.409153333,14.198939114761904,-14.224772446190476,-0.7498274008190476,36.33902595238095
1.419099333,7.555489282380953,-13.968824502857144,-1.217280216247619,31.62554536809524
1.429045333,1.6928266800000007,-13.858463486666665,-1.3435779303904762,27.507303110476187
1.438991333,-2.876673618095238,-13.613543614904762,-1.3626096984857141,24.464904159523808
1.448937333,-6.068726335238095,-13.11187200252381,-1.3063134858190477,22.614570694761905
1.458883333,-8.374672056190477,-12.620766504,-1.2544261016285714,21.55667482904762
1.468829333,-10.377909093333333,-12.250090565285713,-1.1755769554380953,20.84008140095238
1.478775333,-12.221970107619049,-11.986647744666666,-1.061614562247619,20.345112926666665
1.488721333,-13.82222868047619,-11.74889043347619,-0.8550509772952379,20.133475154761907
1.498667333,-14.987597972428572,-11.449683563904763,-0.5304715630571429,20.18717069857143
1.508613333,-15.762959400047619,-11.138086611333334,-0.11469106586666668,20.300656107619048
1.518559333,-16.5068616662381,-10.967536807047619,0.3311428946571428,20.52557298714286
1.528505333,-17.114128535666666,-10.829445454,0.8465076000857144,20.705580080476192
1.538451333,-17.525059853333335,-10.674761986095238,1.2970582031809523,20.810762755238095
1.548397333,-17.65817143952381,-10.460309393380951,1.5692777224666667,20.74807431
1.558343333,-17.47753669190476,-10.20312657404762,1.6786441484238095,20.447561872380952
1.568289333,-17.11839157380952,-9.97040257395238,1.733793363614286,20.01926837142857
1.578235333,-16.594336486190475,-9.767012635,1.7773224489190473,19.467556579047617
1.588181333,-15.991110321285714,-9.57616402695238,1.8011245704428571,18.853167215238095
1.598127333,-15.371862924380954,-9.431817099523808,1.8163924370809523,18.244759613333333
1.608073333,-14.81385506009524,-9.28619987852381,1.8391456307809524,17.68787827190476
1.618019333,-14.351543673428571,-9.129643296809522,1.8128317107190475,17.20997559666667
1.627965333,-14.019744757714285,-8.98748801747619,1.703354229395238,16.85102085809524
1.637911333,-13.87205467104762,-8.870977567761903,1.501691105395238,16.657054555714286
1.647857333,-13.889345054857145,-8.760392073857142,1.2448920372523808,16.601462794285712
1.657803333,-13.982667507714284,-8.66524445442857,0.9424348395380953,16.613004372380953
1.667749333,-14.134748463428572,-8.57236558252381,0.5928557104904761,16.68056659666667
1.677695333,-14.340406621047618,-8.491299673333334,0.2420346328238095,16.81031902952381
1.687641333,-14.56303100390476,-8.415043990047618,-0.08095174927142856,16.965896482380952
1.697587333,-14.754265584380951,-8.349169425571429,-0.38303887393809527,17.105410944285715
1.707533333,-14.906211107238093,-8.31266397742857,-0.6437087501285714,17.22627855095238
1.717479333,-15.06892269104762,-8.300058382857141,-0.856840651652381,17.365646373333334
1.727425333,-15.247975460095239,-8.332184378095238,-1.0201034467952381,17.534760122380952
1.737371333,-15.362273769142856,-8.445605715904762,-1.0750444001761905,17.68673417047619
1.747317333,-15.41389126247619,-8.629472024761904,-0.9832596954619048,17.84423921904762
1.757263333,-15.383101885333334,-8.79313937747619,-0.8457862955095239,17.938056836666664
1.767209333,-15.086296439380952,-8.973913455857142,-0.714842912847619,17.886657011904763
1.777155333,-14.369128729000002,-9.072198217857144,-0.603627827,17.731010267142857
1.787101333,-13.102990137571428,-8.943520798333333,-0.5218790117333334,17.901879920952382
1.797047333,-11.072369085809523,-8.713198834523809,-0.39963946020952384,18.893833755238095
1.806993333,-8.160922660809522,-8.703524142904762,0.03323842781904762,20.843869323333333
1.816939333,-4.250012081761905,-9.301832911047619,1.0849850077857142,23.94928436047619
1.826885333,0.5557918534761905,-10.455069286095236,2.668210976247619,28.078360855714283
1.836831333,6.142793432047618,-11.913193351619048,4.300412282999999,32.90562177857142
1.846777333,11.992933971571428,-13.189565461333332,5.770421739809524,37.74547390047619
1.856723333,17.43904349395238,-14.312522113666665,6.821655491047618,41.954890679523814
1.866669333,21.657882203952383,-15.693471118333335,7.399318743047618,44.99184844285714
1.876615333,24.725855668238097,-17.157399742571425,7.69510565995238,46.9838321852381
1.886561333,27.355021214428575,-18.26827704952381,7.79379145394762,48.29544943952381
1.896507333,29.805839944904765,-19.019325448190475,7.864629469185714,49.18501326571428
1.906453333,31.922474207285713,-19.598533868619047,7.953417489804761,49.68315226714286
1.916400333,33.616514490142855,-20.100051726809525,7.950770900804762,49.83737173428571
1.926346333,35.00973613233333,-20.497228360619047,7.770797779566666,49.72814262238095
1.936292333,36.136235333904764,-20.78219180252381,7.498356970995238,49.46471622476191
1.946238333,36.83349088033333,-20.98078847252381,7.122852192661903,49.24848402761904
1.956184333,37.093973311285716,-21.13573161252381,6.686601526233334,49.196919153809525
1.966130333,37.05136665557143,-21.262487497761906,6.4100689197095235,49.29760706523809
1.976076333,36.66312545819047,-21.303047516809524,6.317640053661904,49.559220527142855
1.986022333,35.77856065114286,-21.346493387285715,6.267749256899999,49.936602263333334
1.995968333,34.217089833523815,-21.556114202904762,6.1586073222142845,50.0576727
2.005914333,31.757888144952382,-21.869413474999998,5.935006315214285,49.48293480142857
2.015860333,28.398324226857145,-22.003066457380953,5.404189785547619,47.98683495190476
2.025806333,24.123337099238093,-21.563148069285713,4.310712602023808,45.27497926857143
2.035752333,19.053686077809523,-20.612333557380953,2.6966611706904757,41.47918152190476
2.045698333,13.271129829238097,-19.412153284523807,1.0075303490714282,36.963315474285714
2.055644333,7.262062580666666,-18.468498381666667,-0.5142069465000003,32.44689592142857
2.065590333,1.6794038106666664,-17.73293157214286,-1.5844681639761908,28.565028407619053
2.075536333,-2.639586009333333,-16.74068647452381,-2.13108445854762,25.821731295238095
2.085482333,-5.7282904707619045,-15.662148836428571,-2.330560355014286,24.04891838
2.095428333,-8.278901347904762,-14.908712212142856,-2.3026161494428576,22.851631979047617
2.105374333,-10.570720196,-14.479277325000002,-2.251563389104762,21.990534691904763
2.115320333,-12.473308776,-14.19043918357143,-2.233217589914286,21.461385102380955
2.125266333,-13.922812375047622,-13.935540843571427,-2.1688496580095245,21.234602024761905
2.135212333,-15.019199223904764,-13.730036495476188,-1.9836492373904766,21.20335534
2.145158333,-15.829062621190477,-13.580880261190478,-1.769948735866667,21.289096437142856
2.155104333,-16.328159704285714,-13.446760225476194,-1.5744678242000005,21.39340651142857
2.165050333,-16.51797469190476,-13.262466178809523,-1.4790857314380956,21.36903322095238
2.174996333,-16.541121256666667,-13.12307930547619,-1.5917914813904768,21.308116831904762
2.184942333,-16.52596521809524,-13.068259486904761,-1.8816040682952384,21.281957017619046
2.194888333,-16.46066033952381,-13.08937578738095,-2.1761396252952387,21.267913179047618
2.204834333,-16.26138539238095,-13.170547670238095,-2.361046564419048,21.18326961761905
2.214780333,-15.905941227619047,-13.262036074285716,-2.4425931147523814,20.96488788
2.224726333,-15.501930312380951,-13.318395325714286,-2.4937864901809528,20.688641866190476
2.234672333,-15.139712342857143,-13.330381839047618,-2.5751688799428574,20.4277071852381
2.244618333,-14.838926502380952,-13.289253080952381,-2.6375733168,20.180144130952378
2.254564333,-14.580300868571427,-13.194628926666667,-2.6615091168,19.927912687142857
2.264510333,-14.316802387619047,-13.054761690476193,-2.6845026449904767,19.64408578095238
2.274456333,-14.057288199523809,-12.90013869952381,-2.725807870561905,19.353943013333335
2.284402333,-13.84899138809524,-12.745678706666668,-2.7912323908476195,19.10229632333333
2.294347708,-13.723028218095237,-12.596828420952383,-2.8765868707142865,18.916512174761902
2.304293708,-13.674588212857142,-12.461622028095238,-2.9709756294238097,18.79911758095238
2.314239708,-13.691424852380951,-12.336119507619049,-3.063478466190477,18.73923746809524
2.324185708,-13.755778361428574,-12.222360701904764,-3.162854673619048,18.72584873142857
2.334131708,-13.805972308095235,-12.133714685238095,-3.2395140932380957,18.71557352
2.344077708,-13.824130418571428,-12.057501074285714,-3.269685976571429,18.68346204047619
2.354023708,-13.839302439523811,-11.975920721428572,-3.2641435957619054,18.641239886666668
2.363969708,-13.812218248095238,-11.904789399047619,-3.2291378470952385,18.570595260476193
2.373915708,-13.707624033809523,-11.88359675095238,-3.1433962258571433,18.46744497095238
2.383861708,-13.523936984285713,-11.85634583047619,-2.9976602786428574,18.295273550476193
2.393807708,-13.183451305714284,-11.82984340904762,-2.7506456001000004,18.022439774761907
2.403753708,-12.50901320977143,-11.673252300714285,-2.3333209646238102,17.575313371809525
2.413699708,-11.37278270977143,-11.167101658752381,-1.7249372768619051,17.394457745619047
2.423645708,-9.833770323580953,-10.373310141276189,-1.0219956751952386,17.758952342285713
2.433591708,-7.91602860072381,-9.523411220323808,-0.41004961305238147,18.53602171895238
2.443537708,-5.487075616914286,-8.680682656847617,-0.03974018329047666,19.79440030657143
2.453483708,-2.133562063104762,-7.876747500895238,0.3127854412333329,21.93261355752381
2.463429708,2.561043590704762,-6.917424677514286,1.3305947328523804,25.433093909904763
2.473375708,8.43764166784762,-5.858285539419048,3.154727907090476,30.214998264190474
2.483321708,14.654406084514287,-4.904594614704762,5.01294625537619,35.231112698000004
2.493267708,20.11586738689524,-4.1198027138,6.150217504042858,39.24320211895238
2.503213708,24.313266194990476,-3.5463508178666663,6.450356280757143,41.78925738847619
2.513159708,27.347861692133332,-3.012096894771428,6.01938198842381,43.15868627228571
2.523105708,29.36115504927619,-2.576911855390476,5.1392079115666665,43.769870342761905
2.533051708,30.770077634990475,-2.119096741295238,4.203556343280952,44.03421140657143
2.542997708,32.09128936832381,-1.4599717234380951,3.402981303995238,44.189941230857144
2.552943708,33.30999105832381,-0.8487204636857142,2.955100929328571,44.03673782514286
2.562889708,34.392725020514284,-0.2905626810380951,2.878674897138095,43.540000942619045
2.572835708,35.2136745158,0.1479283184380953,3.0497869041380947,42.82700709442857
2.582781708,35.55465820975238,0.3510647670095238,3.4250675531380947,42.52498367538095
2.592727708,35.43865635689524,0.45215377024761916,3.8260105178761896,42.61983983395238
2.602673708,34.92441498499048,0.4771634812,4.0187469135714275,43.004867023
2.612619708,33.94077941095238,0.2799866262,3.9365333281904755,43.70524013166666
2.622565708,32.40089122333333,-0.33372304671428565,3.5597899007380946,44.24305874976191
2.632511708,30.427769017142857,-1.296828768,3.017841615833333,44.29227406928571
2.642457708,28.088783353809525,-2.361148316571428,2.5574534413142853,43.946567822619045
2.652403708,25.26952482666667,-3.445173872904762,2.3488016555428564,43.11770069404762
2.662349708,21.57975221285714,-4.5141966712380945,2.1283715935619045,41.39228246642857
2.672295708,16.57190820952381,-5.736096788428571,1.1821515938952376,38.2903895297619
2.682241708,10.342129396666667,-7.011861121761905,-0.6240025059619052,33.91026484738096
2.692187708,3.7690872804761906,-8.12179031695238,-2.526298446676191,29.269809080714285
2.702133708,-2.0211198,-9.008885381190478,-3.759084519914287,25.59074016595238
2.712079708,-6.484348735714285,-9.635682205219048,-4.181979797723811,23.306987605952383
2.722025708,-9.70144736095238,-10.197141552123808,-3.877252042438096,22.120648502619048
2.731971708,-11.809492007619047,-10.617134467219048,-3.0788019649619054,21.590913667857144
2.741917708,-13.220646057619046,-11.019929732266668,-2.1484183760095243,21.298305337857144
2.751863708,-14.513692254285715,-11.595656748219048,-1.3051160334857148,21.065096040714288
2.761809708,-15.686906504761907,-12.103977354685714,-0.7997796370095245,21.11359393357143
2.771755708,-16.677661370285715,-12.552516801,-0.6522927549761912,21.464607975619046
2.781701708,-17.36210137890476,-12.858739911904763,-0.7459859282476197,21.983408212857142
2.791647708,-17.55897225714286,-12.894590444047621,-1.0485566733395244,22.063667495238096
2.801593708,-17.345180149476192,-12.82645551304762,-1.3947898037252386,21.780043435714287
2.811539708,-16.887863593761907,-12.679746477714286,-1.6125166422395243,21.299731554761905
2.821485708,-16.338139925190475,-12.459342421714288,-1.720558005615715,20.72009004904762
2.831431708,-15.78637736047619,-12.188184951619048,-1.7246787333919051,20.11419000809524
2.841377708,-15.30297657095238,-11.859513405380952,-1.6782342472609528,19.529057771904764
2.851323708,-14.905256146190476,-11.49224778552381,-1.6713025749752386,18.98994459333333
2.861269708,-14.575224314761906,-11.109426817857141,-1.7443670220133338,18.498189026190477
2.871215708,-14.320846265714286,-10.721409819380952,-1.8522315001752387,18.065953476190476
2.881161708,-14.11775949095238,-10.342036453428571,-1.9299725085085722,17.68273354
2.891107708,-13.899972091904763,-9.992359091380953,-1.9572211181752388,17.30796950761905
2.901053708,-13.65926628047619,-9.69179421957143,-1.917425636699048,16.9377501
2.910999708,-13.410963822380953,-9.426479927857141,-1.8085551589847624,16.57311890571429
2.920945708,-13.151169524761904,-9.201134863333333,-1.6520266160323818,16.21339402
2.930891708,-12.893844812857145,-9.019555205904762,-1.4631133283657147,15.87537414904762
2.940837708,-12.65704121047619,-8.885961976285714,-1.2712415374895243,15.584761011904762
2.950783708,-12.456211293809526,-8.791666658285713,-1.1049162874800007,15.35370775047619
2.960729708,-12.237129265714286,-8.717140553714286,-0.959845106008572,15.1273293
2.970675708,-11.848474363714287,-8.647962061809524,-0.8377677972990482,14.797639334285716
2.980621708,-11.164138964142857,-8.450964271047619,-0.7576627213895243,14.298555894190477
2.990567708,-10.10778070604762,-8.017275346371429,-0.7664295597133337,14.074204744190478
3.000513708,-8.684020504142858,-7.4900504968,-0.8436217163833338,14.337829356095236
3.010459708,-6.881283795619048,-6.999021749800001,-0.8007066609500005,15.067194581333332
3.020405708,-4.581457297047619,-6.527602002466667,-0.3832750214357148,16.404435951333333
3.030351708,-1.3181891408571431,-6.012630675466666,0.44694512265476144,18.787997652761902
3.040297708,3.133805539190475,-5.345827790276191,1.4735717928833327,22.334606952285714
3.050243708,8.31591522442857,-4.493604072228571,2.460465794038095,26.544515679428567
3.060189708,13.725311081571428,-3.6923138905142863,3.2519849443190467,30.878616350380952
3.070135708,18.791507512523808,-3.0051430648952384,3.6808795211285705,34.76303746038095
3.080081708,22.97748676395238,-2.4626851883238094,3.8679783934619043,37.652516618952376
3.090027708,26.1518110577619,-2.0559527109142857,4.062544243699999,39.391790834666665
3.099973708,28.529209308714286,-1.7326092936761905,4.325779794557143,40.23456579847619
3.109919708,30.351620700619048,-1.471545496152381,4.620964977271428,40.48907781133333
3.119865708,31.731390015857144,-1.2734364560095237,4.8531233287,40.3116851732381
3.129811708,32.748849727523805,-1.1201597167238095,4.9267936725666654,39.87007756142857
3.139757708,33.46311315369047,-0.9923066989142858,4.7805594068523805,39.42033381352381
3.149704708,33.91105600978572,-0.9178963412000001,4.454519855880952,39.17424111304762
3.159650708,34.13502288535714,-0.9020686523904764,4.082389432633333,39.10207828590476
3.169596708,34.148879783928564,-0.9411421976285717,3.753328009304761,39.18024790161904
3.179542708,33.83914586573809,-1.0831175775809525,3.500688166595237,39.51758901780953
3.189488708,33.05533674283333,-1.4003100927714287,3.3762779302238086,40.171835033142855
3.199434708,31.764295583785714,-1.9441974536380955,3.3872533106285707,40.65026100552381
3.209380708,30.02680675711905,-2.6158497829714284,3.4672563839652377,40.72401952933334
3.219326708,27.86518190140476,-3.2790175518285714,3.4077892471223796,40.38376866742857
3.229272708,25.164010066166664,-3.947603462114286,2.945816929641428,39.48394587266667
3.239218708,21.48328381854762,-4.676520511780953,2.0429277564985706,37.56251461980952
3.249164708,16.633676552833332,-5.555027993257143,0.9120783932604754,34.46533677552381
3.259110708,11.086342093309524,-6.629766444685714,-0.203605158215715,30.69015222742857
3.269056708,5.329561483785715,-7.6534878281619045,-1.125538685168096,26.779838593142856
3.279002708,-0.08651930049999988,-8.562386880971427,-1.650324452310953,23.318816162666668
3.288948875,-4.598683861928571,-9.312177502209524,-1.899619294358572,20.820749577904763
3.298894875,-8.042260964785715,-9.896664778428573,-2.1293751641204772,19.405496206
3.308840875,-10.628850762404763,-10.367956729142858,-2.4097774718823817,18.81788844647619
3.318786875,-12.592494742880953,-10.74643400895238,-2.7259817799300006,18.746344661238094
3.328732875,-14.038774744309524,-11.062705309380952,-2.9944451592157146,19.046542361238096
3.338678875,-15.096283539785716,-11.328707790333333,-3.0929354299395246,19.585038550190475
3.348624875,-15.85073426642857,-11.573693401285713,-2.9450236746109533,20.134340783333332
3.358570875,-16.36619336252381,-11.799470073857142,-2.588806587968096,20.52515073047619
3.368516875,-16.680673744285713,-11.997744701619048,-2.1602927484919054,20.784814494285715
3.378462875,-16.839594717142855,-12.171241001428571,-1.7586988424919054,20.962274257619047
3.388408875,-16.862926555714285,-12.288123334285714,-1.4150343391585722,21.044306284285717
3.398354875,-16.715782766190475,-12.404013811904761,-1.1723928488728579,21.03010330095238
3.408300875,-16.448996758095237,-12.537478848095237,-1.0008801405871435,20.94155516380952
3.418246875,-16.123267864761907,-12.657596472857144,-0.8595923860666674,20.803152395714285
3.428192875,-15.799117719523808,-12.78375104142857,-0.7369567204619054,20.668084184761906
3.438138875,-15.496787935238094,-12.91095760761905,-0.6042017590285721,20.544868672380954
3.448084875,-15.202216626666665,-13.05856071,-0.4221852865523816,20.44260899238095
3.458030875,-14.920809516666665,-13.251950239523808,-0.19785247264761976,20.379929458095237
3.467976875,-14.658974485238096,-13.481272970000001,0.05845939016190407,20.35369909047619
3.477922875,-14.385198492857144,-13.734631821904761,0.3555114495904755,20.33473832047619
3.487868875,-14.053025355714286,-13.989184786666666,0.6833140718285706,20.278398091904762
3.497814875,-13.653989418571431,-14.20844122857143,1.0097069582095233,20.150114019999997
3.507760875,-13.18279238047619,-14.385652681904762,1.3221708302095232,19.942969805714284
3.517706875,-12.640986927666667,-14.526476912380954,1.6267599923523801,19.66963497904762
3.527652875,-12.039639807285713,-14.65867867190476,1.9142672936380944,19.37476685238095
3.537598875,-11.290947641190476,-14.744727077142857,2.1725742821142853,19.03191012904762
3.547544875,-10.259688305428572,-14.702652017142855,2.3958261964476186,18.66791634666667
3.557490875,-8.937298274476191,-14.520322635333333,2.605304684547618,18.473731893333333
3.567436875,-7.4606130863809526,-14.225411993238097,2.833155917761904,18.413510252380952
3.577382875,-6.0253086430476195,-13.900039835761905,3.0284886720952375,18.343967442857142
3.587328875,-4.756116468761905,-13.61572058947619,2.9921663461904755,18.14696293238095
3.597274875,-3.695294139809524,-13.379314764714284,2.5956118003809516,17.906930142857142
3.607220875,-2.7927737865238096,-13.110453858476191,1.8841403083809516,17.77084176047619
3.617166875,-1.717096884619048,-12.791384386761907,1.0295149998571422,17.84802811857143
3.627112875,-0.023371237476190743,-12.36002974704762,0.2252274239047613,18.38038788904762
3.637058875,2.465546335380952,-11.79830180042857,-0.45901764995238153,19.58803531857143
3.647004875,5.411018849666666,-11.186031760714286,-0.9399195484761911,21.140574625238095
3.656950875,8.270207344428572,-10.489779213714284,-1.215923817333334,22.51937240095238
3.666896875,10.856597668238095,-9.673153664885714,-1.3074265887904768,23.55699945761905
3.676842875,13.546531655857144,-8.617094839838094,-1.3027595083142864,24.653854860952386
3.686788875,16.588486569666664,-7.335252464980952,-1.388232060219048,26.103430473333333
3.696734875,19.912658516809522,-5.808177364504762,-1.535526708080953,27.917937126190477
3.706680875,23.248228636333334,-4.145009210695238,-2.0048167185095247,29.903971569523804
3.716626875,26.27468731538095,-2.527452402123809,-2.762993262985715,31.786016168095237
3.726572875,28.68481126257143,-1.0958116573619046,-3.5840410329857146,33.23154982428572
3.736518875,30.38814424695238,0.10306635692380947,-4.398339584938095,34.14768456142857
3.746464875,31.68700059942857,1.1607354774476188,-5.038674240985715,34.91354507428572
3.756410875,32.473224567,1.993488468590476,-5.306755643985714,35.456273041904765
3.766356875,32.750343162238096,2.6164394639238093,-5.39412188627143,35.64982368285714
3.776302875,32.58438938128571,3.0987604399238093,-5.43534553622381,35.4599903795238
3.786248875,32.233273046904756,3.4425049944476185,-5.556356671271429,35.04466475895238
3.796194875,31.8570756102381,3.7814329590428564,-5.572465611176192,34.578267167523805
3.806140875,31.472742608285714,4.095269005471429,-5.3625187088904775,34.045774963238095
3.816086875,31.00821793942857,4.309901692328571,-4.984752881795239,33.576787613
3.826032875,30.169344472714286,4.397972176042857,-4.59873546422381,33.13018861919048
3.835978875,28.56535526442857,4.3021000309,-4.345105134414287,32.41280289823809
3.845924875,26.073115359190474,4.018948779995237,-4.217081906890477,31.127468677285712
3.855870875,23.038406147761904,3.6257744679,-4.224297287509525,29.562983976809527
3.865816875,19.95746595347619,3.1141234194714285,-4.305516184890477,28.233393408238094
3.875762875,17.06468988252381,2.457002563023809,-4.458718956909524,27.300274438714286
3.885708875,14.051533897761905,1.5437736189285713,-4.60327081512381,26.321695290142856
3.895654875,10.739583299666666,0.4000995574047617,-4.544415512838095,24.95034224252381
3.905600875,7.234067031571429,-1.0076068073571431,-4.309752214214287,23.174386736333332
3.915546875,3.7805144672857134,-2.607860201642857,-3.643878757880953,21.25448975490476
3.925492875,0.633597354428571,-4.22531972402381,-2.6193942848333345,19.511675413
3.935438875,-1.9891978450952383,-5.742557858785714,-1.518292241690477,18.325682295857145
3.945384875,-4.123212760809524,-7.083398695452381,-0.4810336071666675,17.80163488490476
3.955330875,-6.186808155095238,-8.3824341955,0.26591711864285644,17.61329897490476
3.965276875,-8.163614329857143,-9.61874703092857,0.5050425667857136,17.78604194442857
3.975222875,-10.014088904619049,-10.763902776642858,0.44239449591904695,18.196167838714285
3.985168875,-11.60338578652381,-11.832197206642856,0.2147360432857136,18.847005716333335
3.995114875,-12.97618388404762,-12.722837075785714,0.06606942283571361,19.692321570238093
4.005060875,-14.16667860595238,-13.491525478571429,0.03891395098809457,20.668792378809524
4.015006875,-15.160445873428571,-14.107166117857142,0.1349493935214279,21.710884146428572
4.024952875,-15.936271180238096,-14.571864755238096,0.390577577616666,22.538852289999998
4.034898875,-16.508508605904765,-14.921166336380953,0.803735431569047,23.101063885714286
4.044844875,-16.908378133333333,-15.161352469523809,1.3192852222357137,23.431962076666668
4.054790875,-17.147303383809522,-15.295114906190477,1.8931470044261896,23.576881626190477
4.064736875,-17.190528285238095,-15.319346269047617,2.4584798151404756,23.552819138095238
4.074682875,-16.99740382952381,-15.233586939047619,2.90885007342619,23.34686469
4.084628875,-16.630621857619047,-15.027485340047617,3.258889628949999,22.962975356666664
4.094574875,-16.183970595619048,-14.717838433714286,3.51797735992619,22.467410113809525
4.104520875,-15.790757120714286,-14.33087847242857,3.65392261792619,21.96483450904762
4.114466875,-15.541845104047619,-13.88000290342857,3.6543567041166662,21.511466086190474
4.124412875,-15.438346045476191,-13.39336640390476,3.5555290699261897,21.10993813238095
4.134358875,-15.384627842619048,-12.870174615476193,3.3895082127357137,20.692003319047622
4.144304875,-15.185068860000001,-12.257991713333332,3.1789526501166665,20.093264287619046
4.154250875,-14.655559350142859,-11.552347974190477,2.9877920651642853,19.218026976285714
4.164196875,-13.833501334107144,-10.703206212161904,2.9460042006404756,18.176571896380953
4.174142875,-12.733162742250002,-9.685134143733332,3.087312148878571,17.199600693238096
4.184088875,-11.302674121440477,-8.5545728534,3.2598065141738086,16.421990290380954
4.194034875,-9.539487004773811,-7.272983440209523,3.375904609807142,15.98764563895238
4.203980875,-7.290482695250001,-5.9346996744952385,3.5143310293047616,16.093173477047618
4.213926875,-4.398916051440476,-4.571297384019047,3.6645929441999994,16.904883901333335
4.223872875,-0.8177147600119051,-3.1572655011619046,3.752366890571428,18.465522765142858
4.233818875,3.2420843618928563,-1.7309520711619046,3.76881666747619,20.57310445704762
4.243764875,7.581573294749998,-0.3322318187809524,3.7453542969999996,23.053688133238097
4.253710875,11.913736613321428,0.9358997264571429,3.5983092347571426,25.637703533238096
4.263656875,15.945349482845236,1.9367524269333334,3.3368935879952373,28.026053236095237
4.273602875,19.383027691892853,2.607467530838095,2.993685529423809,29.950854187047618
4.283548875,22.154722182845234,3.0499179722952383,2.6809570848047617,31.366910158000003
4.293494625,24.516042873797616,3.33284084767619,2.507146288471428,32.52478270895239
4.303440625,26.65711376417857,3.5286768245333335,2.4535160163285705,33.57661666752381
4.313386625,28.582229967845233,3.61629707267619,2.3821630841380945,34.44747048276191
4.323332625,30.189219298797617,3.578685136438095,2.1749131752428563,34.991595359904764
4.333278625,31.40830913260714,3.437439210438095,1.7704467619095234,35.16834722704762
4.343224625,32.23771055546428,3.167309736771429,1.1786237810999995,35.24100714942857
4.353170625,32.62722641801667,2.7445973931999994,0.4707952158142852,35.547794508
4.363116625,32.54834341363571,2.163104966914286,-0.281015423280953,36.23245899933333
4.373062625,32.07454700998095,1.418284047742857,-1.0485634536142865,37.13145223447619
4.383008625,31.235312992885714,0.5006537793142856,-1.7980200316619055,37.9777522547619
4.392954625,29.953839048266666,-0.5597898172095239,-2.43485240042381,38.683568142380956
4.402900625,28.18500374398095,-1.7706578256380952,-2.9155185378047626,39.133416157619045
4.412846625,25.805362946838095,-3.0689438518285717,-3.3714351028523817,39.14381431047619
4.422792625,22.68739111064762,-4.432016248019047,-3.7729314926142865,38.531921181904764
4.432738625,18.866473579695235,-5.869296493257143,-3.9941615024714294,37.18260448095238
4.442684625,14.609257198742858,-7.321371196114285,-4.042844703038096,35.25064188904762
4.452630625,10.145101841599999,-8.745751648019047,-3.9595469951809528,32.89306994095238
4.462576625,5.773526507790476,-10.033744959447619,-3.7084338917952393,30.36801041142857
4.472522625,1.7614100373142851,-11.04497229135238,-3.374651823271429,27.983723537619046
4.482468625,-1.6624427364952388,-11.716456610495237,-3.04293170574762,26.046542825238095
4.492414625,-4.489910977447619,-12.166044274809522,-2.856643006938096,24.654070660952385
4.502360625,-6.989413236019048,-12.49166660952381,-2.92123427462381,23.592584978571427
4.512306625,-9.351228156019047,-12.780133480666667,-3.1862493559571434,22.729745727619047
4.522252625,-11.531444094590476,-13.003680470571428,-3.4823209765761916,22.105201967142857
4.532198625,-13.360786776019049,-13.134499474571427,-3.672981833442858,21.803547037142856
4.542144625,-14.731712929352382,-13.17484481709524,-3.6914830641571434,21.81879325904762
4.552090625,-15.680845169828572,-13.122252453714287,-3.519714171252381,21.930684346666666
4.562036625,-16.275691161190476,-12.977580671809525,-3.162484489442858,21.91005902
4.571982625,-16.56872417857143,-12.73270866385714,-2.6508797943476194,21.67459860047619
4.581928625,-16.57058949619048,-12.421302748190477,-2.0939069461619053,21.258562177142856
4.591874625,-16.32626993852381,-12.070398668047618,-1.5587424825142864,20.710179347142855
4.601820625,-15.867716696904763,-11.689512710952382,-1.0387758443714292,20.038011256190476
4.611766625,-15.217029322666669,-11.318747476619047,-0.5369763173238101,19.267205186666665
4.621712625,-14.451585496380952,-10.951052448428571,-0.06591334756190534,18.43386994904762
4.631658625,-13.641963422095241,-10.585725932095238,0.3286904000571423,17.583348769047618
4.641604625,-12.872415797190476,-10.258493580380952,0.5850760421999994,16.796354899523813
4.651550625,-12.20957913404762,-9.989735056,0.6953146082428565,16.12416566857143
4.661496625,-11.705253776904764,-9.752881112095238,0.6664195061952375,15.580632055714286
4.671442625,-11.38790316404762,-9.548210243142858,0.550724464671428,15.189574011904762
4.681388625,-11.229227718333334,-9.38087211942857,0.4100873938619042,14.942538720952381
4.691334625,-11.139747665952381,-9.222636718571428,0.270056943871428,14.761320600952379
4.701280625,-11.014941409285715,-9.058948259857143,0.18902678625714225,14.560768672380954
4.711226625,-10.818564676190476,-8.874836730047619,0.2109894224761899,14.29524408
4.721172625,-10.51995812052381,-8.652435933619048,0.32177711862857084,13.921408795952381
4.731118625,-10.136118428761906,-8.406668090285715,0.4909356683142851,13.459392792380951
4.741064625,-9.719435427857144,-8.131388806619047,0.7024982258857136,12.950297480666666
4.751011625,-9.300787511809524,-7.829808231809524,0.9397304012666661,12.423050770142858
4.760956625,-8.901392249238096,-7.501452323761906,1.1710745418857136,11.894682834047618
4.770903625,-8.51165970552381,-7.154308546095239,1.3599288040761899,11.368850607809524
4.780848625,-8.048366683142858,-6.802086141428571,1.519854050314285,10.810637209380953
4.790794625,-7.370757865047619,-6.393797880047619,1.6788282643190469,10.387128759809523
4.800740625,-6.350575884619047,-5.891864277714286,1.7974755093380947,10.396043031238095
4.810686625,-4.863966969095238,-5.3222621085714295,1.9206107359571425,10.957732162190476
4.820633625,-2.558554597619048,-4.629134083952382,2.0912036981476185,12.397359698380951
4.830578625,0.9100361418095231,-3.8001935610476196,2.192287577957142,15.006751311238093
4.840525625,5.43605971847619,-2.929427876714286,2.1965469682904755,18.622516528380952
4.850470625,10.519745366428571,-1.941864393666667,2.144592619528571,22.735784339809523
4.860417625,15.551753823761905,-1.0203139709047622,1.9274340746714278,26.714294107904763
4.870363625,19.975842277095236,-0.18853640676190492,1.7749441756857136,30.01669464742857
4.880309625,23.65237183852381,0.4742771459523808,1.8514419337333325,32.50592835885715
4.890255625,26.400563919,0.8877059347714285,1.9504728073999995,34.00596882361905
4.900201625,28.184456638999997,1.0332618991523808,1.9928306153428568,34.586206806
4.910147625,29.344313231380955,1.0932390176285711,1.8610191160999994,34.69628155409524
4.920093625,30.09150416638095,1.1134887886285711,1.4067547583761901,34.75539006790476
4.930039625,30.494710866704757,1.063528006247619,0.7256639511285708,35.00656210528572
4.939985625,30.756945764085714,0.9985016639142857,0.08189704196666617,35.26881018885714
4.949931625,30.943179248466663,1.058410662295238,-0.48461667665238145,35.45483083771428
4.959877625,30.930317629371434,0.9620859009142857,-0.8996232809380957,35.65784237538095
4.969823625,30.734324139657144,0.838485507390476,-1.1364933327000004,35.91608269528571
4.979769625,30.395681169276187,0.6561470900095236,-1.2443032925571433,36.29772082152381
4.989715625,29.88656307213333,0.40620287286666656,-1.3076562939904766,36.82937834280953
4.999661625,29.074679963085714,0.027255354914285556,-1.3737098110857149,37.34037995904762
5.009607625,27.811227582609522,-0.5529799551809526,-1.39588451332381,37.570918497142856
5.019553625,25.94577104927619,-1.2766493514190478,-1.418448612228572,37.40105807809524
5.029499625,23.15940929165714,-2.177227092752381,-1.4937926589428578,36.462085265714286
5.039445625,19.17822826689524,-3.2494083343238094,-1.511589300228572,34.39617369333333
5.049391625,14.166742283561902,-4.374280033085715,-1.471602336371429,31.305174109523808
5.059337625,8.64188140260952,-5.593504297371429,-1.43160309332381,27.663472762857147
5.069283625,3.2244617168952368,-6.721553205942858,-1.2772688154666672,24.09713113047619
5.079229625,-1.5266042612000017,-7.758596273038096,-1.2131235789380956,21.16580678952381
5.089175625,-5.478044342152383,-8.62626719327619,-1.4053481205047622,19.012782813809526
5.099121625,-8.464702638819048,-9.236547898666666,-1.6461783104095242,17.82150197952381
5.109067625,-10.48460257024762,-9.601396391047619,-1.8298867721714291,17.56700449761905
5.119013625,-11.910441429295238,-9.906382481571429,-1.8375612148857146,17.824523925714285
5.128959625,-12.941105100723812,-10.194677806333333,-1.5243033466476195,18.15942372952381
5.138905625,-13.622811898142857,-10.44386286004762,-0.9627203274571433,18.312394745238095
5.148851625,-14.143286123476189,-10.70514363104762,-0.41207605643809575,18.453551859999997
5.158797625,-14.57361769542857,-11.139311964714286,0.0682905852476185,18.690073555238094
5.168743625,-14.803677063333334,-11.456796228190475,0.40490111899999937,18.935678575714284
5.178689625,-14.85656927761905,-11.77760872704762,0.5983172778761899,19.15429930952381
5.188635625,-14.863985551904765,-12.062140087809524,0.7122606293047614,19.336919422857143
5.198581625,-14.781621226666667,-12.290511615190475,0.7835209040238089,19.42763580095238
5.208527625,-14.657826872380951,-12.46849451142857,0.8311326370714279,19.46353646
5.218473625,-14.518167296190478,-12.562891180952382,0.8284018829761899,19.429174853809524
5.228419625,-14.323815704285716,-12.60761681190476,0.7672972264523804,19.311138581428573
5.238365625,-14.071627075238094,-12.630468398571427,0.6508999343571423,19.126858538095238
5.248311625,-13.805722604285714,-12.651365567619047,0.483017964119047,18.926140735714288
5.258257625,-13.588886073809524,-12.686645996190478,0.31241405932857086,18.77227469761905
5.268203625,-13.452277073333335,-12.749548448571428,0.19439843194761847,18.70162627142857
5.278149625,-13.400882163809523,-12.836354652857143,0.1510245693761899,18.715686068095238
5.288095625,-13.402932642857143,-12.928673723809522,0.17623612049999943,18.77721230952381
5.298042458,-13.408458985714287,-13.045787884285714,0.27812894173333275,18.859322007142858
5.307988458,-13.43443270761905,-13.206327868095238,0.4451744816857137,18.982499673333333
5.317934458,-13.50896220952381,-13.395335884285714,0.6582118810666662,19.156465678095238
5.327880458,-13.60889919952381,-13.631722998095237,0.8927575741142852,19.378346386190476
5.337826458,-13.670633768095238,-13.906052582857141,1.0701733528761899,19.599054095238095
5.347772458,-13.513498534761906,-14.187214610952383,1.0789864503047613,19.706636281428572
5.357718458,-12.821612096666668,-14.351165637142856,0.8237253599999994,19.673774133333335
5.367664458,-11.443103050952383,-14.224103914714286,0.3587841745047613,19.96197446142857
5.377610458,-9.54978464666667,-13.931760256095236,0.06655336713333274,20.655309036190477
5.387556458,-7.363289856666667,-13.431957622619047,0.19614793982857087,21.608279120952382
5.397502458,-4.470774237619049,-12.780199484190476,0.7780463056857136,23.235886071904766
5.407448458,-0.10823090285714375,-11.885464893571429,1.657562097733333,26.442102907619045
5.417394458,5.586822266190475,-10.49137162595238,2.4144020243523805,30.989790531904767
5.427340458,11.612345249523807,-8.961857568333333,2.5749335363523804,35.7595379104762
5.437286458,17.177981604761904,-7.448040388809525,1.8248948682095234,40.03470800142858
5.447232458,21.615349474761906,-6.123656791666669,0.7339004886857139,43.203967397619046
5.457178458,25.155640136666666,-5.030455450285714,0.0719271807333329,45.346386153333334
5.467124458,28.14726711904762,-4.1316659827619056,-0.11061904947619088,46.772124339047615
5.477070458,30.592220758095237,-3.446218314447619,-0.04798552004761944,47.509040399999996
5.487016458,32.40676079523809,-2.8906549065904765,-0.01996494219047659,47.499776606666664
5.496962458,33.89135320095238,-2.390249118876191,-0.1805436844285718,47.120458881428576
5.506908458,35.221983462857146,-1.8760354798285719,-0.49826539366666706,46.64071485
5.516854458,36.40392963885714,-1.4171605854000004,-0.8368273103333337,46.04388997619048
5.526800458,37.39086663452381,-1.0580845755904766,-1.1004127474285719,45.340278927
5.536746458,38.150470289380955,-0.8226780122571433,-1.271688782714286,44.732300820333336
5.546692458,38.647869341047624,-0.6828728122571432,-1.3185246250752385,44.33157740033333
5.556638458,38.729134556714286,-0.6355982965428575,-1.2155598421609528,44.247110023666664
5.566584458,38.084703118619046,-0.790784179876191,-0.8851396720847624,44.494162370333335
5.576530458,36.56647246052381,-1.2613549532571435,-0.3685612518133337,44.55724472604762
5.586476458,34.362782122904754,-1.8741479704476196,-0.0840979135561909,44.309882011285715
5.596422458,31.728419237190472,-2.70512559392381,-0.30695724308000044,43.9078464722381
5.606368458,28.322654574809523,-3.66374973092381,-1.0698144836514292,42.868362156047624
5.616314458,23.322453439095238,-4.800179537733334,-2.194220827889524,40.302719067000005
5.626260458,16.989035791476187,-6.376645122495239,-3.2288940741276195,36.355145604619054
5.636206458,10.44513943195238,-8.030886582971428,-3.6547665592704766,32.056530171285715
5.646152458,4.532998636238093,-9.608140316780952,-3.1198408293657147,28.076251154619047
5.656098458,-0.07978509090476342,-10.932051904400002,-2.178238744556191,25.026584469380953
5.666044458,-3.6599743123333353,-11.965119477685716,-1.6062033539133336,22.86495136795238
5.675990458,-6.557713277095239,-12.757106822828572,-1.4742404709466668,21.29621128652381
5.685936458,-8.783299655666667,-13.300107853523812,-1.574997961287143,20.30548360747619
5.695882458,-10.278141729333335,-13.688782371380952,-1.658749966487143,19.972495042714286
5.705828458,-11.39943370709524,-14.023374599571431,-1.5871106059728572,19.977298917000002
5.715774458,-12.386715688428572,-14.360185386714285,-1.3867685698157146,20.08804287747619
5.725720458,-13.230297026809524,-14.619204788761905,-1.180584775439524,20.302700892714284
5.735666458,-13.863173531523811,-14.762748754285715,-1.0592744021633336,20.599903055714286
5.745612458,-14.281392234,-14.752140345714286,-1.0339046142585717,20.78906802761905
5.755558458,-14.53029614804762,-14.626673910952382,-1.0868397638500003,20.826757111904765
5.765504458,-14.649508568000002,-14.40841572761905,-1.1693746606690478,20.72365116619048
5.775450458,-14.635753578000003,-14.111685292857143,-1.263185300316667,20.482735339047622
5.785396458,-14.462286959904763,-13.784649073333334,-1.3478156443023812,20.12239774
5.795342458,-14.115785916571431,-13.472935288095238,-1.3698681953833336,19.660814332857143
5.805288458,-13.614601544238099,-13.149082237142858,-1.3064329221928574,19.08263056190476
5.815234458,-12.977302094285713,-12.848378089999999,-1.1750695145785717,18.41844463619048
5.825180458,-12.262085544095239,-12.61151584809524,-0.9917301513071431,17.728700494761906
5.835126458,-11.57983356347619,-12.415321102857144,-0.782185126769048,17.08419281666667
5.845072458,-11.020759278238096,-12.263717223809525,-0.5872463633785716,16.560179018571425
5.855018458,-10.647395903476191,-12.162120292380953,-0.45616701903095264,16.212450120476188
5.864964458,-10.474904099666668,-12.118095937619048,-0.389295754011905,16.056616790952383
5.874910458,-10.458267379190477,-12.129399496190477,-0.3544358802928574,16.05280662666667
5.884856458,-10.55446822109524,-12.181529372857142,-0.32668738589761925,16.156720676190474
5.894802458,-10.743500962523811,-12.27412164761905,-0.300412619561905,16.353458553333333
5.904748458,-10.993071152666667,-12.39873956809524,-0.272002477914286,16.614866701904763
5.914694458,-11.256528758714287,-12.544888885714286,-0.2489574298466669,16.900708992857144
5.924640458,-11.497321220238096,-12.68818309142857,-0.22773398609904788,17.16878703238095
5.934586458,-11.651747076428572,-12.84471517047619,-0.17798114187047645,17.387126114761905
5.944532458,-11.64311647452381,-13.01588065857143,-0.07443263281333357,17.515969177142857
5.954478458,-11.237407472285716,-13.083812440476192,0.03595244075809499,17.383889798571428
5.964424458,-10.256882756142858,-12.954265038619047,0.07711093953428547,17.209432747619047
5.974370458,-8.745957999476193,-12.52418498047619,0.027014223343809266,17.404647539047616
5.984316458,-6.681095987095238,-11.856742270571429,0.08814797675809498,18.160598885714286
5.994262458,-3.8468490970952383,-10.911270916476191,0.45176451642476173,19.773276455238097
6.004208458,-0.08098493947619206,-9.65842677695238,1.1089313574390474,22.456323854761905
6.014154458,4.605591568190475,-7.9855344807619035,1.8550136325342856,26.179698320000004
6.024100458,9.48287682395238,-6.097624806476191,2.206101565967619,30.104502105238094
6.034046458,13.806918582333331,-4.4658161055238095,1.988756439267619,33.407599951428566
6.043992458,17.62281967552381,-3.0510288736190483,1.4280012743009523,36.17214763238095
6.053938458,21.106337883142857,-1.7882796069523812,0.8666739731485713,38.53034341238096
6.063884458,24.22434819980952,-0.7311762185714288,0.5855847288961904,40.37383213571429
6.073830458,26.742578143142858,0.06003567433333317,0.6201935308342855,41.48470652809524
6.083776458,28.61521945695238,0.6555935883619045,0.8732449592342856,41.89977047428571
6.093722458,30.063051197428567,1.163579455695238,1.1707364508247617,41.876690362380955
6.103668458,31.242744274571425,1.601093064933333,1.3658528860199997,41.524478921904766
6.113614458,32.223533757999995,1.9659666168380951,1.4392457725247618,40.971858266333335
6.123560458,33.015125692333335,2.2230752883142855,1.4437781512476189,40.41967507738095
6.133506458,33.60361383909524,2.3521705611714285,1.390236318247619,40.0116902797619
6.143452458,33.93590787457143,2.3577616130761903,1.2268795360714282,39.840590565
6.153398458,33.94045071552381,2.306142393552381,0.9313506763095237,39.909621709285716
6.163344458,33.43233235328571,2.1207733502190473,0.5328356982619046,40.352364370714284
6.173290458,32.211451378095234,1.7276818040761899,0.10616637339047594,40.961849825
6.183236458,30.282349573333335,1.0437889273619043,-0.3252942121809526,41.35429800119048
6.193182458,27.63296402142857,0.1509011936476187,-0.9335414091190477,41.31925477595238
6.203128458,24.10398861238095,-0.978382118066667,-1.8305128384047622,40.48130242928572
6.213074458,19.61672305428571,-2.353513700447619,-2.9518875126904764,38.526886581190475
6.223020458,14.292646425714285,-4.092995759019048,-4.059069017595239,35.38580445785714
6.232966458,8.929755924285713,-6.000736738542857,-4.652603506261904,31.854015895952383
6.242912458,4.2495724561904735,-7.6217096023523805,-4.571289410595238,28.802043746428573
6.252858458,0.19460302285714084,-8.982320487590476,-4.0637993173952385,26.16640074690476
6.262804458,-3.416434994761907,-10.146819157114285,-3.489522856014286,23.829406733095237
6.272750458,-6.558994317142859,-11.052527551590478,-3.1536200302047623,21.902312380714285
6.282696458,-9.009012759047621,-11.641522679733333,-3.125002194066667,20.607231653095237
6.292641875,-10.757249380476193,-11.989260837285716,-3.3282363466380955,19.935003608333332
6.302587875,-12.049685183809524,-12.221440475380954,-3.605576857361905,19.658520988809524
6.312533875,-13.041403141428573,-12.357025252476191,-3.8131831400952385,19.670061820238097
6.322479875,-13.818600873428574,-12.402200590000001,-3.931391092119048,19.860731655333332
6.332425875,-14.4171899182381,-12.326845071619047,-4.003353422519048,20.054368652857143
6.342371875,-14.837759173571431,-12.12705813109524,-4.044060624138095,20.131040164761902
6.352317875,-15.076100705238096,-11.783153390857143,-4.029455281852382,20.015004166190476
6.362263875,-15.120407564285719,-11.35895585461905,-3.9539438099,19.728607769523812
6.372209875,-15.01118903809524,-10.88893068209524,-3.7899858782333333,19.295438843333333
6.382155875,-14.68890437757143,-10.362740970809524,-3.5204676333761906,18.652802104761903
6.392101875,-14.196877775619049,-9.869872926238097,-3.127428182995238,17.87056992047619
6.402047875,-13.559244421809527,-9.406396273333334,-2.649627967947619,16.966978754285712
6.411993875,-12.816198494333335,-8.968190005714288,-2.1819804959952385,15.999243154285713
6.421939875,-12.065156722380955,-8.573141368476191,-1.7878835628047622,15.073727050952382
6.431885875,-11.420138446476193,-8.213265042095239,-1.4969278382333335,14.287540207142857
6.441831875,-10.959285355666669,-7.892782465809525,-1.3181803491380955,13.704388758571426
6.451777875,-10.645942535809526,-7.611537574285715,-1.2435646845523813,13.281777124761906
6.461723875,-10.451749376285717,-7.3939593387619045,-1.249596085757143,12.997174615714286
6.471669875,-10.364447216761906,-7.233723688714287,-1.308908099071429,12.830560202380953
6.481615875,-10.35219345771429,-7.116317946809525,-1.383612350761429,12.748302460952381
6.491561875,-10.388022187714288,-7.027015900238095,-1.4433395425138098,12.722016643809521
6.501507875,-10.432113646761907,-6.958423215809523,-1.4715909217995242,12.716541301904762
6.511453875,-10.450973645809526,-6.896278089,-1.460011680647143,12.697083982857144
6.521399875,-10.411083773523812,-6.835503131904762,-1.40788717791381,12.632852283333333
6.531345875,-10.261322129666668,-6.767954871571429,-1.3107888159852383,12.478396994523811
6.541291875,-10.006014623428573,-6.64103273052381,-1.1714800794614288,12.202935089047617
6.551237875,-9.627382155666668,-6.4157965913809525,-1.0025909959376196,11.76442927952381
6.561183875,-8.975759811523812,-6.079129276971429,-0.7823108662709527,11.223659784857144
6.571129875,-7.898617652952383,-5.647700349876191,-0.4784069559852384,11.106557952952382
6.581075875,-6.155071278190478,-5.112445170971428,-0.08922212936619084,11.706352412
6.591021875,-3.350911543000002,-4.545688034257143,0.5544988163004758,13.53355493247619
6.600967875,0.756896004095236,-3.5032619645428573,1.5983220640147617,16.75920701057143
6.610913875,5.54862702790476,-2.074862916019048,2.713964851824285,20.720059525333333
6.620859875,10.12212540138095,-0.8148184041142857,3.949743057014761,24.514000555809524
6.630805875,14.088418523714283,0.09049864436190455,5.372618491443333,27.78206804009524
6.640751875,17.41237874590476,0.7577828389333331,6.747950911776666,30.452010915809524
6.650697875,20.077466800809525,1.2785952280761903,7.92442523563381,32.40890897914286
6.660643875,22.072886055238094,1.6709450063142857,8.76968430733381,33.5773064367619
6.670589875,23.56463829333333,1.985885341190476,9.277598043433809,34.10394494533333
6.680535875,24.810442329047618,2.278502447661905,9.469316134319524,34.235561037714284
6.690481875,25.88452672809524,2.571639455123809,9.416613998009524,34.139667832
6.700427875,26.762054243761902,2.8416175556476184,9.177556085238095,33.91513546247619
6.710373875,27.394332661952383,3.005030735647619,8.77895025261905,33.71197512738095
6.720319875,27.721681150333332,3.025257368361905,8.226842646571429,33.72863572357143
6.730265875,27.71678630690476,2.837177110552381,7.581795413190476,34.07006401452381
6.740211875,27.34766909638095,2.539757901552381,6.994744400857142,34.67012519238095
6.750157875,26.751150606333333,2.1569782263619044,6.497674470714285,35.44983293880952
6.760103875,26.007664968571426,1.6631858205047616,6.069099256333333,36.392035855476195
6.770049875,25.00362837585714,1.0652848749047616,5.637163619238096,37.41163421823809
6.779995875,23.57761621633333,0.3944155020476189,5.123132134666666,37.994731093
6.789941875,21.47518489633333,-0.3548191741428573,4.496866269285714,37.86667835442857
6.799887875,18.264299912523807,-1.145979026904762,3.5892751549523805,36.566223461571425
6.809833875,13.807358571571426,-2.3702780616666668,2.2736203924761904,33.800948455857146
6.819779875,8.750966473476188,-3.948089730952381,0.9173420435238093,30.20448522919047
6.829725875,3.980413117761902,-5.3501102633809525,-0.5031638209523812,26.698092297761903
6.839671875,-0.12566521271428813,-6.397633657,-2.0524898880952387,23.653525157285713
6.849617875,-3.5515508684285737,-7.205663673571429,-3.520601638476191,21.16579185347619
6.859563875,-6.277013485571431,-7.859351198333333,-4.780630585714286,19.348166626809522
6.869509875,-8.317249476047621,-8.36751956138095,-5.707133182714286,18.29243565347619
6.879455875,-9.85825843604762,-8.77175283787619,-6.289724363761906,17.86358631204762
6.889401875,-11.152521410809527,-9.134018858680953,-6.548330924571429,17.815184494904763
6.899347875,-12.27506697604762,-9.491998285666668,-6.561054451904762,17.98962848252381
6.909293875,-13.203993967904765,-9.827750322857142,-6.387881329285715,18.29422568061905
6.919239875,-13.891855015619049,-10.054336709380951,-6.053844802504763,18.57816220190476
6.929185875,-14.283752309714286,-10.130190159952381,-5.5621282420952385,18.643887536190476
6.939131875,-14.372070993809526,-9.978619387619048,-4.967976036904763,18.396783688095237
6.949077875,-14.16429826,-9.702347914857144,-4.427093640457143,17.93523221047619
6.959023875,-13.787163375238098,-9.373887313809524,-3.972521827090477,17.358619160476188
6.968969875,-13.346131677476194,-9.011020526190476,-3.5743951877238103,16.73171293333333
6.978915875,-12.883337367000003,-8.639149416571428,-3.193443519176191,16.086165975714284
6.988861875,-12.406258447666668,-8.279665939761903,-2.7937144920904764,15.428509465714285
6.998807875,-11.916655571857145,-7.948431864999999,-2.362130112604762,14.761546667904762
7.008753875,-11.42170037761905,-7.642535404571428,-1.9172876449619052,14.093460264190474
7.018699875,-10.962588754809527,-7.3407603124285705,-1.4944696896142862,13.45879836485714
7.028645875,-10.56899529452381,-7.029205376190477,-1.1105557381142863,12.886420873142857
7.038591875,-10.263295342238097,-6.739238736,-0.789005762861905,12.415929015142856
7.048537875,-10.052325211904764,-6.449868163761905,-0.5517874746095242,12.046662251428572
7.058483875,-9.921627690619049,-6.146774315619048,-0.3792227477761908,11.758887658142857
7.068429875,-9.802057030904765,-5.858281521857143,-0.2574374100238099,11.494654933142856
7.078375875,-9.648848620619049,-5.581485024952381,-0.17048660895238127,11.212061502380951
7.088321875,-9.457789261904763,-5.294408760952381,-0.09860199085238129,10.898547262428572
7.098267875,-9.218615448761906,-4.990834967761905,-0.03058388933333367,10.541312256285714
7.108213875,-8.91921186209524,-4.692318354857143,0.03527355116047585,10.134385981904762
7.118159875,-8.572093491857144,-4.420605385476191,0.09086470448904728,9.695783103952381
7.128105875,-8.152372305380954,-4.165721760809524,0.12766766974714253,9.205121633380951
7.138051875,-7.560671169585716,-3.8893820915238098,0.15117807091380916,8.631193863333333
7.147997875,-6.781818452823812,-3.5325856885285716,0.17647368270428537,8.235033883285714
7.157943875,-5.906689492776193,-3.0861357377666665,0.19955794016142825,8.01683096795238
7.167889875,-4.984167735966669,-2.6852736317190478,0.24304716693761869,7.901985761666666
7.177835875,-3.8304900351571445,-2.361032879195238,0.3448412328566663,8.071010545952381
7.187781875,-2.1720452618238117,-2.009223705671429,0.5313730644995235,8.807105897857143
7.197727875,0.17083712550952157,-1.6114613199571433,0.9084486416042855,10.300715100238094
7.207673875,3.1874704496999975,-1.1377978428619049,1.6100871772614282,12.574770929476191
7.217619875,6.805783544985712,-0.655228958861905,2.627238072523333,15.55310686747619
7.227565875,10.840836081223808,-0.2860327415285717,3.7008544153661904,18.97056773252381
7.237511875,14.891514994747617,-0.08255874872380982,4.582136456151905,22.387064622809522
7.247457875,18.435276452461903,0.05154823512380924,5.2414625868042855,25.26145416652381
7.257403875,21.19451857355714,0.08300412526666635,5.7304665056947615,27.30790200595238
7.267349875,23.087373210366664,-0.0631686924952384,6.0601449982423805,28.444248742095233
7.277295875,24.065778338747617,-0.3540215338761908,6.200997291775714,28.76913809090476
7.287241875,24.649669710747617,-0.6112466760666669,6.213167181766191,28.831625581095235
7.297188583,25.165553286938092,-0.7902824328761908,6.118085385285236,28.823750362380956
7.307134583,25.596690187366665,-0.9738106333523812,5.896858205099523,28.858339237666666
7.317080583,25.808897504890474,-1.2571683675428573,5.529131379129524,29.08561116538095
7.327026583,25.771899442747614,-1.5446300883523814,5.130367925753333,29.444473451904763
7.336972583,25.450170128652378,-1.8708706825904764,4.742702318904762,30.00472718390476
7.346918583,24.777754027619046,-2.2338786454476196,4.407185353661904,30.757797499666665
7.356864583,23.793109836571425,-2.699391271014286,4.133766570442857,31.417247625904764
7.366810583,22.621142796999997,-3.294215265633334,3.9031880218238095,31.983089046
7.376756583,21.314481469714284,-3.8602966313000002,3.667826760538095,32.52615709085714
7.386702583,19.717497503999997,-4.3494149433,3.370824653014285,32.83875680561904
7.396648583,17.59628347971428,-4.866212578490477,3.003580834871428,32.60073430561905
7.406594583,14.715243940190472,-5.4480141556333335,2.503837355919047,31.67511872609524
7.416540583,11.147387999714283,-6.094666616823811,1.7465061237761899,29.97324200561905
7.426486583,7.039597771619045,-6.7402395149666665,0.730334334333333,27.506332251809518
7.436432583,2.558531152571425,-7.263452297538096,-0.28713712733333374,24.559877099428572
7.446378583,-1.8832743645714318,-7.628698560628573,-1.0911797882380956,21.570867657047618
7.456324583,-5.7508218250476215,-7.907605199380953,-1.66366093152381,19.057013234666666
7.466270583,-8.756660771714289,-8.089900236000002,-2.0574356832380953,17.303311862285714
7.476216583,-10.810143323142862,-8.115567201714287,-2.294457943571429,16.388181173238095
7.486162583,-11.914186627428576,-7.985965755095239,-2.335661267476191,16.250537973238096
7.496108583,-12.616039171142859,-7.8853089447619045,-2.233244556633334,16.36972499904762
7.506054583,-13.24295895014286,-7.880887670095238,-2.022933157014286,16.562576672952382
7.516000583,-13.803812905000003,-7.895597065,-1.7008952490142861,16.739238420476187
7.525946583,-14.20347803014286,-7.81678470057143,-1.2526741488238098,16.777292405238093
7.535892583,-14.43540625204762,-7.717202107285713,-0.8034766192523812,16.74713680142857
7.545838583,-14.500170346809526,-7.580144374761904,-0.39664180689047646,16.614307339523812
7.555784583,-14.429099834904765,-7.454981271095239,-0.07815079377000027,16.423115914285713
7.565730583,-14.27162691061905,-7.336921671285715,0.1324761605966664,16.196800509523808
7.575676583,-14.054095563952384,-7.192824587238096,0.2799147891871425,15.920216545714286
7.585622583,-13.7725236182381,-7.067764227476191,0.4068988550442854,15.60086653190476
7.595568583,-13.451197956809526,-6.975333029523809,0.5279812983204758,15.261745626666666
7.605514583,-13.130531750142861,-6.907974107571429,0.6353580629871426,14.936564815238095
7.615460583,-12.749304482523812,-6.83374590452381,0.6827936835109522,14.56063755
7.625406583,-12.374649875380957,-6.767855970238095,0.6626628059395235,14.196504891428571
7.635352583,-12.07490996204762,-6.711049184238096,0.5934515940014283,13.904273527142855
7.645298583,-11.82245018919048,-6.6760111366190475,0.48997895952047593,13.66149526
7.655244583,-11.637753909666671,-6.675469016190476,0.3687318196919045,13.492684772857144
7.665190583,-11.531635966809526,-6.694998438000001,0.2411226864823807,13.40215204
7.675136583,-11.485754480142859,-6.726435213285715,0.12427917005380926,13.371386252380953
7.685082583,-11.494373275857145,-6.770878479380953,0.013225622220475932,13.396044017142856
7.695028583,-11.544588663000003,-6.81662328,-0.09168879468904786,13.457368214285715
7.704974583,-11.618316483476193,-6.852872286,-0.1887874072080955,13.53240809142857
7.714920583,-11.705555326047621,-6.8959893200952385,-0.28345923207380974,13.621225311428573
7.724866583,-11.78655546809524,-6.980400282142858,-0.38514584668809554,13.727865970000002
7.734812583,-11.817249619523812,-7.107836560523811,-0.46469431898476216,13.822064271428571
7.744758583,-11.703090864142858,-7.249571341619049,-0.5128323293323812,13.821513906190479
7.754704583,-11.275296371476193,-7.408690563238095,-0.5579804894990479,13.679814184761906
7.764650583,-10.25509715566667,-7.5000754158095235,-0.6239144989052383,13.640144478095241
7.774596583,-8.340817986619049,-7.528405259190477,-0.7477756225576193,14.34685493952381
7.784542583,-5.440754837095241,-7.576782866142857,-0.9156550311480955,16.01510358047619
7.794488583,-1.7134556837619073,-7.471678023190476,-1.0712780074814288,18.48862165761905
7.804434583,2.54402031385714,-7.120804223156667,-1.1669593941385716,21.485464244761904
7.814380583,6.897751838619045,-6.715478714632858,-1.1105954651385717,24.57989884285714
7.824326583,10.912274076238091,-6.553964417918572,-0.8146519542814287,27.361712673809524
7.834272583,14.584764214333331,-6.320999930299523,-0.23190891980523837,29.843698047619043
7.844218583,17.908752391476188,-5.998774667765714,0.5724416387185711,32.0481500947619
7.854164583,20.701598711476187,-5.6282410599085715,1.3685616010566664,33.76695296285714
7.864110583,22.924687047666666,-5.220767047670476,2.0268355703614285,34.899613289523806
7.874056583,24.671734957666665,-4.79223808895619,2.5043859979995235,35.50551098380952
7.884002583,26.07004969147619,-4.364132071860952,2.79409308966619,35.72268151809524
7.893948583,27.159852686714284,-3.95237509948,2.9314185115471427,35.59834833809524
7.903894583,27.966815503095237,-3.595020934760953,2.964340839880476,35.17989004090476
7.913840583,28.52265683481714,-3.3120629656180953,2.924750929780476,34.60111560714286
7.923786583,28.852159354007615,-3.0948117424276194,2.8606398872652377,34.21511806938096
7.933732583,28.977828938055236,-2.8887366088085717,2.8219479963890475,34.005929272857145
7.943678583,28.922220190912373,-2.675194594713333,2.789441458166666,33.94478816
7.953624583,28.669155593150474,-2.487309828760953,2.7634216269523804,34.04745617047619
7.963570583,28.093882738579044,-2.3183796197133337,2.757810250738095,34.31642147238095
7.973516583,26.926736533721904,-2.263625624094286,2.771885278404762,34.50470459809524
7.983462583,24.852689881817145,-2.3350542359514286,2.841027044214285,33.98939771571429
7.993408583,21.751733276102854,-2.435087900141905,2.9570395895,32.572177712380956
8.003354583,17.783608137531427,-2.6846553895228573,3.0606854964523813,30.38244024
8.013300583,13.30785608086476,-3.1567015128900002,3.1079991607380952,27.638349166666664
8.023246583,8.703491620388569,-3.666115005747143,3.056713340142857,24.812353992380952
8.033192583,4.435428264674283,-3.9235796888900003,2.826118697728571,22.296754407142856
8.043138583,0.5877932461028544,-4.249050580747142,2.3802930069190475,20.01461939142857
8.053084583,-2.8019988277066696,-4.669399305661905,1.7605640503476188,17.926951674761902
8.063030583,-5.577352450087622,-5.1461868178523815,1.1870263151571425,16.275406276190477
8.072976583,-7.701535662611431,-5.657767553328572,0.7807347631095235,15.160162725714285
8.082922583,-9.294180882516192,-6.190702445661905,0.5716785379666663,14.540233231904763
8.092868583,-10.52756131123048,-6.735643237995238,0.5432192762047616,14.311857719523811
8.102814583,-11.479187082754288,-7.268237488233333,0.6511170277761903,14.441197806190477
8.112760583,-12.189975397087622,-7.765647364380953,0.8451434584476187,14.901410627666664
8.122706583,-12.7009034302381,-8.211934661666666,1.081238433923809,15.568595016666666
8.132652583,-13.040041715142857,-8.58249876557143,1.3053106987333332,16.071006153000003
8.142598583,-13.221418669190479,-8.891807716857144,1.465708038033333,16.39538898380952
8.152544583,-13.27328503109524,-9.15811439247619,1.563138549647619,16.57626962333333
8.162490583,-13.244767603476195,-9.371180443238096,1.6181074443666663,16.65745572
8.172436583,-13.177346533952386,-9.521473821714286,1.6597060957761902,16.673881101904765
8.182382583,-13.067557653952385,-9.587379209380954,1.7123427310938093,16.612011958095238
8.192328583,-12.923975152523813,-9.575129710238096,1.7890996913314279,16.48050724666667
8.202274583,-12.739804175857145,-9.518461308333334,1.8659654654742854,16.29061686809524
8.212220583,-12.522897089190478,-9.439766417238095,1.9381745170599998,16.06074190809524
8.222166583,-12.335608043,-9.359711296714286,2.0068021212076186,15.854839111904761
8.232112583,-12.123923132523812,-9.276623837999999,2.0153633463695235,15.629755774761904
8.242058583,-11.930316086333338,-9.205856518380951,1.9618998138409522,15.427060334285713
8.252004583,-11.829383955380955,-9.151427405190478,1.8358400222123805,15.309592691904763
8.261950583,-11.85422058871429,-9.099353077142856,1.6722584319599998,15.292963320952381
8.271896583,-11.985489076809525,-9.044716638428573,1.4722653945504758,15.349133881904761
8.281842583,-12.208262285238098,-8.97455595352381,1.2373855784076189,15.455842286666666
8.291788083,-12.475239302476192,-8.884774045476192,0.9794548199695237,15.575422079523808
8.301734083,-12.727976845666669,-8.785209244428572,0.7391195551028569,15.671138622380951
8.311680083,-12.919368687952382,-8.657044681428571,0.5298196472361902,15.708110707619047
8.321626083,-12.942825155714289,-8.426558633619049,0.3278074792414283,15.55833905095238
8.331572083,-12.572168401285719,-8.111329529761905,0.16518237864142832,15.051976629285713
8.341518083,-11.65052033009524,-7.613187846742857,-0.011811140696666913,14.655128865285715
8.351464083,-10.137988034380955,-6.781946889790477,-0.316350030744286,14.875924811476192
8.361410083,-8.127306433428576,-5.884926343980952,-0.634196793791905,15.568772801476191
8.371356083,-5.651437618190479,-4.964586601028572,-0.5406202933776194,16.692349633857145
8.381302083,-2.5375890158095267,-3.9776739687428577,0.18358531861285682,18.560842593380954
8.391248083,1.4120429946666637,-3.0109735462190477,1.2947666808190472,21.37541012052381
8.401194083,5.9915758337142835,-2.1364413083142857,2.086381387914762,24.71801510290476
8.411140083,10.395320208952379,-1.5858334016000004,2.367043698390952,27.786457409095235
8.421086083,14.382869352285711,-1.1590252645285717,2.420648656967143,30.428677848142858
8.431032083,17.791510844666664,-0.6833884495761906,2.394142111200476,32.49802508576191
8.440978083,20.64289753895238,-0.3845670714333335,2.3259621218719047,34.01095495290476
8.450924083,22.92334355228571,-0.07825027981428592,2.3126479770052377,34.92354542147619
8.460870083,24.649396171333333,0.223026532138095,2.3359386620814284,35.258389060523804
8.470816083,25.969762063714285,0.5487011124571426,2.3602644922719045,35.16878132719047
8.480762083,26.94796938919048,0.8687037021714284,2.332714465605238,34.71804030495238
8.490708083,27.771454877666667,1.1083993373619048,2.2593201903671423,34.15314027238095
8.500654083,28.529129759142858,1.3669246636476189,2.141122397852857,33.571549262428576
8.510600083,29.13355323885714,1.6526572375047615,1.9567284196719044,33.03607490738095
8.520546083,29.574710707571427,1.8559777339333332,1.7617126888242856,32.621594323380954
8.530492083,29.76479152085714,1.9381521499333334,1.5880342344857143,32.455525411761904
8.540438083,29.50655675942857,1.936953804838095,1.3940743507047615,32.695242701619044
8.550384083,28.687571984333328,1.7280212413428568,1.2423259065190473,32.85750675371429
8.560330083,27.280731230047618,1.1343420480095237,1.286343049852381,32.428255808952386
8.570276083,25.362009179571423,0.4388452885333332,1.4341464890428568,31.55283627752381
8.580222083,22.97584255528571,-0.31096205270476207,1.2756730751285712,30.260026362285718
8.590168083,19.96751776290476,-1.1819867688952381,0.6040796497476189,28.24215870704762
8.600114083,16.11661242480952,-2.094656412847619,-0.3481324859666668,25.334670886571434
8.610060083,11.652548729571427,-2.9775912388476193,-0.9225512016809526,21.94067557895238
8.620006083,7.386971832476188,-3.650917305466667,-0.9820809246333335,18.880349434666666
8.629952083,3.519665388666664,-4.344672332680953,-0.8624303809380953,16.350224407047616
8.639898083,0.17661690342856867,-5.206001126157143,-0.7407854634142859,14.504918465619047
8.649844083,-2.666118751333336,-6.003619820490477,-0.6513377168000001,13.33319729942857
8.659790083,-5.0163527313333365,-6.8789577908714294,-0.6901541585619049,12.863107233238095
8.669736083,-6.907410100857145,-7.768435428633334,-0.8635581243904763,13.05194227657143
8.679682083,-8.543001728000002,-8.668635839761905,-1.129783046852381,13.768438835142858
8.689628083,-9.954871143476193,-9.55796583504762,-1.4882293357285714,14.957806081190478
8.699574083,-11.29343050814286,-10.36249971804762,-1.911783344204762,16.34920492566667
8.709520083,-12.615072513428576,-11.18720266647619,-2.3389669978238095,17.81094420704762
8.719466083,-13.74926921266667,-12.064824573,-2.7111782203476187,19.218618012095238
8.729412083,-14.61842699614286,-12.893762896095238,-3.0143815225857145,20.432335795619046
8.739358083,-15.18763180514286,-13.656943808,-3.2343830393476187,21.380740802000002
8.749304083,-15.549735196714288,-14.39211787961905,-3.3736707606809526,22.14156035904762
8.759250083,-15.772439379952383,-15.08058112104762,-3.4666421578238094,22.76584990190476
8.769196083,-15.899195543761907,-15.68265574657143,-3.546510835680952,23.272193837619046
8.779142083,-15.95463739471429,-16.213408235285716,-3.6447456457761906,23.686372704761908
8.789088083,-15.964966918523812,-16.679277373809526,-3.8015260610523804,24.031221814761903
8.799034083,-15.956382482333336,-17.061859050952382,-4.044200518480952,24.30895633952381
8.808980083,-15.935794101857146,-17.369079808428573,-4.376113566290476,24.51594004142857
8.818926083,-15.934738039000003,-17.58387204095238,-4.779697857528571,24.66052948095238
8.828872083,-15.967440848095242,-17.681267775714286,-5.193283059338095,24.7493900947619
8.838818083,-16.01680883428572,-17.649231883333332,-5.5699432892428575,24.767800397142857
8.848764083,-16.01415987857143,-17.50204382190476,-5.870305680195238,24.67883080952381
8.858710083,-15.882613453333336,-17.257527463333332,-6.077072741333334,24.433198204285716
8.868656083,-15.514784106285717,-16.925078615714284,-6.196926065047618,23.980750015714285
8.878602083,-14.847466499000003,-16.48131314952381,-6.218241811285715,23.28538679047619
8.888548083,-13.809101209190478,-15.941882752523812,-6.149459092333333,22.35923440904762
8.898494083,-12.385718988047621,-15.279836466,-5.930401733857143,21.315645638142854
8.908440083,-10.516606051380954,-14.48364818857143,-5.586654032952381,20.423344161
8.918386083,-8.221318189476191,-13.605801936638096,-5.062854440519048,19.831790874333336
8.928332083,-5.465490369000003,-12.512237246733331,-4.223033892280952,19.817941350999998
8.938278083,-1.835416267571431,-10.955014291971429,-3.142663904185714,21.028459952428573
8.948224083,3.1428696148095217,-9.025074720066666,-2.050770139709524,23.97684322480952
8.958170083,8.491654627190474,-7.101517579114286,-1.1371930636619048,27.483265157666665
8.968116083,13.141125845761902,-5.259423901971429,-0.2216659410904762,30.46781689052381
8.978062083,17.264029901476185,-3.7554040386380954,0.6079279664809524,33.00971299766667
8.988008083,21.31598462147619,-2.4546239800666663,1.1876185595285713,35.522321584809525
8.997954083,25.1585932057619,-1.3682344781142857,1.7616268562428572,37.89677500290476
9.007900083,28.284784890999997,-0.5402528709238095,2.6110520690523806,39.690075555285716
9.017846083,30.740008691,0.04823513674285719,3.6089341054333337,40.96317223909524
9.027792083,32.75348191957143,0.4235113030285716,4.527642224766668,41.846718473857145
9.037738083,34.39222597528571,0.6841240156476192,5.244124530052382,42.312658465285715
9.047684083,35.72032985004761,0.862107301409524,5.682355230719048,42.384957382904766
9.057630083,36.749531411,0.9503241885523811,5.829797089195238,42.25065526242857
9.067576083,37.44465912766667,0.9565403356952383,5.736981450766667,42.159835586238096
9.077522083,37.76292229601905,0.853564074266667,5.5081996992904765,42.26973853814285
9.087468083,37.68415876978096,0.5556921518857145,5.262802026480952,42.6537502462381
9.097414083,37.23796893659047,0.0563138453619049,5.0449896515761905,43.26399311719048
9.107360083,36.439112561161906,-0.6563871487809522,4.8683788186238095,43.96019138
9.117306083,35.17641046211428,-1.5769131814476192,4.758970814766667,44.4899129552381
9.127252083,33.43070329068571,-2.5615961938571425,4.554625050857142,44.694441684285714
9.137198083,31.070413380209523,-3.7001117161428567,3.9993310184285713,44.3873704752381
9.147144083,27.574027177352377,-5.259943977095237,3.0864377048095237,43.039882320476195
9.157090083,22.429663441161903,-7.180608807095238,2.030830758285714,40.18998345857143
9.167036083,16.733635846876187,-9.046941253285715,1.0365786454761907,36.908352605714285
9.176982083,11.673330346399997,-10.787191914714285,0.000510838095238225,34.17167291238095
9.186928083,7.181117041161904,-12.179468980904762,-0.925369782190476,31.828605494285718
9.196874083,2.8830741754476166,-13.376742574714285,-1.5421774978095233,29.411877949047618
9.206820083,-1.1015019650285736,-14.367971315238098,-2.0867968533333334,27.051838209999996
9.216766083,-4.311310615980954,-15.114857164809527,-2.8505594379523806,25.235667842380952
9.226712083,-6.824839007885717,-15.645673249142854,-3.7187136721190477,23.93641341047619
9.236658083,-8.891108027409526,-15.991833789714283,-4.47250010642381,23.042261994285713
9.246604083,-10.582155036933337,-16.22385166852381,-5.005814622480953,22.564493896190477
9.256550083,-11.949460873123812,-16.36956623142857,-5.243082201342857,22.46697511952381
9.266496083,-13.035142806457145,-16.43670323761905,-5.177741431961904,22.593461251428568
9.276442083,-13.871965543123812,-16.425134048095238,-4.877243079304762,22.735316743333335
9.286388083,-14.483347460428574,-16.323118846190475,-4.439024278392428,22.775277782857145
9.2963335,-14.870404931000001,-16.12777940952381,-3.9676499322543335,22.684079152380953
9.3062795,-15.070861823333335,-15.857362169047619,-3.528746732159095,22.476864613333333
9.3162255,-15.148241981904764,-15.50742006714286,-3.1538285557400476,22.16770085952381
9.3261715,-15.086678987619052,-15.105708945238094,-2.86295149014481,21.767670375714285
9.3361175,-14.883549389047621,-14.744074583809523,-2.6031668267543333,21.330504772857143
9.3460635,-14.549121453857145,-14.415244995714286,-2.3166660122971905,20.836477313333333
9.3560095,-14.059340488809525,-14.111298372857142,-1.9866575131876665,20.25416227
9.3659555,-13.41605318361905,-13.853834162857144,-1.610203606454333,19.594551042857145
9.3759015,-12.678180705428574,-13.661262185238096,-1.1761054532495714,18.90332470809524
9.3858475,-11.953413898142859,-13.533932159047616,-0.7249507213924286,18.264023087619048
9.3957935,-11.340437528857146,-13.454483478571428,-0.3204125822019523,17.752285354761902
9.4057395,-10.906233179000003,-13.403048975238093,-0.0023246354400475364,17.408470175238094
9.4156855,-10.65310958009524,-13.374331795238096,0.21460982179804775,17.213468434285716
9.4256315,-10.567972226761908,-13.353628085238094,0.3245801903123334,17.1373606
9.4355775,-10.584994028666669,-13.320992992380953,0.3502417560123334,17.123618787142856
9.4455235,-10.617244485809525,-13.296264783333335,0.3302497115218572,17.12818259333333
9.4554695,-10.632984522476193,-13.309760157142856,0.31004691666947626,17.149426937619047
9.4654155,-10.613862122476192,-13.328321169047621,0.31349307066471443,17.149856886666665
9.4753615,-10.479597020000003,-13.356937943809523,0.3584303186266191,17.084209473809523
9.4853065,-10.157204687190479,-13.353032672380952,0.39922214128852396,16.890324187142856
9.4952535,-9.603505413095242,-13.273647531428573,0.32931244461428577,16.55447453809524
9.5051985,-8.749282893809527,-13.17754041142857,0.12715852514285725,16.29151239809524
9.5151455,-7.546780608095242,-13.023911669809522,-0.16117235642857133,16.26242785761905
9.5250905,-6.058198340952384,-12.804507487999999,-0.4621456691809523,16.476009760952383
9.5350365,-4.348606079047622,-12.543924651761905,-0.7010417672523809,16.90374076904762
9.5449835,-2.0758807847619076,-12.135798967095237,-0.8212668694523809,17.88536722761905
9.5549285,1.2110920671904735,-11.467937680119046,-0.8346965838190475,19.916255589523807
9.5648745,5.359479430238093,-10.694834586309522,-1.166596573690476,22.870965279523812
9.5748205,10.397517814571426,-9.755115193785715,-2.131471634852381,26.843427210952377
9.5847665,14.721486816857139,-8.828144875214285,-1.5523464119142854,30.091412548571434
9.5947125,17.64330442052381,-8.370805487833334,-0.41550295639047585,32.16690160047619
9.6046585,20.41538855838095,-8.058166449833331,0.10700551518095261,33.90277888523809
9.6146045,23.341076406142854,-7.63066078154762,0.2453936284666669,35.69010899095238
9.6245505,26.20632709914285,-7.1806864635476195,0.17365096369523836,37.34866139571428
9.6344965,28.848686859619047,-6.743840411547619,0.1258420680714288,38.67968309619047
9.6444425,31.210407222,-6.385917612166667,0.15701730405238118,39.672635793809526
9.6543885,33.24901211771428,-6.089623825119047,0.2456023462285717,40.3453748652381
9.6643345,34.97384868342857,-5.818082471642858,0.3504907551857145,40.70632361857143
9.6742805,36.39532579819048,-5.6132029960238095,0.4285657300523812,40.824876030000006
9.6842265,37.416116891428565,-5.490377497928571,0.4369954624714288,40.78975922761905
9.6941725,37.94719523709524,-5.4612071865,0.42166127516190505,40.736382145238096
9.7041185,37.975860794190474,-5.568687196023809,0.4917594714507526,40.83567997904762
9.7140645,37.461968250619044,-5.772625771261905,0.6781776164936097,41.00365506285714
9.7240105,36.381577740999994,-6.081510840976191,0.9588364508126572,41.084921882380954
9.7339565,34.87068093957143,-6.471234613738095,1.2510001544250382,41.01880051142857
9.7439025,33.049110098619046,-6.907978075214285,1.4484725442107527,40.799023184285716
9.7538485,30.577963717666666,-7.479091443214285,1.4725779134488477,40.07197718285715
9.7637945,26.981272205761904,-8.302657177809524,1.302205081548848,38.371461532380955
9.7737405,22.379211826238095,-9.231323327809523,1.336058232691705,35.865065144285715
9.7836865,16.720118587190473,-10.319500240333333,1.8968307165488478,32.4753025047619
9.7936325,11.607327699571425,-11.378778793190477,0.8542302050250385,29.931991997142852
9.8035785,7.778978190523808,-11.933150496761904,-0.7387297346416282,28.627430444761906
9.8135245,4.078714891952378,-12.32598961047619,-1.6413460379749616,27.655669659523806
9.8234705,0.3083453709999976,-12.838179612095237,-2.01168759954639,26.54819525
9.8334165,-3.216956538523812,-13.367075582,-2.0027146016249615,25.42189009095238
9.8433625,-6.282284722809527,-13.881157561619048,-1.8712601183725805,24.456961475714284
9.8533085,-8.864394439000003,-14.31270900195238,-1.7178862317916281,23.687469112380953
9.8632545,-10.975453074714288,-14.655485814238096,-1.5668887928392474,23.118457092857142
9.8732005,-12.660323030428575,-14.913893764857143,-1.4398081922201995,22.743291976190477
9.8831465,-13.987043509476193,-15.077335805238095,-1.3567497746963901,22.546080845238095
9.8930925,-14.978199020428573,-15.137927159523807,-1.3136383093630568,22.517561804285712
9.9030385,-15.658854265761907,-15.117155065238096,-1.316659622248771,22.608750746666665
9.9129845,-16.09530010409524,-15.01377412095238,-1.3652255930614283,22.691321794761905
9.9229305,-16.348687328857142,-14.81073568285714,-1.4593325194852378,22.663890895714285
9.9328765,-16.441664044000003,-14.534940173809522,-1.6079993148042855,22.518478597142856
9.9428225,-16.426605403523812,-14.217803736190476,-1.7789294107023803,22.290333530476193
9.9527685,-16.347406148285717,-13.861587683190475,-1.921084801488095,21.997974021904763
9.9627145,-16.197905540666667,-13.48122828204762,-2.002361516678571,21.639777757142856
9.9726605,-15.943437722571431,-13.084818747,-1.977542146678571,21.18558415904762
9.9826065,-15.545262718285718,-12.672285431666664,-1.8257759381071423,20.59431409190476
9.9925525,-14.989899187428575,-12.24761752852381,-1.5714914442023804,19.85397896809524
10.0024985,-14.27581763766667,-11.840230096619047,-1.274154374773809,18.99033794
10.0124445,-13.438038797523813,-11.481889778285714,-0.9872407747261901,18.058948658571428
10.0223905,-12.577043894047623,-11.139055078285715,-0.753903791678571,17.129023573809526
10.0323365,-11.813346408238099,-10.780323330238096,-0.6280433100928567,16.288362192380955
10.0422825,-11.225624831571432,-10.431235144523809,-0.6185589000714281,15.60649145857143
10.0522285,-10.839278020619052,-10.10353250947619,-0.6980299394380948,15.097434349047619
10.0621745,-10.664322367285717,-9.78948303947619,-0.8376959199238091,14.759380995714285
10.0721205,-10.68264603776191,-9.465505081190477,-1.0078987892857139,14.566201651428571
10.0820665,-10.806625497761909,-9.136581547476188,-1.1867361062619044,14.449904638095239
10.0920125,-10.929589213000002,-8.807433118714286,-1.33867402809619,14.332240902857144
10.1019585,-11.008852286333335,-8.466840436238096,-1.4412784311057139,14.174982489523808
10.1119045,-11.017055150285717,-8.07260332304762,-1.433657447791428,13.94485948904762
10.1218505,-10.81667839261905,-7.565470919361904,-1.3019294523628568,13.518873656285715
10.1317965,-10.266372452804765,-6.931526970790476,-1.1423889528866662,12.906008546333334
10.1417425,-9.318704884471433,-6.199019368599998,-1.0259128626152376,12.597156508761906
10.1516885,-7.8730559925666705,-5.449898852361905,-0.7987548272342851,12.750474634476191
10.1616345,-5.751566536376193,-4.729458789742857,-0.18984082490095192,13.63921420590476
10.1715805,-2.7663990011380983,-4.004900867266666,0.9489249722895242,15.56971914209524
10.1815265,1.2074865917190445,-3.1884183385047615,2.474791871146667,18.640239581619046
10.1914725,5.93188642648095,-2.3280672135047613,4.014479415813334,22.49106933542857
10.2014185,10.81207385038571,-1.6064222346476185,5.415889832813334,26.48615418495238
10.2113645,15.2417665258619,-1.2067044077714282,6.688875736337144,30.02983678685714
10.2213105,18.909468824290474,-1.069801264485714,7.76918413405143,32.821184464
10.2312565,21.841967453195235,-1.102214051485714,8.639820177194286,34.878861248285716
10.2412025,24.258629589766663,-1.2500962052476186,9.32075013022762,36.39246477780952
10.2511485,26.309811456433334,-1.4580569961999996,9.83484181158,37.49337938209524
10.2610945,28.154642855480947,-1.6659891079142852,10.137946212565716,38.28606072495238
10.2710405,29.73487933690952,-1.8408054583904758,10.155204067694287,38.68682164495238
10.2809865,31.04273552881428,-2.083268497152381,9.880605372056191,38.839238854
10.2909325,32.121784659147615,-2.328708325628571,9.461691773127619,38.908450898285714
10.30087933,32.81499359800476,-2.5863526020095233,8.966854136152381,38.98600025257143
10.31082533,33.13418004167142,-2.922699704961904,8.505078323257143,39.19042137542857
10.32077133,33.15292164867143,-3.3504606319619046,8.090464512628571,39.54002094780952
10.33071733,32.86287332862381,-3.9497394742190473,7.730837416819048,40.13675369485714
10.34066333,32.18193747261904,-4.721043874219047,7.495190560819047,40.94882896290476
10.35060933,31.058323788095237,-5.642082192599999,7.391261063880953,41.51013643095238
10.36055533,29.35835008428571,-6.63126109407619,7.216042146642857,41.69402910428572
10.37050133,26.888180021428568,-7.631202965409523,6.6586375756428575,41.23800049
10.38044733,23.475188089047613,-8.665953422838095,5.579641988976191,39.82053313476191
10.39039333,19.014175526666666,-9.795107232838095,4.150476206833334,37.31093498809524
10.40033933,13.787090840952379,-10.956243641742857,2.765230142442858,34.02693066761905
10.41028533,8.441519625238092,-11.96575890850476,1.5641041525857147,30.564435331428573
10.42023133,3.624349036666664,-12.645499391571429,0.5099887751095242,27.489913118571433
10.43017733,-0.3597599947619078,-13.048733685095236,-0.3607650754142854,25.109062675238096
10.44012333,-3.54087585714286,-13.27314093952381,-1.0500909897476187,23.411727665714288
10.45006933,-6.1203147876190505,-13.392010879999997,-1.5965727947476187,22.204910544285713
10.46001533,-8.268384739523814,-13.466470438095238,-2.038860446890476,21.369556044285712
10.46996133,-10.172312332380956,-13.551825252380953,-2.3269448265904757,20.815516281904763
10.47990733,-11.765516267619049,-13.695446679047617,-2.3651435378866665,20.625943478095238
10.48985333,-13.043179108571431,-13.812277389047619,-2.143079513248571,20.66318628095238
10.49979933,-14.091910592714287,-13.955598881904761,-1.7837649650390475,20.79550370047619
10.50974533,-14.799376491095241,-14.097862028571429,-1.334579575658095,20.96587555714286
10.51969133,-15.174889107619052,-14.166925608571429,-0.9025614439914283,21.05259882761905
10.52963733,-15.28830139619048,-14.205922193333333,-0.5595260453247617,21.056321227619048
10.53958333,-15.246753309523811,-14.20034974095238,-0.32950234175333304,20.982055683809524
10.54952933,-15.105344858571433,-14.151434162380951,-0.18782503044857113,20.83482487761905
10.55947533,-14.868989320000004,-14.059554022380954,-0.07397225166761877,20.59878799190476
10.56942133,-14.531629200952382,-13.937778684285712,0.04879669565142886,20.271819857619047
10.57936733,-14.101362115714288,-13.815285419047619,0.19496608513714314,19.875367079047617
10.58931333,-13.612180935714289,-13.70064050952381,0.33026122323714313,19.441476851904763
10.59925933,-13.1011518852381,-13.599767797619048,0.42231000979428607,19.00040513904762
10.60920533,-12.618898820476193,-13.519187819999999,0.447037519341905,18.59201912619048
10.61915133,-12.208419938095242,-13.46291778095238,0.4124177425800003,18.25065127047619
10.62909733,-11.902016482380954,-13.391502116666667,0.3428996388085717,17.975153413333334
10.63904333,-11.675088994285717,-13.29414942904762,0.2482068492228574,17.73930399904762
10.64898933,-11.505255780000002,-13.185993982380952,0.13667867544333362,17.53565286857143
10.65893533,-11.396717424285717,-13.062643905238096,0.01787397326238124,17.364948142380953
10.66888133,-11.344418423809525,-12.916629463333333,-0.09207074929476161,17.22145931047619
10.67882733,-11.308532223333335,-12.74412162142857,-0.184549253975714,17.076373636666666
10.68877333,-11.241912500952385,-12.545031446523808,-0.2495265214652378,16.89274872952381
10.69871933,-11.076783455428574,-12.272092719761904,-0.2900454984366664,16.58789550714286
10.70866433,-10.76102760109524,-11.923610973666667,-0.3481698848366664,16.128359729190475
10.71861033,-10.328556227000004,-11.512501371333332,-0.4800522189319045,15.58502704957143
10.72855633,-9.789480783557146,-11.065873414666665,-0.6196666882652379,14.998536508238095
10.73850233,-9.073636520985717,-10.60060648347619,-0.5535951004747616,14.394731205333333
10.74844833,-7.73749339289048,-10.095037569714286,-0.23705647442714262,14.43313560247619
10.75839433,-5.12544242431905,-9.542702910380953,0.1365834458395241,15.763548203428574
10.76834033,-0.7428181919380976,-9.034127490761904,0.354486675344286,18.880677522952382
10.77828633,5.12681362615714,-8.434052445690476,0.3240163612347622,23.491951518666667
10.78823233,11.420068812823807,-7.8275779576047615,0.2702126808538098,28.518365300095237
10.79817833,17.274890300919044,-7.54999726565238,0.7504941132300003,33.134419449619045
10.80812433,21.924536045204757,-7.243015492414285,1.7131257926252386,36.63122283485714
10.81807033,25.499114167109518,-7.088658800080951,2.763157307944286,39.12613305819048
10.82801633,28.04174014187143,-6.936850435652381,3.42801797075381,40.514760257238095
10.83796233,29.83097632568095,-6.852329657557143,3.6130796731442865,41.09767235342857
10.84790833,31.056709153299998,-6.714945984319048,3.6434439821061906,41.15167714961905
10.85785433,31.903590242347615,-6.557162155557142,3.6253171063047622,40.906831677238095
10.86780033,32.24403638244286,-6.434747967271428,3.5288081228190475,40.61945023485715
10.87774633,32.07100490863333,-6.4404531234619045,3.341011928280953,40.783120991523816
10.88769233,32.0289243353,-6.349146038890475,3.181985092804762,40.79014291485714
10.89763833,32.226133656061904,-6.071650326319047,2.9515625569476196,40.55990821533334
10.90758433,32.336517922157135,-5.86265347822381,2.564135737519048,40.55062429580953
10.91753033,32.17429151810952,-5.708576951223809,2.1630284939000006,40.805249415666665
10.92747633,31.71537636163333,-5.672003313414286,1.9164980483285716,41.248297092904764
10.93742233,31.045275396285714,-5.762946422795237,1.8354151822333336,41.78285161185714
10.94736833,30.18117247514286,-5.973274946414286,1.7395163904904767,42.34588264571429
10.95731433,28.678961406095237,-6.3235640318428565,1.5712329671571432,42.333656055238094
10.96726033,25.875120928476186,-6.776419175938095,1.490848063680953,41.11436104761905
10.97720633,21.320941059428566,-7.179972476985715,1.6196059241571432,38.112649324761904
10.98715233,15.328736287047615,-7.657295308723809,1.9726721377095244,33.56790032285714
10.99709833,8.912976475142854,-8.088711761761905,2.356677723461905,28.584948339047617
11.00704433,2.8971909413333305,-8.162471658523808,2.2121831679380954,24.027249066666666
11.01699033,-1.9409347877142886,-8.305674452714285,1.5399988394619053,20.617250572380954
11.02693633,-5.695425498190478,-8.32887152647619,0.7019864727000004,18.19862818142857
11.03688233,-8.393913962476192,-8.368820984714285,0.1789126590333337,16.863211012857146
11.04682833,-10.305569903428575,-8.395305697095237,0.0723644100333337,16.333716564761907
11.05677433,-11.637151033428575,-8.556076729380951,0.07162080778571465,16.371602874761905
11.06672033,-12.584767062952384,-8.835772275761904,0.08519659812719084,16.774267152857142
11.07666633,-13.059199866857144,-9.169721741666667,0.16270485944147656,17.307838614285714
11.08661233,-13.045298974952383,-9.434658470238094,0.33361172657957183,17.44914896761905
11.09655833,-13.182950673523811,-9.852896914333334,0.49394460729385753,17.798683416190478
11.10650433,-13.63886197619048,-10.509847575142857,0.7331782845795717,18.47673376952381
11.11645033,-14.170331416857143,-11.198708427142856,1.1384980885795717,19.118401051904762
11.12639633,-14.651926753333337,-11.937472494047618,1.611939677765286,19.72179165714286
11.13634233,-15.033182922380956,-12.64304255847619,2.0622795618557626,20.292959394761905
11.14628833,-15.35537107619048,-13.271995414333333,2.387697247522429,20.859409403809522
11.15623433,-15.66905776809524,-13.848937982857143,2.531298738331953,21.453106503333334
11.16618033,-15.971145310476194,-14.379449120714284,2.508451383570048,22.02172662952381
11.17612633,-16.23077015,-14.883361274523809,2.3439358502843337,22.515992744285715
11.18607233,-16.439788841428573,-15.402357796904761,2.131749304331952,22.967692734285713
11.19601833,-16.562523846666668,-15.939541275952381,1.9503775291414764,23.388923593333335
11.20596433,-16.526203170476194,-16.491244533380954,1.734619893617667,23.715571953809523
11.21591033,-16.306093703190477,-17.01318911047619,1.4708155270462384,23.90713853190476
11.22585633,-15.93318022966667,-17.463344553333336,1.20275973347481,23.99007521047619
11.23580233,-15.459884876666669,-17.83671656,0.9733790391605243,24.003832763333335
11.24574833,-14.907668567904766,-18.10099762095238,0.7571190443271909,23.926534157619045
11.25569433,-14.30825946509524,-18.262770141904763,0.5223513937557622,23.79165088857143
11.26564033,-13.649664288904763,-18.356554246190477,0.2713565503414766,23.64550235238095
11.27558633,-12.850250812761907,-18.26720338952381,0.06849610448571465,23.37344735095238
11.28553233,-11.663551379428574,-18.00404454857143,-0.036192110447618664,23.10527708
11.295478,-9.988308836095241,-17.55380788533333,-0.0978574522999996,23.07358602047619
11.305424,-7.743240314666669,-16.853878922238096,-0.03355590370952341,23.457176149523807
11.31537,-4.74827078514286,-15.85975877561905,0.27693848686190514,24.47612631571429
11.325316,-0.8570307408571454,-14.65910184357143,0.7494448522428575,26.274251936190478
11.335262,3.689373333904759,-13.32379141504762,1.1360329025333338,28.596641205238093
11.345208,8.707373393428568,-11.896773423142857,1.3660016074428576,31.28275473238096
11.355154,13.845203617714281,-10.491753102190476,1.5412326332523814,34.05594410714286
11.3651,18.585867900095234,-9.258512951,1.6797840509190483,36.41050955428572
11.375046,22.66761791533333,-8.13170899795238,1.7853847099190479,38.08794254904762
11.384992,26.023362933904757,-7.100564782833333,1.81858851382381,39.08051417285714
11.394938,28.792037031047617,-6.122543385147618,1.7808433445857146,39.63170379190476
11.404884,31.07018447628571,-5.197276145004762,1.698977424919048,39.92300289809524
11.41483,32.882290846761904,-4.3415900120523805,1.610820005633334,40.021015846666664
11.424776,34.289188068523806,-3.5745679389571423,1.592026991871429,39.982941862380954
11.434722,35.33331361738095,-2.8785017997190474,1.6593397695380956,39.80061182285714
11.444668,36.033350182952375,-2.2618066011476183,1.7684863680428577,39.47809742761905
11.454614,36.359673988666664,-1.7930577642904757,1.8870436773047625,39.07217136361905
11.46456,36.38839094554761,-1.450032417338095,2.026907937585715,38.716752860666666
11.474506,36.2436649795,-1.1600870637190472,2.198241435666667,38.41306482466667
11.484452,35.8325314595,-1.0002485789095235,2.2958340961428574,38.26395026228571
11.494398,34.98617856902381,-0.9819377724809522,2.280102190285715,38.11825320752381
11.504344,33.61321159797619,-1.152809173338095,2.209332531761905,37.7641566327619
11.51429,31.59411446130952,-1.5967468121476185,2.003682424552381,37.06199858276191
11.524236,28.752328115595237,-2.3419192463857135,1.5457981600285717,35.780316475619045
11.534182,24.987399846547614,-3.2904900703380955,0.9496938757428575,33.73347529942857
11.544128,20.575859406071423,-4.375346265528571,0.477587317219048,31.150989459428573
11.554074,15.727957801309524,-5.547176006480952,0.17979622544285748,28.171400136095237
11.56402,10.82302083988095,-6.680670455052381,-0.007913959328571096,25.044814713714285
11.573966,6.39796442130952,-7.59082833005238,-0.09428326528095206,22.244749135142857
11.583911,2.7457909632142834,-8.366684627385714,-0.08691928189999965,20.035988080380953
11.593858,-0.09709446402381221,-9.058152836314285,0.039463885100000366,18.491592462761908
11.603803,-2.4142687044047646,-9.721349395428572,0.22542168719523845,17.457074552761906
11.613749,-4.453990028690479,-10.384018848904763,0.3960387900047622,16.836620594190475
11.623695,-6.2983900701190505,-11.067691702809523,0.5432881428619051,16.62182182704762
11.633641,-8.011550024404764,-11.75186151447619,0.5948221603380957,16.75540395085714
11.643587,-9.579225183452385,-12.423935358476191,0.524387463719048,17.188220913714286
11.653533,-10.949818602500002,-13.078789597523807,0.3997695154523814,17.880007873238096
11.663479,-12.056826918404765,-13.664899236285713,0.30473689127142894,18.768299886285714
11.673425,-12.918888604761909,-14.176775353714286,0.263685062419048,19.64804019495238
11.683371,-13.642819204428573,-14.632755458285711,0.2642447314523813,20.42931985
11.693317,-14.180253501523813,-15.042283082142855,0.32699418889523846,21.070290174285713
11.703263,-14.542044623904767,-15.387213173809524,0.41342772370476233,21.54749344
11.713209,-14.73685850761905,-15.65975456857143,0.5065710011333338,21.861525024761903
11.723155,-14.754034285714289,-15.85766549952381,0.6209137765619052,22.005366534285717
11.733101,-14.613703671428576,-16.00880510952381,0.787001319866667,22.005612046666666
11.743047,-14.391365412380955,-16.126500817619046,0.9738075251285719,21.92315391142857
11.752993,-14.164806299047623,-16.212287657142856,1.1421606417476193,21.817188381904764
11.762939,-13.964617850000003,-16.292685814285715,1.2737577709523813,21.728954888095238
11.772885,-13.848995341428576,-16.369658505238096,1.3437158916285719,21.701218322380953
11.782831,-13.83908681666667,-16.437021269523807,1.3508679830571433,21.741187224285714
11.792777,-13.918518122857144,-16.462997886666667,1.255755168485715,21.79806225857143
11.802723,-14.029974155619051,-16.41869993761905,1.0468927646095243,21.79340637047619
11.812669,-14.059418617523813,-16.29032181238095,0.7678526353428575,21.66085357
11.822615,-13.92864427509524,-16.05271135,0.4740238918666671,21.36207916
11.832561,-13.60527495614286,-15.69659960047619,0.1857716135333337,20.87527793142857
11.842507,-13.041934403428575,-15.227710068761905,-0.07294902370476151,20.184383320857144
11.852453,-12.188757616980956,-14.640029561619047,-0.2710303035142853,19.303987682
11.862399,-11.018580326647621,-13.920424091761905,-0.36714906191428537,18.401283567
11.872345,-9.59347899617143,-13.03343377598524,-0.37886933234761866,17.661772668428572
11.882291,-7.936547036647622,-12.047818870699524,-0.3643068730904758,17.203868732238096
11.892237,-6.038713245219051,-11.031527349318571,-0.32116762653809483,17.079030041761904
11.902183,-3.709020255219051,-9.958244130604285,-0.23025206169523774,17.52898036795238
11.912129,-0.6460395333142883,-8.702963929794763,-0.09682594431428533,18.902319211761903
11.922075,3.526507160495236,-7.176909585985237,-0.391027875933333,21.584058542714285
11.932021,7.7535883285904745,-5.653196077413809,-0.35897900850476155,24.406477274619046
11.941967,11.843110685257141,-4.364244880270952,-0.2997875887714282,27.096104627476194
11.951913,15.866142682399998,-3.302901007699524,-0.44040488341428535,29.67589317795238
11.961859,19.586596695257143,-2.4713590656042856,-0.5670055668428569,31.858320537476192
11.971805,22.802484445733334,-1.786526973128095,-0.5529484149380948,33.455376032714284
11.981751,25.53593346811428,-1.2185759186995233,-0.345359451080952,34.547361421761906
11.991697,27.95512939859048,-0.683043888175714,-0.1194302219857139,35.337110401761905
12.001643,30.103024379066667,-0.18846680031857113,0.03896723034761936,35.92879767795238
12.011589,31.88231116335238,0.23627701891952416,0.11468549884285748,36.32238283604762
12.021535,33.17806910420952,0.5543860437290479,0.12162491912714321,36.474775232714286
12.031481,34.00040224559047,0.7491338814433338,0.07015238436523845,36.41757000652381
12.041427,34.40448263135238,0.8001889841100004,0.01608184474619082,36.32669072814286
12.051373,34.37805664139999,0.6832482628719052,0.008333560079524164,36.443291011571425
12.061319,33.911772600999996,0.40847832715761956,0.035229638317619404,36.842324723285714
12.071265,33.02667502923809,-0.03382360888999961,0.03212429346047653,37.35241362352381
12.081211,31.808709698285707,-0.7009444713333329,-0.017570245687142504,37.79297730019047
12.091157,30.218349235904757,-1.5260371018571426,-0.09894872684904725,38.09665538685714
12.101103,28.201854054476193,-2.440672830380952,-0.2313152660871425,38.247913917333335
12.111049,25.54935711542857,-3.4625675995714276,-0.41251521665857105,38.01351431971428
12.120995,22.0264796287619,-4.709152377999999,-0.578490994610952,36.979212702571424
12.130941,17.330608247809522,-6.236380842761904,-0.20136156742952344,34.67972445780953
12.140887,12.6149117987619,-7.735411305142856,-0.05567050452476151,32.190050530190476
12.150833,8.186679841142855,-8.971333267999999,0.09472355743714325,29.705947101142854
12.160779,4.027890922095235,-9.965217591047619,0.42888352310380995,27.185180064476192
12.170725,0.3696889844761876,-10.729575860761903,0.707293907246667,24.934177640666668
12.180671,-2.6720337118571456,-11.349775615619047,0.7735041019133336,23.191527309714285
12.190617,-5.218632897571432,-11.890175871,0.5441985234371431,21.95743533685714
12.200563,-7.528160789952383,-12.440000780095236,0.21458368375619086,21.09772010495238
12.210509,-9.714170260904766,-12.98918278747619,-0.06415141576761867,20.567101251619047
12.220455,-11.734213922333335,-13.521654371476188,-0.24675639657714246,20.419993889238096
12.230401,-13.454124459476194,-14.003058643428568,-0.3300207478804758,20.684714847809524
12.240347,-14.801426942809528,-14.400049029714285,-0.3165174107852377,21.251847589238096
12.250293,-15.780315608000002,-14.681709909047619,-0.2851931525947615,21.89798977
12.260239,-16.35803265457143,-14.830938314761903,-0.3095688024519044,22.360372340476193
12.270185,-16.60001446776191,-14.884206003809524,-0.38379447168999964,22.572986737619047
12.280131,-16.631761897285717,-14.87071280190476,-0.47746483383285676,22.600146005238095
12.290077,-16.532120776333336,-14.786285356190476,-0.5543814474042853,22.48077749
12.30002333,-16.281511006809527,-14.635241473333332,-0.5750267407376187,22.19851777285714
12.30996933,-15.854025023952385,-14.41529918047619,-0.5338485876899997,21.730406464761906
12.31991533,-15.259348212047623,-14.122059477619048,-0.4568784860233329,21.07966845952381
12.32986033,-14.630387615857146,-13.777692890619047,-0.3939560971804758,20.368422026190476
12.33980633,-14.06972311061905,-13.444737813238094,-0.3905614265235711,19.719156727619048
12.34975233,-13.651354329666669,-13.139043791714284,-0.4440829404521424,19.198591820952384
12.35969833,-13.418145873952385,-12.844166312,-0.5314518696426186,18.827226535238093
12.36964433,-13.333202536809527,-12.53274394038095,-0.633304184975952,18.551418995238095
12.37959033,-13.355912453952385,-12.183435203285715,-0.7397194446426186,18.32021598714286
12.38953633,-13.41488880761905,-11.795642654619048,-0.8143240691664282,18.091509696190478
12.39948233,-13.391758782000002,-11.353450757571428,-0.7957142751188092,17.781432805238097
12.40942833,-13.145113536285717,-10.848365707666666,-0.6568244724378568,17.285552528904763
12.41937433,-12.529794995285718,-10.222893831666667,-0.4328163599616663,16.521192711809526
12.42932033,-11.513726837285716,-9.42158055347619,-0.15815025429499963,15.737771523047618
12.43926633,-10.157375175380954,-8.491810657619046,0.1481656045621432,15.152374699714285
12.44921233,-8.514055701095241,-7.437369896190476,0.45707885232404794,14.861727262095238
12.45915833,-6.66754977109524,-6.369726734333333,0.7735007602764289,14.834090402095237
12.46910433,-4.692453210619051,-5.41963850195238,1.1720489282288098,15.069722107333332
12.47905033,-2.422214486333336,-4.598028257238094,1.732086723181191,15.764589622095238
12.48899633,0.41105675366666394,-3.8733318670476184,2.4410741508478573,17.14318021447619
12.49894233,3.98433155938095,-3.24674801057619,3.138958050276429,19.325983348285714
12.50888833,8.103110933190473,-2.7016197803999993,3.636272595895476,22.095630236857147
12.51883433,12.257309565095236,-2.294205270447619,3.930964412847858,24.97361083352381
12.52878033,16.062746954619044,-2.091073834161904,4.257708716895477,27.60937287447619
12.53872633,19.52876901223809,-2.1103854054952373,4.844796009671667,29.970978002095244
12.54867233,22.716222198428568,-2.2838890838285706,5.629446574690476,32.057626275428575
12.55861833,25.664005811285712,-2.603277841066666,6.244204451285714,33.84510093971429
12.56856433,28.262306412238093,-2.9901017288761897,6.434309098714286,35.236199297333336
12.57851033,30.395820082238092,-3.437310759542857,6.223615263380953,36.279629367333335
12.58845633,32.02203316509523,-3.8993613880666658,5.769367159571429,37.00602846733333
12.59840233,33.20625861366666,-4.32213465387619,5.2259952100476195,37.46488624257143
12.60834833,34.030337232476185,-4.723788417114285,4.6490800674761905,37.800031422095245
12.61829433,34.492383210952376,-5.139766243685714,4.071396600761905,38.14268402700001
12.62824033,34.501610618428565,-5.658137900638095,3.5356170658095243,38.61362983314286
12.63818633,34.036457039714286,-6.330774511209523,3.0480379672380953,39.017818479523804
12.64813233,33.18921523314285,-7.122650578019047,2.6141999594285714,39.190113840952385
12.65807833,32.01648204138095,-8.031546457066664,2.2619419702857146,39.05904463571429
12.66802433,30.587534273571425,-8.963113104638094,2.0058966291428577,38.692375764761906
12.67797033,28.94271788433333,-9.822627465114286,1.8063970932380955,38.15207641761905
12.68791633,26.89036551638095,-10.612752736495239,1.5472362999047622,37.27589861095238
12.69786233,24.14500588257143,-11.369264829542857,1.1232365386666667,35.84761134761905
12.70780833,20.540323398761902,-12.140165876014285,0.6542552053333336,33.78120541714286
12.71775433,16.28818050733333,-12.95618124,0.35413321847619067,31.296052698095238
12.72770033,11.856582892571426,-13.725318431857142,0.1979484082380955,28.86816389428571
12.73764633,7.624883983523806,-14.37873119338095,-0.0636923293571426,26.84992390904762
12.74759233,3.681725230666664,-14.852830176666666,-0.6315547001428569,25.172861730476193
12.75753833,0.08541128161904493,-15.164346939047618,-1.419331408530476,23.713421356666668
12.76748433,-3.163695558857146,-15.351813183809524,-2.0638577384542853,22.48520431809524
12.77743033,-6.000635397904764,-15.51009152,-2.3177829627304756,21.628684928571428
12.78737633,-8.369377820285715,-15.661177001428571,-2.195465392635238,21.151841421904763
12.79732233,-10.232095350761906,-15.848903530476191,-1.847931426473333,21.02900338095238
12.80726833,-11.662797422666669,-16.10517362761905,-1.4364164174066663,21.199307351428573
12.81721433,-12.791407608523812,-16.40307356142857,-1.018870148073333,21.546444105238095
12.82716033,-13.700913379857143,-16.697110434761903,-0.6306891491495236,21.985939255238094
12.83710633,-14.403818923571428,-16.95260285190476,-0.29276792020761877,22.44158115666667
12.84705233,-14.889229150476194,-17.192618524761905,0.012478002601905024,22.85371312047619
12.85699833,-15.220206421047621,-17.417609526666666,0.277313104554286,23.20040296952381
12.86694433,-15.449351925000004,-17.63873869285714,0.47654822798285745,23.50388681761905
12.87689033,-15.59256145719048,-17.84631507142857,0.5902232305066669,23.755685875238093
12.88683633,-15.667734737476193,-18.018545810952382,0.5965405623161908,23.93940740142857
12.89678233,-15.67719603357143,-18.12933306190476,0.515282920149524,24.027335953333335
12.90672833,-15.5965371182381,-18.153333431904763,0.4374673389257146,23.99235331857143
12.91667433,-15.430597286952382,-18.053721324285714,0.3865817846066669,23.80869396857143
12.92662033,-15.19763522161905,-17.82125875047619,0.34498408683523835,23.479423446190477
12.93656633,-14.844975779523812,-17.487480636190476,0.3604642352638098,22.998556037619046
12.94651233,-14.361483327952385,-17.071728567619047,0.44646158257333357,22.371500945238097
12.95645833,-13.814837048952384,-16.613708926190476,0.5567099557400003,21.66865776952381
12.96640333,-13.296464480190476,-16.145093071761906,0.6502015453657146,20.97668412904762
12.97634933,-12.818746098142858,-15.644390621476187,0.7155357575276193,20.289790692857142
12.98629533,-12.331408127571432,-15.086446436190474,0.768274176137143,19.554400528095236
12.99624133,-11.766588479714287,-14.417940173523808,0.8263207806609526,18.686231122
13.00618733,-11.01518766089048,-13.628085057333331,0.9143280674514289,17.635645078380954
13.01613333,-10.03355116631905,-12.652125046719046,1.054476081289524,16.633291972809523
13.02607933,-8.783144647747621,-11.489254423195238,1.2763411648609526,15.96217839709524
13.03602533,-7.207503687747622,-10.19955675948095,1.5563302972228574,15.677043838523812
13.04597133,-5.169531460604764,-8.769719964242856,1.8573176719952382,15.936130066142855
13.05591733,-2.48395587631905,-7.1464807194809525,2.1580388661857146,16.93310603138095
13.06586333,0.7326627203476163,-5.426651375195238,2.4850049711380953,18.551514404714286
13.07580933,4.239814872252378,-3.7125483480523807,2.8873042462333336,20.566440773285713
13.08575533,8.010735534633332,-2.0742765804333323,3.2766331301380958,22.941193126619048
13.09570133,11.919828297966664,-0.533702096623809,3.5223065687571427,25.534361172809522
13.10564733,15.799320784871425,0.8059798219476196,3.6265652639238097,28.14653527042857
13.11559333,19.569792130966665,1.9101668565190484,3.5734683135285716,30.680223303761906
13.12553933,22.99533344110952,2.7078532045190484,3.505751479347619,32.87232903328571
13.13548533,25.831408031490476,3.3125963738285726,3.6078145380714286,34.48746376185714
13.14543133,28.010994029871426,3.7615670664,3.943875649357143,35.53924463471429
13.15537733,29.684156968776186,4.015131489828572,4.3740659345,36.21958812519048
13.16532333,31.209176411204762,4.230229058209524,4.684813801880953,36.745461303285715
13.17526933,32.498140110061904,4.30818937192381,4.838550619595238,37.03957883090476
13.18521533,33.46670267563333,4.2717261073047625,4.8395343718333335,37.132496571857146
13.19516133,34.09338411101428,4.130916494876191,4.65346825702381,37.18130187138096
13.20510733,34.28311991049048,3.8173387841142867,4.239167175023811,37.48047578080952
13.21505333,33.9142893807619,3.346984552685715,3.568357213928571,38.24867447490477
13.22499933,32.987475990476185,2.6560617706428578,2.6593321952142857,39.29285183380952
13.23494533,31.552581910476185,1.7592340018809527,1.4982927385,40.2788298552381
13.24489133,29.72614340190476,0.7064639572142862,0.22882942026190498,40.963808516190475
13.25483733,27.460723006190474,-0.5419301165952376,-0.9658869911666665,41.04603256523809
13.26478333,24.559957745714282,-2.0304085818333326,-1.9962667941666665,40.30395171190476
13.27472933,21.1398317647619,-3.6510233732619044,-2.867513843785714,38.861052883333336
13.28467533,17.45775297285714,-5.282691797071428,-3.603544671595238,36.93879370571428
13.29462133,13.513005002380948,-6.821709807547618,-4.146744351023809,34.61069612666667
13.30456687,9.414131778095236,-8.236791571833331,-4.418104691557143,32.04855275809524
13.31451287,5.355296165714283,-9.439240564214284,-4.492911086795238,29.45252406904762
13.32445887,1.4332484228571403,-10.409543623547618,-4.417208745,26.91963810809524
13.33440488,-2.127836441428574,-11.077973761071428,-4.393532617038095,24.72475492
13.34435087,-5.097467590952384,-11.563442752761903,-4.648009908990476,23.12569893904762
13.35429687,-7.430474560000003,-11.919903309809524,-5.2670080473238094,22.14496793809524
13.36424287,-9.291205262380956,-12.113923781904761,-6.092856785561905,21.611688387619047
13.37418887,-11.04605686666667,-12.304065405999998,-6.866403822419048,21.314624973333334
13.38413487,-12.58602368571429,-12.379750289666665,-7.509019393799998,21.29817915285714
13.39408087,-13.824556513809528,-12.358208785238094,-7.986490619514285,21.509945214285715
13.40402687,-14.745819615476194,-12.267612694095238,-8.24180326275238,21.794480226666668
13.41397287,-15.279566546619051,-12.089481752238093,-8.227930437371427,21.90531403285714
13.42391887,-15.413634792857145,-11.841829894333333,-7.909814813847619,21.664933262857144
13.43386487,-15.18716906809524,-11.537892961190476,-7.310292497942857,21.040648864285714
13.44381087,-14.692543935523812,-11.204483221,-6.47892084175238,20.10342322761905
13.45375687,-14.12479221519048,-10.85618744442857,-5.579081186228571,19.082105378095235
13.46370287,-13.615898679000003,-10.486752591238094,-4.760890915514286,18.165502787619047
13.47364887,-13.191706349476195,-10.085299916619046,-4.068561070647619,17.40005655142857
13.48359487,-12.87469097709524,-9.66727099790476,-3.5228076891714286,16.804572727619046
13.49353987,-12.692959236142858,-9.255931934333333,-3.1622437302190476,16.394120608095236
13.50348587,-12.601621495190479,-8.886635548666666,-2.960160170504762,16.115384767619048
13.51343187,-12.558263889952384,-8.557966758857143,-2.8745897613047617,15.906545065714287
13.52337787,-12.542220132809527,-8.254591854333333,-2.8434204682571425,15.732840783809522
13.53332387,-12.493150856142861,-7.96900273195238,-2.819204475242857,15.53741814
13.54326987,-12.329072444142858,-7.6694051845714295,-2.754097845090476,15.236793441904762
13.55321587,-12.02580178719048,-7.314741469857141,-2.612064488795238,14.783390520190478
13.56316187,-11.591775304095242,-6.896567014714285,-2.3982146083323808,14.16795700642857
13.57310787,-11.048905797285716,-6.442950827819048,-2.140959700994286,13.42986525704762
13.58305387,-10.447997023142861,-5.984270177780095,-1.8645850667085715,12.651660240714286
13.59299987,-9.868325948476192,-5.535325522899142,-1.5016482240895237,11.85279566204762
13.60294587,-9.281040323476194,-5.133389916756284,-0.9936281784228571,11.09557256004762
13.61289187,-8.641352648095241,-4.70779800399438,-0.3913108655657142,10.450743771619047
13.62283787,-7.936232819714289,-4.239594211327715,0.23986710648190493,9.963106508904762
13.63278387,-7.19900442619048,-3.836008918545809,0.8416426051961907,9.617902149047618
13.64272987,-6.412560686761907,-3.543578797688666,1.405770694577143,9.434084230285714
13.65267587,-5.491666711238098,-3.305120558641047,1.9520943185771427,9.442198452666666
13.66262187,-4.222186408238097,-3.009834963964857,2.431279321434286,9.747317612190477
13.67256787,-2.1397628125238124,-2.658273211141047,2.7139977182914286,10.772668591238094
13.68251387,1.003269521761902,-2.1860673613315234,2.7082798722866666,12.776682914571428
13.69245987,4.999834904619045,-1.5748647587600948,2.5155385760961906,15.544328475047617
13.70240587,9.45447182985714,-0.8892077494267615,2.4455913667485714,18.672642388857145
13.71235187,13.74485640223809,-0.29340103271247586,2.6131666922723813,21.59297062742857
13.72229787,17.480025907476186,0.11600327071609565,2.9780878014628573,23.977996038857142
13.73224387,20.61651426080952,0.38076255726847663,3.517877579415238,25.859915360761903
13.74218987,23.15807348080952,0.5511176282208575,4.172919096510476,27.357595256952383
13.75213587,25.132063775476187,0.674298901649429,4.811008867372381,28.57187344409524
13.76208188,26.620620064714288,0.6566365653637147,5.318172242219999,29.565010670571432
13.77202787,27.7309924787619,0.5890979146494291,5.638273054709524,30.382329401
13.78197387,28.506490230047614,0.4635814163732385,5.770252870228571,30.996122492761906
13.79191987,29.08416233638095,0.3524378388104767,5.766987054085714,31.409557128142858
13.80186587,29.47477622247619,0.2590632378819052,5.623282123276191,31.610762195714283
13.81181187,29.622980641428565,0.16181994154857188,5.300627918752381,31.698828412142856
