Time (s),Linear Acceleration x (m/s^2),Linear Acceleration y (m/s^2),Linear Acceleration z (m/s^2),Absolute acceleration (m/s^2)
0.2046090833,0.43458127245523814,1.7243163862095237,-0.4575758614714286,5.846743077619048
0.2145550833,0.26139431836,1.9514047840190478,0.07825741218571432,5.602586274142857
0.2245010833,0.17761479994571433,2.2936732228761905,0.3953252147571429,5.7247948153333335
0.2344470833,0.3354474112314286,2.614781312209524,0.4572461147571429,5.918940567428572
0.2443920833,0.50638697406,2.999840900333333,0.33671389451904765,5.941570252857143
0.2543380833,0.5704754090838096,3.301189187571428,0.2188331359476191,5.870405004
0.2642840833,0.7290318499790477,3.4688598505714285,0.5497191063761905,5.901712057952381
0.2742300833,0.7839797225504762,3.6304821815238095,1.168859527090476,5.5735474946190475
0.2841760833,0.6813280649790476,3.873476286738095,1.5704671253285716,5.389067836142857
0.2941210833,0.41528526588380954,4.382201729357143,1.8201327365190476,5.677345337619047
0.3040670833,-0.10713544177809521,4.910636353976191,1.7097785131,6.368036898809524
0.3140130833,-0.6168374530704762,4.863311997595239,1.3076509546761905,6.869576286428572
0.3239590833,-1.1473989607085713,4.498307217547619,0.8913217102000001,7.359789977999999
0.3339050833,-1.6902959491895235,4.050846004785714,0.3612417069619048,7.909929713523811
0.3438510833,-2.1737557957609526,3.560910840214286,0.18959051015238093,8.30255419452381
0.3537960833,-2.607888447542381,2.6982740664047618,0.2172883530571428,8.662556997904762
0.3637420833,-2.9916517079699996,1.756449759595238,0.18428611105714282,9.027895778285714
0.3736880833,-3.24609343632381,0.6892202744523809,0.2495814113523809,9.567894512809524
0.3836340833,-3.2421215132238097,-0.4827168883095238,0.4771220774,10.344453347142856
0.3935800833,-3.071804790252381,-1.5418047104523809,0.6459568374952381,11.136689293666667
0.4035250833,-2.9018346957857144,-2.8014204821190476,0.6092617725095238,12.03808083795238
0.4134710833,-2.635197903114286,-3.9724973801190475,0.514477289547619,12.626481911619047
0.4234170833,-2.2779625691142855,-4.693858434880953,0.42972072922380944,12.881632413666667
0.4333630833,-1.8285684060333334,-5.142585040833334,0.26160648527142855,12.933812365142858
0.4433090833,-1.2960493342238095,-5.401324584071429,-0.02122055144285715,12.999695464190475
0.4532550833,-0.8799285847666667,-5.554887530642857,-0.41222558844285717,13.064708114047619
0.4632000833,-0.714057973195238,-5.6214663505,-0.8455393515857142,13.070272205809525
0.4731460833,-0.7202010161952381,-5.46929509697619,-1.200057540204762,13.011331792428573
0.4830920833,-0.8288974417285715,-5.281942204880953,-1.4277635641095239,12.922158298285714
0.4930380833,-0.9614472163333335,-5.181271695380953,-1.6822865687285713,12.895554803619047
0.5029840833,-0.8977232647428572,-5.372258938238096,-2.1712117798714283,12.740442227714285
0.5129290833,-0.533318826647619,-5.744585323333333,-2.548323498442857,12.509190267714287
0.5228750833,-0.22101049045714283,-5.621822473809524,-2.675506063109524,12.453049478190476
0.5328210833,0.027434639923809498,-5.209935470428571,-2.5728816090619047,12.223788692095237
0.5427670833,0.17409656330476186,-4.693832623666667,-1.9618652821095237,11.950943791
0.5527130833,0.1587229246857143,-4.078772752142857,-1.278950700252381,12.16325277957143
0.5626590833,0.058348618542857236,-3.2638683032857148,-0.7398779300142857,12.337424792428573
0.5726040833,-0.07803646117142844,-2.3320202651904762,-0.24305638810952382,12.449448314809523
0.5825500833,-0.2068516243619046,-1.2187624172857143,0.15946515760476193,12.341022217190476
0.5924960833,-0.4315031463571427,0.007857293714285637,0.3855432122238095,11.86213513004762
0.6024420833,-0.7829423582142855,1.0773125354761905,0.5662825414142858,11.241600244380953
0.6123880833,-1.1232497940714286,2.1830787356047616,0.756516690752381,10.397649409619047
0.6223330833,-1.484334085595238,2.9676188717476193,0.9907966104285715,9.742951858571429
0.6322790833,-1.798416459933333,3.1037830383190474,1.312090864,9.581014275285714
0.6422250833,-2.0084849495047616,2.5650549196999997,1.5496454298095237,9.809312928095238
0.6521710833,-1.9098374653619046,1.5359761780333334,0.9148324387619049,10.586294019523809
0.6621170833,-1.6282728983142856,0.4458165584619048,-0.155456894047619,11.793049937333333
0.6720630833,-1.3721361176476188,-0.4289234504428569,0.09327842514285725,12.388870940809525
0.6820080833,-0.9901146729809521,-1.3678683652999997,0.6365523085238096,13.248324965761904
0.6919540833,-0.47792787339999976,-2.5087753571095237,1.2340925226666668,14.402935897523808
0.7019000833,0.01652314620476215,-3.7413922790142853,1.8058836665714286,15.511568548333333
0.7118460833,0.43773423799523836,-4.931797705347618,2.394694496,16.29279876947619
0.7217920833,0.9750484721380955,-5.942164298823809,3.175538802333333,16.700766470428572
0.7317370833,1.6415453251857146,-6.761370543966667,3.946177600904762,16.915099007095236
0.7416830833,2.3629755441380955,-7.443300259585714,4.3631888813333335,17.12122366604762
0.7516290833,3.0580616341857145,-8.019585712680952,4.273203685095238,17.124342297142856
0.7615750833,3.7252223689952384,-8.518510275204761,3.6375524258095235,16.677683905619045
0.7715210833,4.365890942709524,-8.892367656204764,2.4881653562857147,16.35563154609524
0.7814670833,4.7471689134714286,-9.141181411633331,0.4920749529523813,16.979292431809522
0.7914120833,4.87288201742381,-9.29265609472857,-1.3300236965714285,17.607082433714282
0.8013580833,4.862452505947619,-9.31943531220476,-2.5298394648571425,17.98765189657143
0.8113040833,4.757930797471429,-9.225774667538095,-3.3028028379523806,18.292578912238096
0.8212500833,4.528264097757143,-9.039260238333334,-4.051764114999999,18.741580519380953
0.8311960833,4.112350297852381,-8.779372636095237,-4.882049441952381,19.280105063761905
0.8411420833,3.6718599337142863,-8.328837597714287,-5.440866449666667,19.41888077942857
0.8510870833,3.2211211059523817,-7.4844913044285715,-5.44922118804762,19.11858182938095
0.8610330833,2.4668865593809524,-6.309477698809523,-4.339727833380953,18.310942192714283
0.8709790833,1.6159295990000002,-5.020788262285714,-2.698071530380952,17.213688682238097
0.8809250833,0.9440065435238099,-3.797601562952381,-2.3267920475238095,16.937974253190475
0.8908710833,0.28711434061904784,-2.440132915809523,-2.2081665762380953,16.606478848428573
0.9008160833,-0.355584470238095,-0.8318124800952379,-2.2101883205238093,16.08187530747619
0.9107620833,-0.9187201409047616,0.8478826341904764,-2.2132312115238095,15.560240043666667
0.9207080833,-1.3713216688571426,2.4453396113333334,-2.1066105753809525,15.220167824142859
0.9306540833,-1.8592502151904762,3.8543247341904765,-2.001889838809524,15.019392778904763
0.9406000833,-2.372407220790476,5.057564158476191,-1.8802067194285716,14.93007680795238
0.9505460833,-2.8120583911428567,6.093274840142858,-1.6858140303333335,14.955579203666668
0.9604910833,-3.094721058466666,6.958756006095239,-1.4738218903333333,15.085362385571429
0.9704370833,-3.251458089514285,7.662230623142857,-1.2438146460000001,15.267872580428573
0.9803830833,-3.310245891252381,8.181175300285714,-0.6413248958095238,15.157304660238093
0.9903290833,-3.1677671702885712,8.495103064476192,0.8230299068190476,14.100564888666664
1.000275083,-2.9222735126599995,8.688214767857144,2.1197704870952383,13.126150400857144
1.010220083,-2.6495250709647618,8.791744176,2.5647221028095237,12.738495899428571
1.020166083,-2.366899596138571,8.855523933666667,2.007021356142858,13.222439212285714
1.030112083,-2.053604577233809,8.984258043333332,1.6157761380476192,13.526990833714287
1.040058083,-1.596145022362381,9.212219987333333,1.6236567928095242,13.45213981514286
1.050004083,-1.2163426240814283,9.503176491476191,1.5589591892857144,13.503328351333334
1.059950083,-0.9997340934242854,9.768733915809523,1.2745635951904764,13.66378673995238
1.069895083,-0.8414015939290475,9.969665935904763,0.9859430815285715,13.69514432757143
1.079841083,-0.6756454624623808,10.038747029904762,0.779401883052381,13.611212129952383
1.089787083,-0.5038006114290473,9.965558406142858,0.5732126312428573,13.408669922761906
1.099733083,-0.34234724409095213,9.736965659,0.24866476395714296,13.013632296095238
1.109679083,-0.20633475009095217,9.353207327047619,-0.06450070432857133,12.517386180238097
1.119624083,-0.02441830675761882,8.718729381342857,-0.26704090375714273,12.046972635333335
1.129570083,0.2699192941947621,7.440956000390476,-0.28286280104285694,12.102170418666667
1.139516083,0.5118918699566669,5.823230847533334,-1.1104767020904762,12.454165332952382
1.149462083,0.6662837428900003,3.891152920866667,-2.6792885043285715,13.524656245809524
1.159408083,1.004641174099524,0.9886736465809532,-3.290369512614286,15.212387957714284
1.169354083,1.5028173975185717,-2.638608493419047,-2.877809132661905,17.829003576285714
1.179299083,1.9459839346614287,-5.964618192609523,-2.7737980809952383,20.228893578190473
1.189248333,2.2251289448757143,-8.505940182847619,-2.617158301709524,21.944475856476192
1.199194333,2.295206703769048,-10.103200721609523,-2.561421249909524,22.755135649
1.209140333,2.380506275521429,-11.160300963609524,-2.4505615990428575,23.07480286204762
1.219086333,2.446463738207143,-11.906667747466665,-1.9803231145666669,23.011755361333332
1.229032333,2.5552614389523813,-12.453515783133334,-0.8706202658809525,22.16915980004762
1.238977333,2.7206359630000003,-12.907161150419048,0.021550237061904672,21.32391729014286
1.248923333,2.8499461277952385,-13.286137740871428,0.4707994447285714,20.77919824504762
1.258869333,2.9706996651809527,-13.598177105014283,0.6260171812047619,20.46620311780952
1.268815333,3.0780499363809524,-13.852414653966665,0.5436175221095239,20.294332037619046
1.278761333,3.15083249192381,-14.036761742966664,0.2677762096285714,20.190885390666665
1.288706333,3.1459944987333337,-14.08608885420476,-0.16210947022857145,20.176159801619047
1.298652333,2.9779499619857144,-13.987997969299997,-0.6624199341809524,20.286823458333334
1.308598333,2.6903486388857147,-13.72332907072857,-1.1637197192285715,20.603804266428572
1.318544333,2.3718507117904766,-13.312915287347618,-1.7822643781333334,21.11302930847619
1.328490333,2.024263847457143,-12.67489448592857,-2.336427781847619,21.52784507052381
1.338436333,1.5991290999809524,-11.424525278309522,-2.780654509847619,21.329901283380952
1.348381333,1.2491234026476195,-9.84048749402381,-2.2018196986095235,20.864372527190476
1.358327333,0.9985297826000005,-7.935379209261904,-0.7488127819904762,19.728827383380953
1.368273333,0.5495805647904766,-5.038508751166666,-0.1998556556095237,18.016527914333334
1.378219333,-0.08771305197142819,-1.3775569516428565,-0.5865937288952379,15.447321097190477
1.388165333,-0.6876195715904758,2.0284496188333336,-0.5415879884666666,13.18414176909524
1.398110333,-1.0960185228761903,4.672680154071429,-0.47591067003809506,11.645960236238095
1.408056333,-1.2340727880190474,6.370060589309524,-0.30528362694285704,10.997112707666666
1.418002333,-1.3540552168761901,7.507795772880953,-0.21971074660952367,10.795073485761904
1.427948333,-1.4843711097476187,8.351649090261905,-0.18484730799047608,10.800365702571428
1.437894333,-1.6392640612333327,9.02554759945238,-0.1456671171999999,10.948459496190477
1.447840333,-1.8160512852333328,9.5542584075,-0.11468394658571417,11.217964496142857
1.457785333,-2.01163144637619,9.955537921238097,-0.09175010872857133,11.501347086857143
1.467731333,-2.212053095138095,10.249917580380954,-0.12645714825238086,11.742815151714286
1.477677333,-2.379335447328571,10.415022345952382,-0.26083195544285703,11.95394464095238
1.487623333,-2.4830624844142855,10.443365999904763,-0.4497672990142857,12.106977546
1.497569333,-2.4878403905047617,10.313412021857143,-0.5701457096333333,12.089779717380951
1.507514333,-2.2943429866476186,10.129927202285714,-0.560429224347619,11.916118401333332
1.517460333,-1.879434364980952,10.003253456285714,-0.3882107362047619,11.71505636695238
1.527406333,-1.4118771908380947,9.89119012047619,0.033096378676190474,11.451272512190476
1.537352333,-0.9895290592666663,9.772292336238095,0.3582537518952381,11.252120492190476
1.547298333,-0.5803796665999995,9.663031598619048,0.3789165311904762,11.148539248380953
1.557244333,-0.17411382831428537,9.552038971476192,0.16493216133333333,11.048417250761904
1.567189333,0.24130809535238132,9.45745352004762,-0.14203919826190475,10.953662705523808
1.577135333,0.6105027395428574,9.323741926190477,-0.42565599890000005,10.803321152666667
1.587081333,0.8433182484476193,9.083374529619048,-0.5951500743285715,10.531849356857142
1.597027333,0.9505344444190479,8.743602350428572,-0.672309597947619,10.208525923666667
1.606973333,0.9724416434666672,8.271455529857143,-0.7837333319476192,9.799142647619046
1.616918333,0.9168381866095242,7.585092177142859,-1.090558733947619,9.47577239452381
1.626864333,0.7151025431809528,6.408590287857144,-1.7544297697095235,9.887405943095237
1.636810333,0.6041755092904766,5.125721308857144,-2.163188067185714,10.359678282238097
1.646756333,0.6213684185619052,3.7751038721904773,-2.321758054138095,10.868715136095238
1.656702333,0.7862714203714289,1.7606196876666673,-2.252226696695238,12.039110751285714
1.666648333,1.04053575532381,-0.8309856841904755,-1.7547413566952381,13.780228501857144
1.676593333,1.3922723189904767,-3.876496819047618,-1.3353728966,15.899158345190477
1.686539333,1.982965562228572,-6.961016845666666,-0.9591322183528571,18.06314271709524
1.696485333,2.711343588942858,-9.40545030538095,-0.2541363507338096,19.69684618090476
1.706431333,3.189921372376191,-11.028848482809524,0.40951026312333333,20.674930297142858
1.716377333,3.437795807376191,-12.180784576095236,0.8025344411709524,21.19996406747619
1.726323333,3.5028699715190483,-13.117779945809524,0.9003482795376191,21.293935815666668
1.736268333,3.5210037186619045,-13.82330089338095,0.6198181996566665,21.201789565761903
1.746214333,3.499695545995239,-14.322931493242859,0.036663517675714206,21.26010336052381
1.756160333,3.354966677233334,-14.700177641957143,-0.47976886147666675,21.259301904809526
1.766106333,3.0784555313761905,-14.985777038528571,-0.7599916319052382,21.11440589552381
1.776052333,2.665655972566667,-15.18719073005238,-0.9127967793100001,20.926945175761904
1.785997333,2.1854378223761906,-15.264017073766668,-1.0520302886242858,20.870316231666667
1.795943333,1.733645827519048,-15.1370823751,-1.3921336705766667,21.08155783557143
1.805889333,1.338012169404762,-14.802831415433335,-2.080309743957619,21.565169482571427
1.815835333,1.01220839002381,-14.261135472957143,-2.7634746140528574,22.23260058195238
1.825781333,0.8724190611190481,-13.49763019357619,-2.841218525100476,22.64269001266667
1.835727333,0.9584765155476196,-12.20704907119524,-2.2138575595766667,22.348488983142857
1.845672333,1.0075179694047622,-10.767703589290475,-1.6967726311480955,22.066116038380954
1.855618333,0.9631918494285718,-9.241781671195238,-1.3106968943861905,21.79728352314286
1.865564333,0.7968441677142861,-7.04656350357619,-1.062525747957619,20.876486589809524
1.875510333,0.5774801366666671,-4.2733700097666665,-1.1415956404814285,19.362672655047618
1.885456333,0.29754449935238136,-1.0386866911952377,-1.0505601172433334,17.414838030285715
1.895401333,-0.2065135984514282,2.240164879280953,-0.8408358616333332,15.327247690285715
1.905347333,-0.8523502685561901,4.8797292249952395,-0.9636733327285713,13.700649832190477
1.915293333,-1.2938012188514283,6.738439797852382,-1.1741604550619047,12.783004440761905
1.925239333,-1.5955278696238093,8.090018962138096,-1.2924272029619046,12.365137791238096
1.935185333,-1.8511073129619044,9.095429260709526,-1.3075244910238095,12.294386256000001
1.945130333,-2.1197376859619044,9.807548373614287,-1.1463947740238094,12.375442143047618
1.955076333,-2.363581412533333,10.296137564809523,-0.8061969177857142,12.326038627809524
1.965022333,-2.532704892819047,10.630869248952381,-0.5423719954047618,12.31817753447619
1.974968333,-2.5962208018666666,10.856951786476191,-0.41508732697619033,12.407832789809525
1.984914333,-2.5462818769619044,10.983874178142859,-0.3629546938333332,12.479974449047617
1.994860333,-2.379621647628571,11.024825152952381,-0.33379184497619035,12.45125595404762
2.004805333,-2.101398611052381,10.966305049238096,-0.210554730595238,12.26674424042857
2.014751333,-1.722624348163809,10.820207020000002,0.15030384454761914,11.875378729238095
2.024697333,-1.2946602235114282,10.653412242238096,0.5427828808809525,11.451432574047619
2.034643333,-0.9607381211780949,10.546792051428572,0.5559508662142857,11.294600158333335
2.044589333,-0.7023134017971424,10.47314508952381,0.27861776197619054,11.20592689452381
2.054534333,-0.496011027273333,10.411390695714285,-0.06605722378571428,11.11325134547619
2.064480333,-0.3156666705114282,10.343857805238097,-0.4104240751666667,10.986994940714286
2.074426333,-0.1347964054638092,10.260845831428572,-0.6720325129666667,10.84106390357143
2.084372333,0.003439979536190796,10.145725404285717,-0.8088978999190478,10.684963100238097
2.094318333,0.050794114921905074,9.981529045333335,-0.7837970282523811,10.550403867380952
2.104263333,0.04268101967333365,9.769766394714287,-0.7159097964428573,10.392456153571429
2.114209333,-0.0033389760076187247,9.55372255209524,-0.644046068204762,10.222272914380952
2.124155333,-0.045794160979047295,9.289086008190477,-0.547343660252381,10.009832087761904
2.134101333,-0.050235754716190156,8.846647136095239,-0.4190782989238096,9.675997672428572
2.144047333,-0.028918038539999677,7.911555564333334,-0.21690526289523818,9.655502106142857
2.153993333,0.024852886998095566,6.505353381476191,0.06348281662857135,10.092424164238095
2.163938333,0.05460547628380986,4.51764691104762,0.1711149653904761,11.107726204238096
2.173884333,0.03503668318857176,1.264611048000001,-0.3606174608000002,13.520466488047619
2.183830333,0.23684854228380986,-3.1736317881904754,-1.1713191539428573,17.195295145333333
2.193773333,0.8515681893314289,-7.167723464999999,-1.1007332859428574,20.381777239666665
2.203719333,1.5091090640933336,-9.799855276047618,-0.6746682881809525,22.298385339238095
2.213665333,1.7295180760885718,-11.415166364428572,-0.36945499141904786,23.15035999
2.223610333,1.7797319802476192,-12.59788763090476,-0.1613961898952383,23.52568364833333
2.233556333,1.7617691667000002,-13.515567475523808,0.04075675677142837,23.573388487809524
2.243502333,1.6947423735952385,-14.279390787619045,0.2131623558190474,23.387630066
2.253448333,1.6006940516193813,-14.924509663476188,0.3126589114761903,23.020811349095236
2.263394333,1.4866723440289051,-15.449627942152382,0.2786662068095236,22.624994196523808
2.273339333,1.3590254405955715,-15.833076817247619,0.12836050738095217,22.331873451857142
2.283285333,1.2268221048241432,-16.093651857152377,-0.11124619443809544,22.128200335714286
2.293231333,1.1152209321955717,-16.247651089438097,-0.449132173009524,21.986511051190476
2.303177333,1.0568205815670002,-16.29697711477143,-0.8726416033904764,21.87404417690476
2.313123333,1.0290304710098575,-16.21637302424762,-1.1794043566,21.867362992095238
2.323068333,1.031125152481286,-16.04321538972381,-1.3893433999428573,21.975890311285713
2.333014333,1.0395886456098575,-15.733854662961903,-1.6008734845904764,22.227287597904763
2.342960333,1.1060855104527145,-15.151543821342855,-2.0152306859238096,22.75362276942857
2.352906333,1.3089831766146194,-14.014233702438094,-2.7135648066380957,23.17917417285714
2.362852333,1.4952939695527145,-12.402080611485712,-3.181626010780952,23.01679776952381
2.372797333,1.650258646886048,-10.202084266247619,-3.1130337718238095,22.169016207142857
2.382743333,1.7986777943622383,-6.719492201961903,-2.177266930157143,19.930549233333334
2.392689333,1.6944896451527147,-2.059479790057142,-0.8982159600619049,16.468179378095236
2.402635333,1.1563525651336672,2.1387393547047626,-0.5488094700619047,13.513262904761906
2.412581333,0.5591724348998575,4.944991892323809,-0.6206674624904762,11.808190716190476
2.422527333,0.3717102173108099,6.690721227561906,-0.6156444258238095,11.123246423333333
2.432472333,0.3187499246865242,7.9419013050857155,-0.5388777793952382,10.845324497142858
2.442418333,0.30200700738652414,8.855195125371429,-0.47924174853809526,10.806309687809524
2.452364333,0.32496563326271466,9.546315661609524,-0.4081642202047619,10.916418217476192
2.462310333,0.3609079945338099,10.0832892258,-0.2826692174333334,11.161963153238096
2.472256333,0.3988849815004765,10.478503534142858,-0.08888491719523814,11.409795730666666
2.482201333,0.4447578953433337,10.734106770095238,0.10766584001523805,11.562436271333334
2.492147333,0.47536310262904796,10.901314918333336,0.2133710806342857,11.670631592238095
2.502093333,0.46189850682904793,10.998200608666666,0.1342390405866667,11.794290358666666
2.512039333,0.38310205171952416,11.033036843809525,-0.22391394427047617,12.033737310095237
2.521985333,0.2529762838528575,11.00473623652381,-0.7083086492990476,12.25881940157143
2.531930333,0.12531673231000034,10.940943614904763,-1.0756985086228572,12.33937297252381
2.541876333,0.03675555930523844,10.833311605380953,-1.2891561835942855,12.303003518714284
2.551822333,-0.07092828512333299,10.65828545152381,-1.1883492390704762,12.103678415380951
2.561768333,-0.25898869725666634,10.42432259357143,-0.7308586872609524,11.671380966904762
2.571714333,-0.3848113146376187,10.204752127904763,-0.42073579674714284,11.36745579852381
2.581660333,-0.4118392406376187,10.016457193619049,-0.3231179862757143,11.181889710428571
2.591605333,-0.3585778407804759,9.865283503142857,-0.3274629687042857,11.039283990904762
2.601551333,-0.2857829678090473,9.74928894504762,-0.30243560489476196,10.948558919952381
2.611497333,-0.25200788050428535,9.62059774266667,-0.25531222570428574,10.85927186804762
2.621443333,-0.24940581385142827,9.433999726142858,-0.2863159311804762,10.678740709666666
2.631389333,-0.26040510518619014,9.208496592142858,-0.37657839679952393,10.436327030142857
2.641334333,-0.2553926805023806,8.923705503523811,-0.4733838897995239,10.13704866309524
2.651280333,-0.21221047083095204,8.413837960476192,-0.6408445681376191,9.776295302809524
2.661226333,-0.21362503063571392,7.176627382380954,-1.3637198010423812,10.402283002571428
2.671172333,-0.3114964362642854,5.832481086904762,-2.2064504807566667,11.220506061333333
2.681118333,-0.34251156121333304,4.2627968243809535,-2.5978614815661905,12.056417724095239
2.691063333,-0.2757200802419045,1.49360338304762,-2.511532959967143,14.02898784047619
2.701009333,-0.048079454660952065,-2.2469039062380944,-2.287451283967143,16.92001498904762
2.710955333,0.46015553186285746,-5.8207260666666665,-2.4901852768242856,19.60839736904762
2.720901333,1.0960634838628576,-8.463814250857142,-1.9995047524266667,21.192138143333334
2.730847333,1.4649913140057147,-10.150349020142857,-1.214941728331429,21.784988018571433
2.740793333,1.7107261205771433,-11.39873991995238,-0.5519096289504765,22.04938102047619
2.750738333,1.9132998927676197,-12.369114621380954,0.005169307811428325,22.128723965238095
2.760684333,2.035904686481905,-13.172772312857143,0.44027632847809495,22.082498008857144
2.770630333,2.0655847702819052,-13.867437626142857,0.6894034111447617,21.910189061809522
2.780576333,2.0436985550723814,-14.455283915571428,0.7731958561071427,21.58848415157143
2.790522333,2.008526922939048,-14.929820827604763,0.708050749188095,21.123345366038095
2.800467333,1.9567988683723816,-15.332267167366668,0.44191734609285693,20.73762734175238
2.810413333,1.9505639196580957,-15.635954730890475,-0.09913838209761931,20.47922639251429
2.820359333,2.011036345991429,-15.78129802360476,-0.7282981459071431,20.357956000038094
2.830305333,2.082910919429524,-15.76468424622381,-1.2074959709071431,20.392874059847617
2.840251333,2.157606363734286,-15.595788814271426,-1.5099089804309527,20.56384547413333
2.850197333,2.2348175899604765,-15.237737905080952,-1.8082589616214289,20.93860451784762
2.860142333,2.279999554341429,-14.52382781803333,-2.196873113902381,21.597529048419048
2.870088333,2.4036112385652384,-12.99723391517619,-2.3047820867595243,21.55697430222857
2.880034333,2.5730491807557145,-11.408539630890475,-2.099314938188096,21.17962208175238
2.889980333,2.529318902519048,-9.695482587080951,-1.849829337711905,20.492886812228573
2.899926333,2.291618511376191,-6.835843857080952,-1.721750039616667,18.67179994984762
2.909871333,1.8935865551380955,-3.024873387080952,-1.5096526497119052,15.969729606514287
2.919817333,1.2698217666619052,0.6044726524428577,-0.6722762930928574,13.41714539175238
2.929763333,0.6035946510428575,3.3017811486333337,-0.32477766601428604,11.79008927889524
2.939709333,0.2708752861857146,5.055634549585714,-0.29977669820476227,11.10420991889524
2.949655333,0.07159024566190508,6.355314551966667,-0.3558357366809527,10.814430776514286
2.959601333,-0.10381814919523778,7.344282313252382,-0.4379951865380955,10.740793297466668
2.969546333,-0.2381076149095235,8.133407056490476,-0.5114231842047622,10.791003365276191
2.979492333,-0.3305869931952378,8.800491833204763,-0.5746820942047622,10.945305795038095
2.989438333,-0.4012225764476187,9.371066951157143,-0.6795977344904766,11.2488171938
2.999384333,-0.437232869833333,9.83037665547619,-0.7967674681428575,11.702510234571427
3.009330333,-0.4189948125285711,10.188535181285715,-0.8447851371904765,12.042437351238094
3.019275333,-0.39481070767142823,10.437766177333334,-0.7656840595238098,12.207901136666667
3.029221333,-0.3709774496714282,10.567161690571428,-0.6404228061428574,12.257309086761904
3.039167333,-0.32226181795714254,10.625136583190477,-0.5555506380000003,12.280988284857141
3.049113333,-0.2526198506714282,10.606932112571428,-0.5402242225714289,12.272590518190476
3.059059333,-0.1937566546238092,10.497176839809525,-0.4798448435238099,12.164316818190477
3.069004333,-0.14531442200476155,10.296998080238096,-0.22173393166666705,11.886618436761905
3.078950333,-0.14825912157619012,10.05651206852381,0.32769963147619,11.382657448190477
3.088896333,-0.08480886838571394,9.883135525476192,0.6690688240476187,11.071546678666667
3.098842333,0.16534659680476227,9.827875495,0.5077499357619043,11.107648545809523
3.108788333,0.5257458591857146,9.835550939761905,0.044068240476190165,11.154973274380954
3.118733333,0.872945672614286,9.83146724452381,-0.4248406428571432,11.069916004857143
3.128679333,1.1094773376142861,9.756010151571429,-0.6596991828095241,10.87390356704762
3.138625333,1.2335272254238099,9.596857266714286,-0.7376586055238098,10.681412023714286
3.148571333,1.3202398011857146,9.325293053428572,-0.8723625831428575,10.36855480995238
3.158517333,1.389316461061905,8.925110895095239,-1.050376204904762,9.92782782152381
3.168463333,1.3794564823000004,8.140215192333335,-1.5503323554761907,9.813002408666666
3.178408333,1.285287658919048,6.803390835857143,-2.347998265857143,10.398585161999998
3.188354333,1.2621385077761909,5.6090789960952385,-2.6040907606666672,10.73072900395238
3.198300375,1.270040344519048,4.044068719428573,-2.489395805333334,11.39579073
3.208246375,1.3351028386571433,1.3573052033333344,-2.0303998459047623,13.154414707619047
3.218192375,1.3018310922004763,-1.7385527974761898,-2.173986133952381,15.299820844285716
3.228137375,1.2557767998004765,-4.6958577933333325,-2.5709591178095246,17.350995664285715
3.238083375,1.2316373774195242,-7.006482205761904,-1.920314595428572,18.746333218095238
3.248029375,1.1656918388957147,-8.600416848285713,-1.2151756381904766,19.49380430952381
3.257975375,1.0799070561338098,-9.792058125619047,-0.6201763384761907,19.869759657142858
3.267921375,0.9875694310480955,-10.771643027142856,-0.12205086761904786,20.04408043190476
3.277867375,0.9291630278576195,-11.660170297285713,0.29970094538095216,20.109371458571427
3.287812375,0.8880399082385718,-12.536727008285714,0.6529982353333331,20.102379377619048
3.297758375,0.8237534196671432,-13.436794343238095,0.926137271047619,20.033730325190476
3.307704375,0.7740389442861909,-14.303089580714284,1.1041273508095235,19.881021476
3.317650375,0.7880289089052385,-15.044907147047617,1.0967968914285713,19.707447999142857
3.327596375,0.8405148949052385,-15.629411140190475,0.884987964190476,19.59072879052381
3.337541375,0.9527061177623815,-16.031953262690475,0.46015060328571405,19.47428897038095
3.347487375,1.1053529761909526,-16.235239149166667,-0.03258482066666693,19.32461821152381
3.357433375,1.216202816429048,-16.205690690357144,-0.37101993628571456,19.35892814109524
3.367379375,1.2745865216385717,-15.886298034833331,-0.6142231630000003,19.684935745238096
3.377325375,1.379944270576667,-15.000442079071428,-0.7503741872857146,19.96932129761905
3.387270375,1.4955900980147623,-13.384981246214286,-0.9510349244285715,19.966431830476193
3.397216375,1.4359698198242863,-11.872840268595237,-1.648642848857143,20.32426596904762
3.407162375,1.309253841829048,-10.090456910023809,-2.159967532,20.009484645714288
3.417108375,1.1392278994480958,-7.2794612228809505,-2.4438157710476194,18.37620381
3.427054375,1.046250735166667,-4.109372318119047,-1.755605783809524,16.408406080952382
3.437000375,0.9454929629476193,-1.1012467209761896,-0.7040292671428573,14.560502277619047
3.446945375,0.8567809065523814,1.2448700399761914,-0.7611726021428574,13.306094693333334
3.456891375,0.8775085342190481,2.862678334738096,-0.9551707990000002,12.65066832142857
3.466837375,0.9587595530285717,4.073074695500002,-1.124332362761905,12.34073765095238
3.476783375,1.0481711756857146,5.079628737595239,-1.2672595303333336,12.216548085238095
3.486729375,1.094025514161905,5.98359042954762,-1.382344428809524,12.168937256190477
3.496674375,1.1049624386857146,6.850801480119049,-1.4885297537142859,12.13890886395238
3.506620375,1.1305004454000003,7.730289511738096,-1.6108816274761906,12.138219904142858
3.516566375,1.1243863879238098,8.588947839976191,-1.6996229817619048,12.232188654285716
3.526512375,1.0404279307809527,9.316049356785715,-1.641228342619048,12.350458774
3.536458375,0.9382691934952383,9.890072911833334,-1.4725960354285716,12.454971590714287
3.546403375,0.8592581768761908,10.339339577761905,-1.3128090061904765,12.614085692
3.556349375,0.8023518977333336,10.658257188761906,-1.171731145857143,12.79453220052381
3.566295375,0.7518052295761908,10.841067740952381,-1.0570901902857146,12.922646836142857
3.576241375,0.6892130326666669,10.858553393857145,-0.9651875250000002,12.91495145757143
3.586187375,0.5741984817761908,10.701481449619049,-0.689696460714286,12.66093678957143
3.596133375,0.4755125590047622,10.394310922809526,-0.05540181147619084,12.05291846652381
3.606078375,0.46986847838571455,10.082672482761906,0.6351551922857139,11.400132058428571
3.616024375,0.5304765601476193,9.870931271952381,0.9430830519523806,11.076135298428571
3.625970375,0.5995617193761907,9.747216161809526,0.8366473131285711,10.942301831666667
3.635916375,0.6795954348809526,9.680835896571429,0.48924852724761875,10.747649772619047
3.645862375,0.7389791827476193,9.63437804209524,0.16894018396190444,10.536413703571428
3.655807375,0.7168608826857147,9.565732593428573,0.0013398824857139755,10.384881758809524
3.665753375,0.5996157234523812,9.419901225428573,-0.09925355518095268,10.205360649761905
3.675699375,0.43760120440476225,9.179498132809526,-0.20333097275238124,9.935380371333334
3.685645375,0.2666622611238098,8.771945141428573,-0.34095148584761925,9.508592557238096
3.695591375,0.14271545834761937,8.077622586380953,-0.4685359911190479,9.264072328809524
3.705536375,0.08983002401428604,7.065690832333336,-0.5102857234190479,9.39200306247619
3.715482375,0.05191716501428604,5.806329024428571,-0.3680453322285717,9.764741571857142
3.725428375,0.022296938585714608,3.8257593589047625,-0.3921392576571431,10.772306075666668
3.735374375,-0.05862535184285683,0.8050670370000013,-1.0948775708476193,12.923637638047618
3.745320375,-0.16906468619523776,-2.930030408238094,-1.8762572037047622,15.787224886619047
3.755266375,-0.23572927217619016,-6.326809515380951,-1.9559102585619048,18.23019357233333
3.765211375,-0.2663953775095235,-8.567120185047619,-1.7698415125142861,19.550272766952382
3.775157375,-0.21974136787619017,-10.078296789904762,-1.6350145762761905,20.162506495523807
3.785103375,-0.050635373528571115,-11.24204540047619,-1.4553031388476196,20.45857687266667
3.795049375,0.249607664614286,-12.193126629095238,-1.1931819280857145,20.590794092095237
3.804995375,0.5895157217571432,-12.965380066904762,-0.8975912548952384,20.548879051714284
3.814940375,0.9113385079476194,-13.58602767690476,-0.6309207989428574,20.344398305095236
3.824886375,1.2267324266619053,-14.078558476180953,-0.4393817877523811,20.100911016285714
3.834832375,1.480567436766667,-14.455868805085716,-0.3881628098857145,19.855041483904763
3.844778375,1.6989671923571432,-14.720620956514287,-0.5008581462428574,19.68242906957143
3.854724375,1.9280077492523813,-14.866815408990476,-0.786801929909524,19.599118082285713
3.864670375,2.1723742064238096,-14.8973688928,-1.150100798719048,19.570259307142855
3.874615375,2.4020933152761907,-14.781807501942856,-1.4141317101238098,19.644158905714285
3.884561375,2.593331090466667,-14.51985318722857,-1.5785214047047622,19.87023597557143
3.894507375,2.7449005750333337,-14.067747726038094,-1.7635472998476192,20.300106991571425
3.904453375,2.833367106666667,-13.274841783228572,-2.047338305766667,20.657144300952382
3.914399375,2.8592593780952384,-12.079582527514285,-2.525177446657143,20.83212880904762
3.924344375,2.8038924097952385,-10.57744051132381,-3.244128272371429,20.926477629047618
3.934290375,2.573640424652381,-8.419744260371427,-3.4607023462285715,20.17064166333333
3.944236375,2.3471052847952385,-5.327250246085713,-2.6598353359904765,18.062092585238094
3.954182375,2.1963808203380957,-1.5755453717999994,-1.6100917264666668,15.194671322380955
3.964128375,2.061846892271429,1.8332274882000004,-1.1583237608952384,12.808776922857144
3.974073375,1.9494525344142861,4.084919735295239,-0.9445710381809527,11.593035744761906
3.984019375,1.8068821861761908,5.611105669390477,-0.6993232211809526,11.096480074285713
3.993965375,1.5740160710333337,6.7964387474857135,-0.5406875853238097,10.890534335238096
4.003911375,1.2637306627476195,7.779487233104763,-0.5213081863238097,10.796948127142858
4.013857375,1.0000857858904766,8.585520425580953,-0.6157052460000002,10.827849727619048
4.023803375,0.8151619698838098,9.233804454819047,-0.770120525204762,11.014682456666666
4.033748375,0.6172205359933337,9.723952346619049,-0.9580342139666669,11.245521902380952
4.043694375,0.4380112247409527,10.076156903333334,-1.1328784360095239,11.493097716761906
4.053640375,0.2577063540838099,10.314536497333334,-1.2498823906285719,11.67627171347619
4.063586375,0.04791916432190509,10.441836396380953,-1.2755117949142858,11.73985615552381
4.073532375,-0.17569155674476156,10.477346369952382,-1.271112182771429,11.72114136
4.083477375,-0.37635361306857107,10.442819870190476,-1.3329069499857145,11.658063958380954
4.093423375,-0.5340739682538092,10.355824215904764,-1.4109360990238098,11.55351803847619
4.103369375,-0.6496325329490473,10.236089221809525,-1.3746438236904763,11.416025365190475
4.113315375,-0.7462843799071426,10.069601450428573,-1.190686138261905,11.194369741809524
4.123261375,-0.8615065696261901,9.845656961285714,-0.7903903837428574,10.829560572857142
4.133206375,-0.9492844593738092,9.584119915428571,-0.16114135920809547,10.323981944285714
4.143152375,-0.9003595599928568,9.387640104285715,0.28597727635857123,10.00869843242857
4.153098375,-0.8133912485642854,9.31261125,0.48113622916809495,9.915572523380954
4.163044375,-0.7607222726119044,9.303355051904763,0.5376889257871427,9.910223395285714
4.172990375,-0.7465539400404759,9.253645031761906,0.5025965408347617,9.848405061
4.182936375,-0.7686484170880948,9.116868800904761,0.4129137152157141,9.691808779238094
4.192881625,-0.7629339888976187,8.868831806285714,0.22131731778714261,9.385019860666668
4.202827625,-0.6896684777166664,8.43726402175238,-0.06448295846523834,8.89846897252381
4.212773625,-0.5507161811976187,7.680143122371429,-0.41313877037000024,8.773862620000001
4.222719625,-0.41416529786428535,6.5799999388,-0.5979909057890479,8.982159258190476
4.232665625,-0.23621825428619014,5.09094652484762,-0.5722283346604764,9.552833027190477
4.242610625,0.02445613260428605,2.7867440259904765,-0.7793420034223812,10.982936975047618
4.252556625,0.21285211576142887,-0.24292772596190457,-0.875758747089048,13.110448313619047
4.262502625,0.4035952130376193,-3.9207372152,-0.9850038363747622,15.86690858504762
4.272448625,0.5947762284661907,-6.999594380628572,-1.1861393118509527,18.048255799809525
4.282394625,0.5522160093900003,-8.867287418390477,-1.1065061654271433,19.027082981904762
4.292340625,0.4347513045709527,-10.159875165771428,-0.7372434708080955,19.52400018304762
4.302285625,0.33553953961333366,-11.128644917676192,-0.3197727036652384,19.78757834961905
4.312231625,0.25172344126095264,-11.925597189342858,0.053420322287142566,19.908786884809526
4.322177625,0.19990990945714318,-12.632117537438097,0.3513893991442854,19.930321734333333
4.332123625,0.15237431546190508,-13.286382126723808,0.5596301952919044,19.858749926238097
4.342069625,0.11727025698571462,-13.894893868485715,0.6620896604238092,19.669371706904762
4.352014625,0.09268586155714316,-14.446361288104763,0.627830454985714,19.34600613309524
4.361960625,0.09853575022380985,-14.900391624719047,0.39048127960476153,19.015845272142858
4.371906625,0.14269404466190508,-15.231326266195238,-0.03457130058571461,18.812246013333336
4.381852625,0.21633568495714317,-15.389559021957144,-0.5076159891571431,18.696266091714286
4.391798625,0.3121032380280956,-15.354284774671427,-0.8855258108238099,18.675601835714286
4.401744625,0.38689586443666696,-15.141904268195239,-1.0498258185238099,18.843332333095237
4.411689625,0.43442084989857177,-14.711082476995237,-1.057206550014286,19.252956082999997
4.421635625,0.4137765206557146,-13.920058753233334,-0.935073932919048,19.379293112190474
4.431581625,0.3301810276747622,-12.74578353942381,-0.9142098562523813,19.253629076
4.441527625,0.20301816929380984,-11.112130403709523,-1.3897377459857145,19.001065248380954
4.451473625,0.068990728436667,-8.607051572280952,-1.9118528392714291,18.175360791714287
4.461418625,-0.07642009970619014,-5.458445894661905,-2.1567399668428573,16.333598336476193
4.471364625,-0.3558452820395235,-1.7245921798999995,-2.136292977652381,13.668468166476188
4.481310625,-0.7038830293252378,1.407186324385715,-1.872957439366667,11.54266033742857
4.491256625,-0.8144025714680949,3.369461332957144,-1.7310327908380954,10.679179520285714
4.501202625,-0.8306630099442854,4.779092211528572,-1.7393458051714286,10.375065112666666
4.511147625,-0.8712644535157139,5.879210752957143,-1.7300616518380953,10.360007650285715
4.521093625,-0.910249935515714,6.802634066814286,-1.7042523760761905,10.46672207647619
4.531039625,-0.9567498762299997,7.623159360576191,-1.6901249740285718,10.62270972747619
4.540985625,-0.9704223509442855,8.362355174719047,-1.701399296838095,10.811267719761904
4.550931625,-0.9402185237061902,9.010551189480953,-1.7218467941714286,11.047980193904761
4.560876625,-0.8404224287728569,9.565605987242858,-1.6927043409666669,11.37053816257143
4.570822625,-0.7172629292490472,9.994595121857143,-1.5302795457857146,11.665365359714285
4.580768625,-0.6123463004966665,10.287204745285715,-1.2488639016333336,11.807106493571428
4.590714625,-0.527481347410952,10.459264523285714,-0.972123600609524,11.884746639428572
4.600660625,-0.4423845104819045,10.533814016904763,-0.7937781214714287,11.939017155190475
4.610606625,-0.34871423884285685,10.544576986761905,-0.7285584416666667,11.958451434809524
4.620551625,-0.253289548438095,10.525575067333333,-0.6813886676,11.951761913904763
4.630497625,-0.12063510342857116,10.484615544666667,-0.6163571602523812,11.92638480742857
4.640443625,0.04673823736190506,10.40525718952381,-0.5214149660380953,11.860574581047619
4.650389625,0.16513309840952412,10.250934132857143,-0.062436318504762056,11.561265802
4.660335625,0.16423173617142886,10.06058206452381,0.7535456400619046,10.977635263904762
4.670280625,0.1903824754095241,9.965867974333335,1.2844861865666664,10.69630551057143
4.680226625,0.30247116312380984,9.925554206761907,1.6164210291380954,10.58798192047619
4.690172625,0.44883186096428596,9.854849146238095,1.7026523198885712,10.489402189238096
4.700118625,0.5314320377738098,9.670446592238095,1.3319002002219047,10.364084085190475
4.710064625,0.46272094725000035,9.318743364428572,0.3884079054599998,10.467828551380952
4.720009625,0.5014114998690479,8.79965392704286,-0.2405561436828573,10.103964439857142
4.729955625,0.675087155916667,8.095012762757143,-0.4488568389685716,9.71277156504762
4.739901625,0.9023709203452386,7.161258365376192,-0.46859554934952397,9.662324761238096
4.749847625,1.1947308954880955,5.74919209394762,-0.30518152011142874,10.16229933504762
4.759793625,1.4641555222500002,3.3627479777571443,-0.10296542349238112,11.654866801666667
4.769739625,1.6521546343166669,-0.1459698078142845,-1.0058946849209525,14.381209689142858
4.779684625,1.9130787669357145,-4.369815600099999,-2.3235529853876193,17.92323095247619
4.789630625,2.0874311476500003,-7.525383780147618,-2.137517039397143,20.191471430285713
4.799576625,2.057743918416667,-9.29643648748095,-1.7744049404209525,21.12402915842857
4.809522625,1.917901470369048,-10.543175297957141,-1.5328599701304764,21.528082013285715
4.819468625,1.7611712959404766,-11.48469259805238,-1.296285080949524,21.649574876761903
4.829414625,1.6181760640023812,-12.249650910433331,-1.1016610160828573,21.58209903757143
4.839359625,1.4542187588261908,-12.885709497671428,-0.9451699788114286,21.359487584285713
4.849305625,1.26902833067381,-13.418837014004762,-0.8194537911685715,21.015333085619048
4.859251625,1.0694944771928574,-13.855637332604761,-0.8068451964257144,20.572723434380954
4.869197625,0.8977032935214289,-14.167129703652378,-1.0808001484209524,20.416497918714285
4.879143625,0.8108089519976193,-14.35664701217619,-1.6132057844495238,20.515961198714287
4.889088625,0.7705879672357147,-14.513775228842857,-2.012297513735238,20.506521200142856
4.899034625,0.7847241018238099,-14.643516952985713,-2.1408798533428572,20.404901398190475
4.908980625,0.8641225182279051,-14.667676784890475,-1.912174366257143,20.28842308795238
4.918926625,1.0626963911469527,-14.470373491033333,-1.3512235979714287,19.96073354042857
4.928872625,1.1455620907183812,-13.987481548409525,-1.4242351068285717,20.27410977719048
4.938817625,1.1095067389469526,-13.173280826028568,-2.2384120088761907,20.97659440533333
4.948763625,0.9613975304469529,-12.110980237219048,-2.892798846733333,21.218392077238097
4.958709625,0.6639215896374289,-10.60312755198095,-3.151907015114286,20.790979404857143
4.968655625,0.35647916720885753,-8.111147485790475,-3.1618384830666666,19.463613777238095
4.978601625,0.08755672578028606,-4.490925608647618,-1.9166955169238098,16.965263426285713
4.988547625,-0.2722768498339997,-0.16523526959999937,-0.23170856149523816,13.641906188666667
4.998492625,-0.5266027615244758,3.0969211084952386,-0.10787817749523818,11.560263263904762
5.008438625,-0.5282700254578092,4.974763436590477,-0.23581670382857156,10.786075777714286
5.018384625,-0.39408489079114256,6.305853567542858,-0.32268733892380963,10.494825353904762
5.028330625,-0.23537542688638063,7.289304954209525,-0.4779785275428572,10.426026279142857
5.038276625,-0.06603875990066632,8.051212300828572,-0.6893629469380954,10.497611604095237
5.048221625,0.14969286941838128,8.673093005066667,-0.9911997272714288,10.749947661
5.058167625,0.36983728447552416,9.202503418590476,-1.330566805557143,11.159999544142856
5.068113625,0.5826745280993336,9.625904369190478,-1.5835355645952383,11.666753768238095
5.078059625,0.7549982260564766,9.910229434714287,-1.5700005968809527,11.874773734857142
5.088005625,0.8283809260564765,10.059755853380953,-1.2982523629761906,11.792619336761906
5.097950625,0.8271389000088574,10.173992794190477,-1.1280921505000003,11.787797071190477
5.107896625,0.7785508559421909,10.289942161714286,-1.1326584361190477,11.898667352666667
5.117842625,0.7361774197428576,10.386909768761905,-1.2094853367285716,12.00992393261905
5.127788625,0.7130861247238098,10.420534182380953,-1.195788783966667,12.040792630619048
5.137734625,0.7272784517523813,10.336708860809525,-0.9196402838238097,11.853812751809524
5.147680625,0.7471556019428575,10.123807590285715,-0.2714468098333335,11.335462595619047
5.157625625,0.8330023634428575,9.910953681857144,0.13791285288571412,10.996273237142857
5.167571625,0.9854033081571433,9.754278513142857,0.09532440707142842,10.83363132152381
5.177517625,1.139092860871429,9.623986760714287,-0.1113054324523811,10.642938068761904
5.187463625,1.2538778946333338,9.472822898761905,-0.36787964030952397,10.393752346142858
5.197408958,1.2913141533761907,9.26569497404762,-0.565998175261905,10.112119033380953
5.207353958,1.237967492066667,8.989900105142858,-0.6779517644523813,9.824781136476192
5.217299958,1.1369158450428576,8.616653869476192,-0.7667145167380954,9.46645946547619
5.227245958,1.0298275012476195,8.143479776428572,-0.8366097937380955,9.035351197809524
5.237191958,0.9282113333857147,7.361955884619048,-1.2393657294523812,8.952500157809524
5.247137958,0.672936028766667,6.121822840285715,-1.8816360364380955,9.532763025
5.257083958,0.4116243092904766,4.937625013095238,-1.7349112275666667,9.794954643095238
5.267028958,0.2112838602523813,3.2377064405714293,-1.3217496704238099,10.520583049285714
5.276974958,0.007028529795238439,0.40591482428571524,-0.8360905050904763,12.36866556452381
5.286920958,-0.32587681829999965,-2.9885851494761897,-0.9856186500904764,14.822710276904761
5.296866958,-0.6650829798238092,-6.252381810380952,-1.1437854993285714,17.194516195
5.306812958,-0.9200816267285712,-8.638763556,-0.6111788863285716,18.744042955904764
5.316757958,-1.0342041709476189,-10.240214209333333,-0.07232844942380968,19.55667637904762
5.326703958,-1.0163281415619043,-11.477973645714286,0.36182029614761885,19.99926666814286
5.336649958,-0.9109496558904759,-12.490994012047617,0.7118534962904759,20.222340638142857
5.346595958,-0.7489412242047615,-13.37551432447619,0.9558922901476189,20.32825941695238
5.356541958,-0.5557371208619044,-14.150636239238095,1.1045738488238093,20.35550966457143
5.366487958,-0.3231882728619044,-14.816220035666666,1.1153265512438093,20.332285967904763
5.376432958,-0.0032208290999996506,-15.366386227047618,0.9112774360580951,20.35281550766667
5.386378958,0.39007229299523843,-15.774003788423808,0.5251202281057141,20.46567632042857
5.396324958,0.7534779987571432,-16.00824940094762,0.12186145967714265,20.561137002571428
5.406270958,1.0378003634380957,-16.03986501751905,-0.22622442970380977,20.61876346019048
5.416216958,1.3068626855809526,-15.897957882804763,-0.49964492532285737,20.739330786428575
5.426161958,1.5501991452476194,-15.557112127138096,-0.8612480041323811,21.072460760285715
5.436107958,1.6601341224714288,-14.84301609837619,-2.230009518084762,22.412567301285712
5.446053958,1.6299729555238098,-13.736488423709524,-3.365743506037143,23.634228690809522
5.455999958,1.7177008689904762,-12.280245936566669,-3.2383559546085716,23.431147155571427
5.465945958,1.7530351859619049,-10.962428929423808,-3.167750226956191,23.24190464604762
5.475891958,1.7812615753761907,-9.196036313709524,-3.034286917146667,22.569064902238093
5.485836958,1.8600972555476194,-6.3551450655190465,-2.895422353194286,20.744613827000002
5.495782958,2.1292544348333338,-2.997150372804761,-2.091015271432381,18.307020587
5.505728958,2.4962587259761913,0.2347593885761913,-1.2919392353847623,16.015048073190474
5.515674958,2.862830977452381,2.6175482986238103,-1.2197048493847624,14.620421935571429
5.525620958,3.1279448906428575,4.248604184433334,-1.2013798425752382,13.991077175571428
5.535565958,3.2711313561476194,5.536806102385715,-1.1685860398609524,13.715513247476188
5.545511958,3.31069435514762,6.608092135004762,-1.147198651289524,13.623828095571431
5.555457958,3.2298097792428573,7.548445644195239,-1.127161301337143,13.611516521285715
5.565403958,3.0521787254333335,8.385266069861906,-1.1109037029085715,13.659303193666668
5.575349958,2.799285861885715,9.13325300567143,-1.0692283137571432,13.763039748809522
5.585294958,2.453783603014286,9.78811662814762,-0.9489613899952383,13.846613391809523
5.595240958,2.013689951571429,10.295418719095238,-0.7639085140904763,13.840207730857143
5.605186958,1.5956102439333337,10.635089713571428,-0.6555687965190478,13.858264788000001
5.615132958,1.2914304112095243,10.801800180095238,-0.6775772429000002,13.924548651238094
5.625078958,1.0383213955809527,10.819999165476192,-0.7998570845190478,13.929438276190476
5.635024958,0.7824641259619052,10.699024756428571,-0.7896173569476191,13.788589093809522
5.644969958,0.6079101763428576,10.285418894190476,0.2595525290999999,12.736247138238095
5.654915958,0.5463682942476195,9.795247947761904,1.4190906155285714,11.522320524857143
5.664861958,0.5155423093047624,9.453700470761905,1.6016871874333334,11.150220430333334
5.674807958,0.5413882128285719,9.224831707095237,1.1659268378619048,11.083518372714284
5.684753958,0.5752937800714291,9.08844061295238,0.4934748740999999,11.017097533666666
5.694698958,0.6285482364047623,9.042382429380954,-0.1556141219,10.957826951285714
5.704644958,0.6846770934047625,9.094155013238096,-0.7213870330428571,10.912439381761905
5.714590958,0.7331747075000005,9.191019069000001,-1.2122632930428572,10.862356704142858
5.724536958,0.789161170880953,9.287486571809524,-1.6032890528428572,10.796956589380951
5.734482958,0.7963900835952386,9.334399813142857,-1.8016122960333334,10.728633648428572
5.744428958,0.700362322471429,9.286554386333334,-1.8919899797,10.626410711761904
5.754373958,0.6214477031000004,9.117201674285715,-2.0238340424142853,10.406015318904762
5.764319958,0.5473798756115242,8.735394975714286,-2.3156854420333333,10.024353632190477
5.774265958,0.41571310889723856,7.894960163285715,-2.7947931503190477,10.055128747904762
5.784211958,0.35771897095438143,6.666519128047619,-3.156945463657143,10.365352452190475
5.794157958,0.3775238523496195,5.4056360142380955,-3.1429237848571425,10.583274248380954
5.804102958,0.47959556355438143,3.3445892823333345,-2.769861597333333,11.584928963142856
5.814048958,0.6272087054305719,-0.36551320957142813,-2.2865289973333334,14.245625106952383
5.823994958,0.7108327958210481,-4.527991554809523,-2.5795251215714283,17.435867303142857
5.833940958,0.8908878406877149,-7.982910390285714,-2.6579716452380953,19.984058706952382
5.843886958,1.0038285791020005,-10.037320059333334,-2.050767869952381,21.252743980285715
5.853832958,1.0608732910924767,-11.317521427095238,-1.3670660583809524,21.879716597285714
5.863777958,1.1416988014020004,-12.190296465428572,-0.7324055125714285,22.118224490190478
5.873723958,1.1979517986448576,-12.82667951747619,-0.216157627,22.026200249714286
5.883669958,1.1913569477305719,-13.319615027571428,0.12370442855238101,21.687076344428572
5.893615958,1.0976806130543812,-13.697271623019045,0.21474440683809531,21.439236342666668
5.903561958,0.9739241475639053,-13.981493861066667,0.07760459055238098,21.376895406238095
5.913506958,0.9100164124210481,-14.291122056209526,-0.1737669040666666,21.336508900142857
5.923452958,0.8692907502781909,-14.694233419209525,-0.40714125363809517,21.162295196761907
5.933398958,0.8047799235639052,-15.116899068304763,-0.649044567742857,20.864646243761904
5.943344958,0.7682291455639052,-15.467227142066665,-1.0224117293142856,20.535576170285715
5.953290958,0.8100691651639051,-15.672844257733335,-1.3964894389809523,20.284913116952378
5.963236958,0.8435271402020005,-15.672020078733334,-1.6361891532666666,20.270535940714286
5.973181958,0.9213110959761909,-15.35280456601905,-1.758187026885714,20.607976442380952
5.983127958,1.144953820071429,-14.410319356828571,-2.0940118339809524,21.000989920000002
5.993073958,1.3418394260857147,-13.006726870161904,-2.747487689457143,21.393835213333336
6.003019958,1.3693153288476194,-11.651604571114287,-3.2056491118761903,21.44962067904762
6.012965958,1.217899097014286,-9.553461599209523,-3.371196483828571,20.474441995714283
6.022910958,0.9844585277285718,-5.8334946320666665,-3.24056278087619,17.961011764761903
6.032856958,0.8294800816333336,-1.635402956828571,-2.1837846927809523,15.035556886190477
6.042802958,0.6139505850142861,1.932415226980953,-1.324151828495238,12.823150841428571
6.052748958,0.46719544026666715,4.165577703171429,-1.184638098304762,11.923632364761906
6.062694958,0.3556594675619052,5.653538662219049,-1.242739485447619,11.595332393809525
6.072640958,0.26465181777619096,6.74245672317143,-1.335582299495238,11.537572676190475
6.082585958,0.2132465799619052,7.560494026504763,-1.3481668441142856,11.690014852142857
6.092531958,0.18721762639523853,8.181096083885715,-1.2107398982380952,12.003502678285715
6.102477958,0.19475144704285757,8.62383915052381,-0.8636269577142857,12.169069374190476
6.112423958,0.1883398219428576,8.925222938666668,-0.4072685380380952,12.140321273428572
6.122369958,0.0924230987619052,9.213529261952381,-0.1123852387523809,12.126523940952382
6.132314958,-0.018563784695237666,9.579815835190479,-0.06131660394285712,12.304058007666667
6.142260958,-0.06796433417142814,9.939225860095238,-0.18570186089523807,12.616420580190477
6.152206958,-0.06197857431428529,10.218804991285717,-0.3618744589904762,12.933346323190476
6.162152958,-0.027091308314285273,10.400603975190476,-0.5341173104666668,13.179659282238095
6.172098958,0.0011284542571432944,10.487776270857145,-0.6566613070380951,13.311159776619046
6.182044958,-0.010529828695237659,10.48320940052381,-0.6046495441809524,13.283074615523809
6.191989958,-0.10307128140952336,10.315914602047618,-0.032539142371428575,12.798026981380954
6.201935958,-0.2272835199333329,10.072444338809524,0.8655416705333333,12.03480082252381
6.211881958,-0.2380522534571424,9.903973525904762,1.3155130963904764,11.691205189714285
6.221827958,-0.11831812938571383,9.810980299238096,1.2031727208428573,11.601426062571429
6.231773958,0.05870875385238141,9.785669874476193,0.7459885629666667,11.417767514476191
6.241718958,0.20831335470952425,9.77307731114286,0.22323645753809515,11.146974631619049
6.251664958,0.23980825761428615,9.670362503809523,-0.15673532912857155,10.832329390190477
6.261610958,0.23966963680476236,9.428353014142857,-0.5181533575095238,10.423764550095237
6.271556958,0.2901234508047623,9.07189349414286,-0.935095028214762,9.933861721333333
6.281502958,0.2671505688523815,8.479847818000001,-1.5900106353576193,9.735163607714286
6.291447958,0.17637207251904807,7.576899949809524,-2.2525175991671427,9.871704964857141
6.301393958,0.12892717998095282,6.617212204285714,-2.3389683484385717,9.901311807809524
6.311339958,0.1740929322571433,5.3990240110476195,-2.1545898792480953,10.274886759380953
6.321285958,0.34036607589523854,3.1885174349047625,-1.9644674395433335,11.656810104666667
6.331231958,0.5019953330285719,-0.012833552666665901,-2.2426145875909524,14.00606723752381
6.341177958,0.5603755969142862,-3.782417680999999,-2.7208028906861905,16.867850225142856
6.351122958,0.5719798140095242,-6.991039625380952,-2.363538056067143,19.059732504190475
6.361068958,0.4535301005047624,-8.96776908995238,-1.7307323862576192,20.093977277047617
6.371014958,0.3099055898142862,-10.298382004571428,-1.1468027567814285,20.577235673238096
6.380960958,0.20532118735714336,-11.288382300761905,-0.66018961821,20.774962054619046
6.390906958,0.13799877743761954,-12.072322457095236,-0.2819123547338096,20.77011115809524
6.400852958,0.11361217099476238,-12.745671801380952,-0.027865369114761968,20.638500632523808
6.410797958,0.08703067643285761,-13.35083267090476,0.046574691099523745,20.387952801
6.420743958,0.05916850936619095,-13.890246751571427,-0.0791648958528572,20.13888231895238
6.430689958,0.06572610603285763,-14.3849193583,-0.347841232162381,19.972985974476188
6.440635958,0.14204024760428619,-14.849364727652382,-0.6528836231433334,19.823121097809526
6.450581958,0.2872586709852386,-15.263564945271428,-0.9465410397623809,19.63297539752381
6.460526958,0.5114206592233338,-15.547200039366663,-1.3174376413338094,19.419922876809522
6.470472958,0.7556757722233337,-15.619758639604763,-1.6013918123814286,19.324514128190476
6.480418958,0.9631461698900003,-15.467529415033333,-1.6063201520161907,19.468762745619046
6.490364958,1.205068007175715,-14.964360915557144,-1.225333066067619,19.51603438595238
6.500310958,1.4294941189852386,-14.013491606890474,-0.8249860717342856,19.410863391190475
6.510256958,1.644128845461429,-12.844520374509525,-1.4370895350819046,19.811132850714287
6.520201958,1.7868882710709526,-11.325154799747619,-2.718607640034286,20.267953006904765
6.530147958,1.6832368440757146,-8.888547086414283,-3.5352209239390477,19.35079531595238
6.540093958,1.470097501266191,-5.54574201212857,-3.1987999791771426,17.12957891595238
6.550039958,1.3186325913614292,-1.7046248573666656,-2.1347185515580955,14.358910129285713
6.559985958,1.176190283266191,1.5605628283476196,-1.6730152894152384,12.31565397547619
6.569930958,1.1323191462947624,3.600409115490477,-1.4814648481295238,11.435213189761905
6.579876958,1.1235433666042862,5.016238766442858,-1.32582572232,11.12587212547619
6.589822958,1.108269113256667,6.098723219776192,-1.1884742368438097,11.106828396904762
6.599768958,1.0761775802952385,6.95089537087143,-1.075668026129524,11.242549787666666
6.609714958,1.0113908311190483,7.6532136313476204,-0.9845160597961906,11.436096145
6.619660958,0.944249199371429,8.239385361728571,-0.8313226781533335,11.683668094714287
6.629605958,0.866859469476191,8.717340528109524,-0.5578178294866668,11.875152790095237
6.639551958,0.7537901845285718,9.119179481171429,-0.22987111688666678,11.940290302238097
6.649497958,0.6197717755333338,9.491036891666667,-0.009659740791428664,12.003449102714285
6.659443958,0.4879456234380958,9.848772051190476,0.022336111875237968,12.180456648714285
6.669389958,0.41603802015238145,10.143623664142856,-0.14528053402952393,12.465561652761906
6.679334958,0.40131317186666715,10.343110029904764,-0.45696928798190484,12.776695197666667
6.689280958,0.4207826388666672,10.435752006000001,-0.8258984964038095,12.999679959952383
6.699226958,0.41873696258095283,10.430857496714287,-1.1418559684,13.094915868952379
6.709172958,0.43049257386666706,10.320448728190476,-1.323524058161905,13.059975715619048
6.719118958,0.40069443200952426,10.07771911209524,-0.9851143920666667,12.662900232285713
6.729063958,0.3407200840095243,9.774147045142858,-0.17347981778095242,11.883520564190476
6.739009958,0.39629058762381,9.588048269476193,0.343304786695238,11.475684804666667
6.748955958,0.5687561901952386,9.509804783761906,0.5088006544095238,11.402093060857142
6.758901958,0.71463763562381,9.511042722809524,0.4079436466,11.35614864752381
6.768847958,0.74304785732381,9.53215768709524,0.2655560933619047,11.281540545142857
6.778793958,0.7148146322285719,9.507507051095239,0.11210287936190474,11.166619552285713
6.788738958,0.6782014769904766,9.36518571057143,-0.17836089944761904,10.888463982190476
6.798684958,0.6408522547476196,9.083359048809523,-0.6591267109714286,10.480647733476191
6.808630958,0.5555523697714291,8.441622453190476,-1.7850518553047618,10.738564593
6.818576958,0.42382457967619097,7.193115360714287,-2.995666400495238,11.538875109666666
6.828522958,0.34186986936666713,5.719335069285716,-3.376992402209524,12.207876793190476
6.838468958,0.2811434128047624,4.384005038380953,-3.387042032638095,12.768327883142858
6.848413958,0.19977183870476242,2.221421879666668,-3.2054882820000006,14.175571747857143
6.858359958,0.10233921441428623,-1.2778183490952375,-2.9390676413809524,16.84365451404762
6.868305958,0.10465921555714336,-4.882977742904761,-3.369071880571429,19.561927056428573
6.878251958,0.13180480984285764,-7.655876481571427,-3.3154990503333335,21.318279021666665
6.888197958,0.03986085202857192,-9.521321320285713,-2.538891915,22.155760380238092
6.898142958,0.006627589266667167,-10.865490614761903,-1.753761599666667,22.553335098809523
6.908088958,0.06785585874285764,-11.900303887857142,-1.0438980363809525,22.734551045952383
6.918034958,0.1662211313142862,-12.736110044333335,-0.4317000150000002,22.77273849547619
6.927980958,0.23757175940952432,-13.451161090238093,0.054318823714285536,22.667076399190474
6.937926958,0.29436426145714334,-14.074073438238097,0.42309820419047606,22.455824109809523
6.947872958,0.3704407624095243,-14.624077411142856,0.6456412828571426,22.209097833238097
6.957817958,0.449947950076191,-15.108017759728568,0.6738056987619045,21.90687804780952
6.967763958,0.5630260702190482,-15.531210243109523,0.5086321030952379,21.54261441690476
6.977709958,0.7725496758523814,-15.856087531395238,0.13439532134285695,21.175144699190476
6.987655958,1.014972793519048,-16.01648411887143,-0.2867551194666669,20.937002075666665
6.997601958,1.2257455941380957,-15.969056907204761,-0.5875294328476193,20.972719877904762
7.007546958,1.4244035625666671,-15.687770138300001,-0.768328236609524,21.30716670614286
7.017492958,1.6577208808523813,-14.825752445490474,-0.960163799466667,21.69397277090476
7.027438958,1.9194332668523812,-13.204953716919048,-1.626073230419048,22.247294937571425
7.037384958,2.106588314185715,-11.515863296919045,-2.2035005334666673,22.169920299
7.047330958,2.227796402980953,-10.087258426442856,-2.4738185730380957,21.72558712280952
7.057276958,2.30844294322381,-7.895969114252379,-2.528990574990477,20.37213685352381
7.067221958,2.370967750976191,-4.420572995585713,-2.488136218466667,17.71844054752381
7.077167958,2.3272283834523813,-0.8753295193476176,-1.6571189036571432,14.937874175857143
7.087113958,2.2715651596904767,1.8281504068428585,-1.1352558812285718,13.080221625380952
7.097059958,2.3801714128380955,3.6561134237952397,-1.201621834561905,12.170982901095238
7.107005958,2.4726587997428573,5.0032683344619056,-1.2875289041809528,11.768099295380953
7.116950958,2.4640432337904765,6.0518334791285735,-1.3872654741333335,11.596801656333334
7.126896958,2.394198201076191,6.89971541674762,-1.5315163956571431,11.534846871571428
7.136842958,2.3093165590761906,7.637209496366668,-1.6971073711333335,11.595127885999998
7.146788958,2.2121400289333337,8.293781591890477,-1.8780771919857147,11.784267915857143
7.156734958,2.089208184457143,8.87053156474762,-2.0929779040809526,12.048787776238095
7.166680958,1.9591363223619052,9.361491245238096,-2.308789779461905,12.356505452142859
7.176625958,1.8390622418857145,9.761708737666668,-2.4777460224142858,12.668802040666668
7.186571958,1.727925815028572,10.066660441190479,-2.5542452004714287,12.924176696952381
7.196518,1.6312798814095242,10.266793592285715,-2.534130778614286,13.087400441428569
7.206464,1.548974021414286,10.361143763047622,-2.4193639686904764,13.144878150238096
7.21641,1.4605596483285719,10.340498051857143,-2.156976570371429,13.049247497761904
7.226355,1.3951849859952385,10.096293935000002,-1.1486715672428571,12.282226830952382
7.236301,1.3686123492333337,9.714552613714288,0.5076599631561903,10.869685050619049
7.246247,1.3776983306619053,9.507839089476192,1.2978981799895237,10.26709910304762
7.256193,1.4382013643904767,9.439261914285716,1.4393105602371425,10.174543716333332
7.266139,1.5463365111952387,9.444443688952383,1.2240631082371425,10.167598862285715
7.276085,1.632457454919048,9.505120997523811,0.947816611570476,10.189001038428572
7.28603,1.6621180984428574,9.590572764142859,0.7014049201895235,10.233529897714286
7.295976,1.584362952378572,9.65268397709524,0.4245840389895236,10.216563868190477
7.305922,1.3668304363309527,9.596428694904763,0.05951463332285689,10.046747257190477
7.315868,1.0397765361404767,9.391293556857145,-0.4451908485342859,9.791164918952381
7.325814,0.7225831437595241,9.028314781333334,-0.9809833587247622,9.532732725619049
7.33576,0.49259866175952427,8.493524762380954,-1.2572118961057144,9.205185360571429
7.345705,0.2983417881404766,7.636499171714287,-1.4066367681533334,9.171244098380953
7.355651,0.16737653761666715,6.550965924952382,-1.3442632866961906,9.316976192666667
7.365597,0.09427592311190525,5.127782536857144,-1.0793272819819049,9.770199023142856
7.375543,0.011061980097619531,2.7572767054285725,-0.6027188407914288,11.158379270285716
7.385489,-0.11361197266428522,-0.6516754136190467,-0.40159478826761924,13.534491526476192
7.395434,-0.06978578966428521,-4.629199756476189,-1.1881361204580954,16.58783958933333
7.40538,0.2341131713357148,-7.875585358380952,-1.7301272360771431,18.90700354885714
7.415326,0.3300795749500005,-9.860309108857141,-1.477247744524762,19.945600305523808
7.425272,0.2801843579785719,-11.27736102290476,-1.1840020275580954,20.477372023714285
7.435218,0.24947948351666718,-12.328333717,-0.919764345734286,20.69364716290476
7.445164,0.19892391753095287,-13.147922760095236,-0.7128431861333334,20.70634496747619
7.455109,0.12940351840238146,-13.795977327952379,-0.5688874063000001,20.550472601809524
7.465055,0.048381003059524294,-14.296945436666666,-0.49909286844761924,20.223590190095237
7.475001,-0.04191017311618999,-14.664603070619048,-0.527680351257143,19.899616250857143
7.484947,-0.1274023236257138,-14.94339073938095,-0.6686297677809525,19.710178246285714
7.494893,-0.1792520985747614,-15.158046035714284,-0.8635144026380953,19.587189080190477
7.504838,-0.17690336950057092,-15.283446035142855,-1.0106324158666669,19.503423377238096
7.514784,-0.09404180823390426,-15.261133505714284,-1.034448682104762,19.521870746047618
7.52473,0.06496639446133383,-15.050979563285713,-0.8081195591523811,19.64800890990476
7.534676,0.26018642629466715,-14.59230208242857,-0.37795299020000017,19.92492151752381
7.544622,0.46663181400895287,-13.885486115619047,-0.2206722446761906,20.38232918161905
7.554568,0.72902851215181,-12.80334269447619,-0.42707528181904775,20.704797881857143
7.564513,1.0271396902470482,-11.43382282447619,-1.1742563948047622,21.146197789000002
7.574459,1.2723040469899052,-9.787489528285713,-1.9385659448523813,21.13982463852381
7.584405,1.4342777782422862,-7.314356764952381,-2.504735185804762,19.884900274238095
7.594351,1.5387975933422862,-3.882916143047618,-2.5381099720428573,17.518201822333335
7.604297,1.4525692470660958,0.062246868380953536,-1.476133708852381,14.449997491857145
7.614242,1.1561095105899053,3.25013283204762,-0.6633922286619048,12.117912837571428
7.624188,1.1005366124470481,5.173353229238097,-0.671015772757143,11.080915228523809
7.634134,1.1901453002184768,6.552594262523811,-0.7374202063761908,10.576828205666667
7.64408,1.2389601292518098,7.59588686161905,-0.7899770410904763,10.408990989000001
7.654026,1.2766807367137147,8.423536542095238,-0.8012800430428574,10.444701298095238
7.663972,1.3235835627470482,9.076335847000001,-0.768402318852381,10.628863408238095
7.673917,1.392933740899429,9.569087977285715,-0.6899820833333334,10.955929954285713
7.683863,1.4785163909799053,9.931835620714288,-0.5467408854714287,11.271565825714285
7.693809,1.5610045552989529,10.197442050476193,-0.34579179520952397,11.442220669904762
7.703755,1.6316189084384765,10.395344377666667,-0.1709804289238097,11.553839202142857
7.713701,1.706888361380953,10.538759843428572,-0.14206032306666683,11.681902460809525
7.723647,1.7725726477333335,10.630864237809524,-0.32861223016190494,11.837515034904762
7.733592,1.8128850352761907,10.649736961666669,-0.7163945603523811,11.962868149285715
7.743538,1.8096750113380955,10.554842025714287,-1.2168139217809526,11.934638631190476
7.753484,1.7319244125142863,10.377051140857144,-1.5122802998761908,11.79982813452381
7.76343,1.5883322433619054,10.123020833761906,-1.346199606161905,11.488831014714284
7.773376,1.3759787089190478,9.78065870009524,-0.6778117845380954,10.841672903666668
7.783321,1.180963148619048,9.494086828000002,-0.061897216976190675,10.324511643619049
7.793267,1.0977006562857146,9.341668237238096,0.2217015825952379,10.136958662809523
7.803213,1.111767466566667,9.264802327142858,0.2782130980714284,10.071450015666667
7.813159,1.1226479410904766,9.208170150047621,0.24737248811904744,10.008416841142857
7.823105,1.0799654438619053,9.113380185333334,0.13509106502380935,9.876514455904763
7.83305,1.0231996231904765,8.88163074914286,-0.2726009787380954,9.650760169476191
7.842996,0.9266162460666671,8.381102100476191,-0.9030831321190478,9.557554371190477
7.852942,0.8124557018857146,7.572852367761905,-1.4014977338809527,9.521698095238095
7.862888,0.7612594620133337,6.516086252142858,-1.6436031458714286,9.664782364761905
7.872834,0.8001092955847623,5.210412185523811,-1.896268949538095,10.113592680238096
7.88278,0.847121647299048,3.304472092952382,-2.1676602246333334,11.210393125
7.892725,0.8312700127276194,0.37765503614285884,-2.151175524542857,13.301575945666665
7.902671,0.7332609748180956,-3.0888403673333316,-1.995969762709524,15.894582935904763
7.912617,0.6965018863180956,-6.122986102476189,-2.046284051042857,18.001155893095238
7.922563,0.5305065897942861,-8.133822571285712,-2.151848847090476,19.061909738333334
7.932509,0.2713431164609528,-9.582824312238094,-1.8125608314714285,19.498990898809524
7.942455,0.08472791327047664,-10.71765487733333,-1.1398734755190478,19.665579502619046
7.9524,-0.05634431910095196,-11.649958747571427,-0.4799420710904763,19.714310138809523
7.962346,-0.154532234848571,-12.477688479190473,-0.0113288340904763,19.69145656114286
7.972292,-0.20294975339619006,-13.19697109938095,0.26243835962380946,19.584984475142857
7.982238,-0.2397807435247615,-13.812704820714286,0.3302220052047618,19.37678831261905
7.992184,-0.29667338959619005,-14.345624649523808,0.12238177816666655,19.154002881857146
8.002129,-0.32721578804380913,-14.806022799085714,-0.2743432697380953,19.005547438476192
8.012075,-0.2844210573295234,-15.18016443827619,-0.6604251321190476,18.841917458476193
8.022021,-0.19593316248190434,-15.457776064895237,-1.022685201261905,18.682256487523812
8.031967,-0.11375574458666622,-15.578278269466667,-1.2515898138809525,18.598387979428573
8.041913,-0.04943534915333289,-15.424480153419045,-1.1094638262380954,18.693867310428573
8.051859,0.07584512520857187,-14.898112352514286,-0.701031719857143,18.758555585285713
8.061804,0.2648104914371433,-14.050653558419047,-0.4466351525761906,18.795583359333335
8.07175,0.37550405788095287,-12.940745552228568,-0.4578484972523811,18.67617878933333
8.081696,0.43465714354761953,-11.506502517942854,-0.7141761614904764,18.44679423647619
8.091642,0.7023119365000005,-9.340303246514285,-1.8003685847285718,18.399081729809524
8.101588,0.9114809294047623,-6.2583354455619045,-2.490201772776191,16.77306968885714
8.111533,1.0316318555047623,-2.6897302265142846,-2.689238042109524,14.287025007904763
8.121479,1.015453006571429,0.45463349110476303,-2.3787194273476193,12.310329929809525
8.131425,1.1361090033523813,2.5406013906285727,-1.8270506129190476,11.37649983504762
8.141371,1.3763765658285718,4.0343109425333346,-1.5650393158714289,11.017784841238095
8.151317,1.5637759850190478,5.214758476819049,-1.555176678014286,10.894477972666667
8.161263,1.7031685768476197,6.19626407729524,-1.5775592069666666,10.892415191238095
8.171208,1.7714264838333338,7.059327530723811,-1.5295377511571426,10.979916885095239
8.181154,1.7659058978238102,7.798617429485715,-1.4205600745380953,11.159676561857143
8.1911,1.7303084526809531,8.421680691342859,-1.224675287361905,11.430375678285715
8.201046833,1.6889674337666671,8.925768317390478,-0.8758872587904764,11.66541946995238
8.210992833,1.6029197073095243,9.30713998309524,-0.45363804260000007,11.747148386190476
8.220937833,1.4732633873095242,9.619779076666667,-0.17268639936904767,11.836101280857141
8.230883833,1.357967145074286,9.899558294000002,-0.034106664464285785,11.980946098380953
8.240829833,1.2948226943076195,10.107565667904764,-0.054970365226190546,12.164060138904762
8.250775833,1.2886413659742861,10.21041223261905,-0.296850353107143,12.339539576238094
8.260721833,1.2995769052600006,10.216243270952383,-0.6663261926785715,12.466041861095237
8.270667833,1.2776546356885718,10.198429115952383,-0.9462049814833333,12.528624021095238
8.280612833,1.2694854210695243,10.164402330190478,-1.1060519863880953,12.538255960619049
8.290558833,1.1964075115457147,10.069254933428573,-0.8969769665785715,12.350181858238093
8.300504833,0.8633311462600004,9.863850600761907,0.2941273275642856,11.343806306809524
8.310450833,0.6343720988409528,9.76594727204762,0.9116788367261903,10.927522901809525
8.320396833,0.586673726031429,9.721496348714286,0.9881458829309524,10.874682761809524
8.330341833,0.6231977529885719,9.66313267204762,0.8298678321404761,10.789512740380953
8.340287833,0.6574481702076194,9.602077048714287,0.5618765319357141,10.655139221333334
8.350233833,0.6480509428790481,9.481374256666667,0.229324717592857,10.43316578747619
8.360179833,0.5940867768919051,9.22149690114286,-0.20503445112142873,10.080367972714285
8.370125833,0.5173717182300004,8.76327984654762,-0.7679508025023812,9.728458544476192
8.380071833,0.4582985480061909,7.988705203357145,-1.4189200959309527,9.646892503857142
8.390016833,0.5050314067200004,6.863802792833336,-1.8998102025500003,9.850794778619047
8.399962833,0.7464521097200004,5.413855306928573,-2.28207170307381,10.432341498142856
8.409908833,1.055079164100953,3.52943828607143,-2.507151408264286,11.498325494904762
8.419854833,1.2677627025295242,0.6367888773571442,-2.478686953645238,13.630345785238097
8.429800833,1.2642307928485716,-3.0807082816904745,-2.5778192034000003,16.56136364342857
8.439746833,1.1030738254171435,-6.38023850292857,-2.7891024937809523,19.021929569
8.449691833,0.8912784372790481,-8.383133700738094,-2.498253355638095,20.138060350380954
8.459637833,0.6732687466600005,-9.719144096785712,-1.816857769257143,20.590152712285715
8.469583833,0.4467217383266672,-10.723234790166666,-1.0944563555904763,20.663240348000002
8.479529833,0.2580156682790481,-11.480023317119045,-0.4637164235428572,20.552335211142857
8.489475833,0.13101386239333376,-12.11105374440476,0.03153912250476177,20.36977021895238
8.499420833,0.06282766559333378,-12.686894642023809,0.3344758475999998,20.091056878714287
8.509366833,0.043448593788571875,-13.224088451357138,0.37355483634285697,19.71894105647619
8.519312833,0.10893654592190521,-13.74048148707619,0.14047474094285703,19.516002991476192
8.529258833,0.26771497568381,-14.2676645568,-0.1973985965000001,19.399570517238097
8.539204833,0.41491452625523856,-14.779479083580522,-0.47067836213809533,19.20077578990476
8.549150833,0.5023375700647624,-15.179964796056712,-0.6727602373142858,18.950266304095237
8.559095833,0.5571321899171432,-15.39384391610433,-0.7949547095904763,18.78602974742857
8.569041833,0.6070761306185718,-15.360356939913856,-0.8102883295904763,18.827359684333334
8.578987833,0.6792872252471432,-15.008159984556713,-0.7437214269714286,19.013606127333333
8.588933833,0.7718783758328576,-14.17549470165195,-0.8866791113047621,19.269252467
8.598879833,0.7134355454476194,-12.777376656890047,-1.9797094355428573,20.05101850604762
8.608824833,0.4567894794476195,-11.050111714985285,-3.0592526279714285,20.41902871747619
8.618770833,0.18852519783809565,-9.012961717842428,-3.5504100623523804,19.68408183414286
8.628716833,0.02411317766666709,-6.024615970318618,-3.5547276324476194,17.644728192714286
8.638662833,0.0481888096761909,-2.2820097535090937,-3.0084923849714285,14.931884440809524
8.648608833,0.1889154141904766,0.9849054227290014,-2.218405468352381,12.673231867952381
8.658554833,0.39602417545238133,2.9709596649194774,-1.880263604495238,11.731673327
8.668499833,0.6470260564523813,4.329758470205192,-1.8567457690190476,11.392278332714286
8.678445833,0.9164477596428575,5.361943614967096,-1.8747939240666667,11.347230868904763
8.688391833,1.1276481379285717,6.135608347871859,-1.9448211253999999,11.459250231
8.698337833,1.265951901671429,6.773961744538525,-2.034690045590476,11.63993853795238
8.708283833,1.347191610614286,7.349113032681383,-2.051070268447619,11.919648912952383
8.718229833,1.3780014460857148,7.870694386395668,-1.9219975493333332,12.285863737095239
8.728174833,1.3260560491333337,8.360237397686145,-1.6186930621904763,12.467878464190475
8.738120833,1.1831420656095242,8.86074343712424,-1.317934008995238,12.559430857095238
8.748066833,1.0513153775142863,9.35124580961905,-1.149936096852381,12.743715876333335
8.758012833,0.9830930306571433,9.760735009238097,-1.085051131852381,13.015089212142858
8.767958833,0.978623001371429,10.056225333238096,-1.080865889804762,13.279323419333334
8.777903833,1.019365989371429,10.238566186857144,-1.0786147952809524,13.459155426238096
8.787849833,1.0844679382904767,10.30694870561905,-1.000508885852381,13.509311489571427
8.797795833,1.167868212561905,10.22866053009524,-0.6009605100904762,13.254119273904761
8.807741833,1.3489787146571433,9.952157730428572,0.5816913135761904,12.22946686947619
8.817687833,1.5573846807523812,9.683853367523811,1.6264285928619047,11.292807735666665
8.827633833,1.6950223387428576,9.570870821333333,1.9148735785761903,11.036431706142857
8.837578833,1.7892504869619053,9.542602262380955,1.5037286147190474,11.074124329476192
8.847524833,1.8626401505380956,9.513828030619049,0.7571506628142857,10.955225027095238
8.857470833,1.9448072696904768,9.420368864333334,-0.0425988055190477,10.749947337809525
8.867416833,1.9890655758571432,9.203434045142858,-0.7930020059,10.458390881047618
8.877362833,1.95826998252381,8.806731369857143,-1.2786587488047618,9.938178123190477
8.887307833,1.8549112921904767,8.199164203809525,-1.469321150995238,9.524724417047619
8.897253833,1.7347406264904766,7.355834991857145,-1.573203396852381,9.36174886252381
8.907199833,1.6034455895047623,6.240953706333334,-1.7740830427190477,9.503734588238094
8.917145833,1.556055271014286,4.696411274000001,-2.471603022480952,10.249850940619048
8.927091833,1.6520543703476196,2.819818635142858,-3.3695410521,11.439516009666667
8.937037833,1.633971041514286,0.6165898378095251,-3.3442915985285717,12.749718523047617
8.946982833,1.5694094623659052,-2.1094412119047607,-3.1708501913428573,14.544047980571428
8.956928833,1.4683969499087624,-4.336871857619046,-3.4294095011047614,15.81193784104762
8.966874833,1.2427313884801907,-5.808013829999998,-3.366710531595238,16.284959902
8.976820833,0.9967378843849529,-7.035356535714285,-2.9260462615000002,16.60245095295238
8.986766833,0.7685394552897146,-8.201530794285713,-2.4136725739761906,16.91947136247619
8.996712833,0.5353778817182862,-9.35832478238095,-1.9871209208333336,17.21658708152381
9.006657833,0.3642540132897147,-10.542442558761904,-1.674855102357143,17.506638223380953
9.016603833,0.20715492476114328,-11.710072606714284,-1.4238289554523813,17.770021644
9.026549833,0.03442573802780995,-12.829365644285712,-1.1970968723238098,17.972523758285714
9.036495833,-0.0646888126198091,-13.838711926666665,-0.9631762257476192,18.02994035638095
9.046441833,-0.045893856715047185,-14.68303828385714,-0.7622270815571431,17.925085994190475
9.056386833,0.07524424299923853,-15.335737462142855,-0.5884234411285716,17.77244598652381
9.066332833,0.23491727238019092,-15.769978510142856,-0.44917974098571445,17.65040162742857
9.076278833,0.3936031595230481,-15.967553504633335,-0.35787674936666686,17.596930531
9.086224833,0.5005522490944766,-15.87197525172857,-0.4401516260809525,17.762235876714286
9.096170833,0.5833399057135242,-15.422422796157141,-0.6644348778904763,17.919228055619048
9.106116833,0.6750998415563815,-14.584066668966665,-0.8382024604761907,18.00546015109524
9.116061833,0.8065170923040005,-13.363533965157144,-0.8929120729428573,17.934216399666667
9.126007833,0.8813287082706671,-11.646066060871428,-0.5938030464666668,17.39138889966667
9.135953833,0.8283482566516195,-9.387031660395238,-0.859530652657143,17.088817496809526
9.145899833,0.7815983126659053,-6.778482839919046,-2.390460523323809,17.001581017285716
9.155845833,0.7609915135000005,-3.8512191118238084,-3.309557579657143,15.74832321157143
9.165790833,0.7983790698095243,-1.5555835356333325,-3.2482189230857146,14.600484770142858
9.175736833,0.9851576539190481,-0.08414697515714191,-3.1193155783095237,14.120353590619047
9.185682833,1.2053849984904765,1.112344734700001,-3.1285105198333336,13.858225458714283
9.195629083,1.3852896341952385,2.1880430208428585,-3.1273915855000003,13.611647571095236
9.205575083,1.6009695156238102,3.212867495652382,-3.079756992595238,13.342064378714285
9.215521083,1.7848903705285721,4.285943416890477,-2.8847307994047617,13.119885579190477
9.225466083,1.9621088788666672,5.377210526890477,-2.5569170117380957,12.972758320142857
9.235412083,2.1299420666000004,6.431272026652382,-2.1779390325809524,12.840838892523808
9.245358083,2.1931085966761907,7.3830586244142875,-1.8482746290619048,12.764217983952381
9.255304083,2.130030684076191,8.189836083890478,-1.5766015738238095,12.791825624476193
9.265250083,1.9700229120428578,8.88100128174762,-1.393115501109524,12.882681571238095
9.275195083,1.784877288166667,9.466708269890479,-1.3081311221095238,13.034104580857141
9.285141083,1.6298020566904765,9.913266505523811,-1.291947978252381,13.228454721190477
9.295087083,1.5554059272142862,10.19663961652381,-1.3540243863476191,13.447054892857144
9.305033083,1.5487605109285718,10.316082055,-1.4926217742999999,13.593937289619047
9.314979083,1.5748949754047625,10.301131699142857,-1.6471948970000003,13.61553138247619
9.324925083,1.5790739595476193,10.213784822476192,-1.6856745879047619,13.538452604380954
9.334870083,1.5773919661666673,10.079316014380954,-1.476647431752381,13.359136707238095
9.344816083,1.587892563119048,9.738807754857143,-0.457604541195238,12.513225736761905
9.354762083,1.7313469128904766,9.365732453000001,0.9276946251857142,11.337399601523808
9.364708083,1.9074312249666672,9.159072751000002,1.6019914200904761,10.819388835333333
9.374654083,2.033518268780953,9.03801625809524,1.789446067614286,10.663554517761904
9.384599083,2.0810011473380956,8.970636314,1.6493650183285713,10.598993565999999
9.394545083,2.016267792290477,8.935244927523811,1.211255870090476,10.471785502047618
9.404491083,1.812330877538096,8.917083642761906,0.33771537561428555,10.515319538714285
9.414437083,1.488791014728572,8.881995698952382,-0.3549332608142858,10.502366608714286
9.424383083,1.2272251641571432,8.752431340380953,-0.6462707668142857,10.240722044047619
9.434329083,1.0109421424428577,8.444043701666667,-0.9271374549095237,9.837450458190474
9.444274083,0.8714180126142862,7.8844732384761915,-1.1285955435285713,9.561816803428572
9.454220083,0.8689476058047625,6.756842489285716,-1.1683574452428571,9.86470663247619
9.464166083,0.9849757941666673,4.52944422604762,-1.4749233909571429,11.249765978904762
9.474112083,1.0579266972952386,1.4286138090476197,-2.241404374195238,13.583782722666667
9.484058083,0.97775052202381,-2.515753479619047,-2.170996700090476,16.618897763809525
9.494003083,0.8955190783052386,-6.157837650904761,-1.8564860102809522,19.32235388952381
9.503949083,0.6810082919242861,-8.40479081338095,-1.732185899947619,20.61132552333333
9.513895083,0.38678783021000046,-9.829870286142855,-1.2793916088047619,21.120247215238095
9.523841083,0.1617057721623814,-10.853212074095236,-0.7728351768999999,21.276884801904764
9.533787083,-0.03985882631380907,-11.686474524809523,-0.4156766084714285,21.213371320761905
9.543733083,-0.18851764349952335,-12.382040336999998,-0.1960774636714286,20.97830876057143
9.553678083,-0.2973325587090471,-12.945973073809522,-0.1070295482285714,20.57460287157143
9.563624083,-0.3904779835995233,-13.401803462042855,-0.24066949965714285,20.27391863004762
9.573570083,-0.4361186481233328,-13.797667145423807,-0.5600966607047619,20.205175467238092
9.583516083,-0.3799365953614281,-14.208721783719046,-0.8633700879428572,20.172602171190476
9.593462083,-0.26256012436142806,-14.64973165208095,-1.0543280112285713,20.051251686142855
9.603408083,-0.10135710836142806,-15.04993912062857,-1.0703681767523807,19.828225133666667
9.613353083,0.18001221749571478,-15.303412048866665,-0.7135418693714286,19.416336210714285
9.623299083,0.5247488565909528,-15.368043940819048,-0.49895019656190476,19.189234545714285
9.633245083,0.7237387032100004,-15.20226602153333,-0.7325265952285714,19.30751048733333
9.643191083,0.8398556978814289,-14.726431417580951,-1.2133716504666667,19.738600514619048
9.653137083,0.9256165314242862,-13.872741524152378,-2.042810648657143,20.36229641509524
9.663082083,0.9311423799004767,-12.42343678653333,-3.0336032422761905,20.570064560333332
9.673028083,0.835837609595715,-9.919856123199999,-3.4242189728476196,19.58273034747619
9.682974083,0.7509775361671432,-6.621522966533332,-2.8572538420380957,17.457526385571427
9.692920083,0.7558488376052386,-2.563262831771427,-2.6720206352380953,14.55682772842857
9.702866083,0.6845597966571434,1.1143837710857158,-2.433596337857143,11.994803555095237
9.712812083,0.6668481906095243,3.347490754752382,-1.8692828361428575,10.861523979380951
9.722757083,0.6944441805619052,4.738713651609525,-1.6048810997142857,10.513884641761905
9.732703083,0.6525993126571434,5.7053369465142865,-1.4541172709999999,10.49300400604762
9.742649083,0.6272262948952386,6.473349370990477,-1.2785456552857144,10.656320611
9.752595083,0.59479792922381,7.129269056466668,-1.1058391752380952,10.955694451666666
9.762541083,0.5360814878619052,7.65791596284762,-0.9025741473333333,11.375744490666667
9.772486083,0.45643436727619097,8.076439862271432,-0.5212749314761905,11.65623873504762
9.782432083,0.3246107228809529,8.44690040079524,0.023492776285714254,11.688557968619048
9.792378083,0.11771415287619097,8.85597737151905,0.5159488982380952,11.703977332190476
9.802324083,-0.09731090741428523,9.304606774452381,0.8311029070952382,11.826351194619047
9.812270083,-0.23571286608095188,9.717701311380955,0.967995943052381,12.047761419476192
9.822216083,-0.2713129146523805,10.034227550380953,0.9678692255285716,12.301533517095239
9.832161083,-0.1915178490809519,10.232619233809524,0.7569088963857142,12.590087918285715
9.842107083,-0.007298083080951943,10.288516722047621,0.39771939505238096,12.87861174704762
9.852053083,0.2175593722476195,10.182728228238096,0.15347248205238095,13.011851667523807
9.861999083,0.4201212063428576,9.938829781476192,0.2547218101476191,12.823818464190476
9.871945083,0.6341961593428577,9.649112525095239,0.5218745219571429,12.491867013714288
9.881890083,0.8684894684571434,9.396975936238096,0.6795404595761904,12.262633268952381
9.891836083,1.1393636026000007,9.23708329509524,0.6585034027666665,12.187082161809522
9.901782083,1.4258535614523813,9.173698697952382,0.5488745690523809,12.15794107847619
9.911728083,1.6678275364047623,9.18316539557143,0.464761982052381,12.135945141809524
9.921674083,1.8258464859428576,9.144214196333333,0.16658455643333336,11.914653909
9.931620083,1.952183188471429,8.977782808904763,-0.3959829738999999,11.49560251195238
9.941565083,2.033311300895239,8.642486562190479,-1.1186190279,11.100865191142857
9.951511083,1.9950633198476195,7.718321431285716,-2.268787285138095,11.391770848285715
9.961457083,1.9940882548952388,6.429143418000002,-2.8260532493285715,11.690309311142858
9.971403083,2.042568212486191,4.935878533190477,-2.8558195308523806,12.243438808761905
9.981349083,2.043700511871905,2.6596745633809538,-2.7366493777095235,13.628062313047618
9.991294083,2.0811900864290482,-0.7404644092857133,-2.5123244575190475,16.157374143714286
10.00124008,2.1845423309100007,-4.495990299761904,-2.671567521661905,19.03081786185714
10.01118608,2.194608313527143,-7.323519267857142,-3.1339099260904764,21.010690854333333
10.02113208,1.9983432693842862,-9.184530441523808,-3.1845969326333337,22.014320438761906
10.03107808,1.7595505556700002,-10.56653578747619,-2.7442199000619043,22.581283389809524
10.04102408,1.5227448232890481,-11.622453889476189,-1.9691649498714283,22.803502479333332
10.05096908,1.2384858939461911,-12.402953766904762,-1.0096446017761904,22.71099793361905
10.06091508,0.934785665189048,-12.973590197142855,-0.09222061458571419,22.345409524
10.07086108,0.63078463199381,-13.384247781647616,0.6628531191285715,21.85959147766667
10.08080708,0.3281575413319052,-13.648027123599999,1.2914725723666667,21.415954593714286
10.09075308,0.05001908707857187,-13.806929663980952,1.7530120148904762,21.09156561657143
10.10069908,-0.2119033845214281,-13.918515003885712,1.9510525869714286,20.882112463190477
10.11064408,-0.44067382443571385,-13.980892543742854,1.849963750947619,20.75847530242857
10.12059008,-0.5801045485023805,-13.98443311612381,1.4386244368047618,20.65767494147619
10.13053608,-0.5640324356119043,-13.796950917219048,0.9083015235666668,20.896382581428572
10.14048208,-0.4007397569976186,-13.30927533950476,0.054897510090476435,21.818897138
10.15042808,-0.15843913156428524,-12.599407042933333,-0.7645874801952379,22.89406977547619
10.16037308,0.2022667615785719,-11.412574738171427,-0.7447552840047618,22.997182334999998
10.17031908,0.514972986769048,-10.012033718647618,-0.9685175628142856,22.881752711190476
10.18026508,0.7486418132257148,-8.559110361742857,-1.430816642195238,22.341007616428573
10.19021108,0.9690545145542862,-6.390691013838095,-1.8315672613380953,20.868675164428574
10.20015771,1.0755605104876194,-3.1073308223142844,-2.1714362273714283,18.223899747857143
10.21010371,1.0251882477209528,0.5432849374952389,-2.0180153194190473,15.249269069095238
10.22004871,0.9878410058800003,3.2926275830666674,-1.4732864260380953,13.218788364571429
10.22999471,1.105952809499048,5.104861617876192,-1.1744917014523808,12.244378071619048
10.23994071,1.2606199914385718,6.5001945224952395,-1.1430190353571426,11.801712707333333
10.24988671,1.341310892238572,7.609757765352382,-1.170944780452381,11.674228162571428
10.25983271,1.3970098327147622,8.473147270685715,-1.2329826805952377,11.743823841619047
10.26977771,1.4372006203400005,9.149351002828572,-1.2398525742619046,11.991918881238096
10.27972371,1.469624001496191,9.673083881238096,-1.2015253007857143,12.349474714238097
10.28966971,1.5032421363104767,10.040364536714286,-1.175896286309524,12.672029590095239
10.29961571,1.5419330791876196,10.275510230714287,-1.153948901595238,12.90329597247619
10.30956171,1.6226178786923815,10.411727634619048,-1.1326129093904762,13.049976407285712
10.31950771,1.732294026130477,10.448661767190478,-1.088145057104762,13.102964145666668
10.32945271,1.833611443054286,10.420736745904762,-0.9683138901523808,13.080535938999999
10.33939871,1.8820979091495245,10.286335904809524,-0.6116428785999999,12.863561438380952
10.34934471,1.8007851917685718,9.982928283904762,0.2945682373804762,12.126964744333334
10.35929071,1.655017506006667,9.619803356000002,1.3275698690090476,11.218841804952381
10.36923671,1.4599487186685718,9.341638248428572,1.9943769967328573,10.620710151619047
10.37918271,1.1867222949209528,9.168133985666667,2.3593534038757142,10.262100964857144
10.38912771,0.7928896001590482,9.113840444333334,2.1903703751138095,10.295493678666666
10.39907371,0.2421826109685719,9.06784078861905,1.3733116450661906,10.924299408761906
10.40901971,-0.1796187781266662,8.955751251666667,0.990443762194762,11.093366173904762
10.41896571,-0.40252721378857104,8.731007698714286,0.9443111797661905,10.966928221857144
10.42891171,-0.5056439477504758,8.365837052661906,1.0244416458138097,10.847133074714286
10.43885671,-0.5401844147028567,7.745794573804763,1.041188851099524,10.751973464238095
10.44880271,-0.5612160654233329,6.535354971566668,1.062500671337619,11.034200457095237
10.45874871,-0.6333396293185709,4.44358017442381,1.0857382302899998,12.052540198523811
10.46869471,-0.7991339904042853,1.3343665763285724,0.7630197690519047,13.987391098047619
10.47864071,-0.7297269032247614,-2.710009038909523,-0.42194242875761906,16.965333363285716
10.48858671,-0.46656938094761863,-6.25457969557619,-1.211490621662381,19.446690632809524
10.49853171,-0.5057006500523805,-8.513563698909522,-1.171410603567143,20.654061499
10.50847771,-0.7431695471999996,-10.122599722719047,-0.9994332434719047,21.29542407566667
10.51842371,-0.9773673030571424,-11.351971523195237,-0.6862415079480952,21.63077081995238
10.52836971,-1.1839425407238093,-12.33101327400476,-0.34009352501952383,21.759838069
10.53831571,-1.3645702194380949,-13.201693895242856,-0.06318192144809524,21.775162975190476
10.54826171,-1.4855140158142852,-13.95559632005238,0.16332680499952382,21.694916912857146
10.55820671,-1.5337045797238091,-14.593973467528569,0.3316852397809524,21.524767701523814
10.56815271,-1.5295847777714282,-15.135989169338096,0.40382540905714287,21.259228671000002
10.57809871,-1.448297405290476,-15.569594680714285,0.2976804195238096,21.03582736709524
10.58804471,-1.2343778420190472,-15.784383766714287,-0.24142813019047624,21.303516038619048
10.59799071,-0.8793592013999996,-15.763792100666668,-0.7524501644285715,21.753428156238094
10.60793571,-0.3655290142095234,-15.552914245238096,-0.6003934887142858,21.65103437909524
10.61788171,0.08736616921904805,-15.117243385999998,-0.8653823411428571,22.048480628619046
10.62782771,0.523391300171429,-14.491434243809525,-1.6716653209523809,22.907407136095237
10.63777371,0.9806355869333336,-13.793030276661904,-2.6659255363809526,23.710725348714288
10.64771971,1.3793477484095242,-13.101348017900001,-3.377961201047619,24.05061355309524
10.65766571,1.641423037666667,-12.066992943566666,-3.844566754761905,23.563734757238098
10.66761071,1.879808927857143,-10.208703982947618,-4.161750081571428,22.2363020132381
10.67755671,2.2103220408095243,-7.335273815090475,-4.008612791428572,20.050213502047622
10.68750271,2.3233897960476195,-3.507070848328571,-2.865022929952381,16.914734380142857
10.69744871,2.2622641870000004,-0.1487850479476185,-2.007275319619048,14.364136840142857
10.70739471,2.4994960212857142,1.9740509383857152,-1.9200898537619049,13.149746736333336
10.71733971,2.898489635714286,3.526825359385715,-1.942654147571429,12.554179276809524
10.72728571,3.2107776596666673,4.781830128433334,-2.11899085752381,12.294096285857144
10.73723171,3.426932878,5.824976797957143,-2.368596910714286,12.239795626809522
10.74717771,3.579176097571429,6.765187106195239,-2.5756830697142856,12.292120608238095
10.75712371,3.6568971435666677,7.582251683528573,-2.729299281666667,12.434111032619047
10.76706971,3.670251691628572,8.289692800957145,-2.819329195190476,12.674838789428572
10.77701471,3.6433893601761906,8.916021593528573,-2.8069843864285717,13.025700858857144
10.78696071,3.5607689478238105,9.456451808666667,-2.60741582552381,13.357428206095237
10.79690671,3.369032093609048,9.797346903619049,-1.9263764180952383,13.213562410857142
10.80685271,3.152843607066191,9.940986039142858,-0.9097044931428572,12.728400889904762
10.81679871,2.9835624102852387,9.95874007961905,-0.04614413757142862,12.335460857047618
10.82674371,2.810226146866191,9.826452227238097,0.6720986528095236,11.945691405619048
10.83668971,2.5448088484471434,9.583813326285716,1.4784213937142856,11.358273351809524
10.84663571,2.232575443756667,9.351475019952382,2.2360624446980957,10.742019689190476
10.85658171,1.9491373903852385,9.329444771809525,2.6322696659266667,10.471367869904762
10.86652771,1.7438729801519053,9.470457700238095,2.6153587107838097,10.521492242857143
10.87647371,1.5799578880614291,9.612718619380953,2.254063265117143,10.626893022761905
10.88641871,1.3587278190757148,9.733282553809525,1.3973972225457143,10.942317515380953
10.89636471,1.08690950231381,9.844391874666668,0.28097803583142844,11.382243955857144
10.90631071,0.819723085266191,9.953047731666667,-0.7630943868828572,11.696509805857144
10.91625671,0.5556986719328576,10.010636290380953,-1.6142527979780954,11.831372253476191
10.92620271,0.31799680154238147,9.907990062380954,-2.2090356393590476,11.724148408285714
10.93614771,0.1772573557709529,9.600109043,-2.502167697597143,11.37870391652381
10.94609371,0.16200937658047668,9.130640748095239,-2.579819661173334,10.957124693095238
10.95603971,0.2731428102471433,8.46260744152381,-2.559641087030476,10.673906032047618
10.96598571,0.4895584245804766,7.559797484000001,-2.4235338890304763,10.672858775857144
10.97593171,0.7752606381900004,6.21454868209524,-2.1814789858876193,11.12381086252381
10.98587771,1.099068070261429,4.392618766380953,-1.9445554877923814,12.02698051252381
10.99582271,1.4544824629947624,1.71990154304762,-2.2613580216495244,13.731676649190476
11.00576871,1.5893480726380957,-1.8505374183809515,-3.429531415268572,16.464223516809522
11.01571471,1.4507165150380958,-5.282156686476189,-3.650235349697143,18.85882502252381
11.02566071,1.2196301270095242,-7.703829831714286,-3.208844688601905,20.335008393952382
11.03560671,1.0640574332380957,-9.26874933695238,-2.7893668856495237,21.002427376333333
11.04555271,0.9512742616095243,-10.45390911457143,-2.502784488601905,21.295446313
11.05549771,0.8427618806333338,-11.420813187285713,-2.2610407130142858,21.406843005142857
11.06544371,0.7976881054047624,-12.264142204380951,-1.9951901481,21.434104356809524
11.07538971,0.7610724459542861,-13.042288271238094,-1.7091948671952384,21.42712863861905
11.08533571,0.6825214677114291,-13.80668282847619,-1.3788997996714287,21.36817129052381
11.09528171,0.658688714411429,-14.536699043238094,-0.9877432641476191,21.039236925142855
11.10522771,0.7735442488923814,-15.164246924571428,-0.8150471422428571,20.789601659904765
11.11517271,0.8886465846066669,-15.674730290809524,-0.7014549546238096,20.54856230038095
11.12511871,0.9160383779590481,-16.08460228797143,-0.518646601957143,20.20717374152381
11.13506471,0.9000967414923813,-16.29770331063809,-0.4443296326238096,20.016287057380953
11.14501071,0.8477280774685718,-16.18431435530476,-0.733369503004762,20.287633278190476
11.15495671,0.7751610753733338,-15.658314455638095,-1.8483143072380952,21.37914537638095
11.16490171,0.5889444921876195,-14.816938770495236,-3.3105329273809523,22.643036305047616
11.17484771,0.2110706309019052,-13.801619919161903,-4.233237256380953,23.062599972666664
11.18479371,-0.31254960514571384,-12.421624400114286,-4.3975364426666665,22.694689526476193
11.19473971,-0.903248027145714,-10.588953372019047,-4.072101580904762,22.129977445999998
11.20468433,-1.469106391193333,-7.900643517733333,-3.153901501380952,20.777805699809523
11.21463033,-1.7065838224790473,-4.296268541542856,-1.536702486142857,18.288988960761905
11.22457533,-1.596120806883809,-0.8134252139238085,-0.9948644004761905,16.075234656952382
11.23452133,-1.3493922868876187,1.6619292689333343,-1.2500940826666667,14.712433387904763
11.24446733,-1.1693429152009518,3.2570934694095244,-1.5843169754761903,14.09527267552381
11.25441333,-1.0253315659247615,4.467794441790478,-1.7861055570952382,13.843032770761905
11.26435933,-0.8984992892533329,5.465815920361907,-1.8939051032857142,13.781144428857143
11.27430433,-0.8622945550628568,6.347838803504762,-1.978436740714286,13.808865765047617
11.28425033,-0.8573220654695235,7.177623191028571,-2.0321928115238097,13.874861491857143
11.29419633,-0.8024782924442853,7.994988370933333,-2.0201720499047617,13.947576409666665
11.30414233,-0.7380008535728567,8.762565400552383,-1.6958088156190476,13.999090628619047
11.31408833,-0.7723071926157139,9.3907414956,-0.9844000280000001,13.763809060380952
11.32403433,-0.7985652143252376,9.86625842869524,-0.395045517025238,13.582278047047618
11.33397933,-0.7092573901538092,10.261618611142858,-0.15162843535857137,13.679941466142859
11.34392533,-0.5521623493919042,10.567442858428572,-0.11544951245380945,13.89941636404762
11.35387133,-0.39244766035857104,10.690193011142858,-0.05617609250142852,13.965510159761905
11.36381733,-0.2925994851680948,10.545317634809525,0.6448272682604762,13.338522390714289
11.37376333,-0.18232890560142814,10.28646134209524,1.6841471857842858,12.374409859761906
11.38370833,0.04403417297000043,10.109539910476192,2.151993100879524,11.952229425
11.39365433,0.3770926484938099,10.030492655000002,1.8172786660223808,11.868012551666666
11.40360033,0.7700935490176194,9.985644483142858,1.0507447240699999,11.535965824523808
11.41354633,1.13124598849381,9.93487116057143,0.28943574968904756,11.184503933095238
11.42349233,1.3793281667319053,9.867891583428573,-0.19025511411095247,10.925691781190476
11.43343833,1.4707565219319054,9.78473248247619,-0.32786203939666675,10.780844373095238
11.44338333,1.4083895698880955,9.660857910190478,-0.3137037027776191,10.685677297380952
11.45332933,1.3282248837252386,9.457346961476192,-0.3964443102061906,10.474791717904761
11.46327533,1.2298016158300005,9.101835331142857,-0.8158096239204762,10.275796837333335
11.47322133,1.0091166134919052,8.468451260428571,-1.452348267634762,10.324925527333333
11.48316733,0.7155005955204766,7.482645394952381,-1.9954308078252385,10.540899911142859
11.49311333,0.4960734093252385,6.392168828190478,-2.0474820463490477,10.728735270190477
11.50305833,0.32227343210952425,5.1175491848095245,-1.9765704118728575,11.133049899809524
11.51300433,0.12054588733333378,2.6957361243333344,-2.1886963834919047,12.678491581476191
11.52295033,0.007472974895238534,-0.8324875550952365,-3.1615580730157142,15.477837311142858
11.53289633,-0.06497187958095195,-4.187838860761904,-3.277627310228571,18.007004028761905
11.54284233,-0.03884411853333289,-6.748646808238094,-2.7058078212285714,19.762740492333336
11.55278833,-0.10837849010952338,-8.458681258714284,-2.248626781847619,20.571863470904763
11.56273333,-0.25169216168333286,-9.744096811666665,-1.600772216609524,20.901481722333333
11.57267933,-0.373530388878571,-10.811959466761904,-0.859119457942857,21.00416268852381
11.58262533,-0.37439909025952334,-11.732803323238093,-0.1949164118952381,21.033200112333333
11.59257133,-0.38688519278333283,-12.576292665428571,0.300310789104762,20.99524481709524
11.60251733,-0.42926955683095197,-13.361918685428568,0.6357823548666668,20.863561635380954
11.61246333,-0.45975602040238056,-14.082427828714284,0.8549890122952382,20.653199312047622
11.62240833,-0.44727925949761854,-14.718229389095237,0.8576742694857145,20.407654528714286
11.63235433,-0.33600678740238055,-15.262786791952381,0.5311595034761906,20.293650444857143
11.64230033,-0.11861399543571391,-15.730744027057142,-0.05973248923809516,20.137674942952383
11.65224633,0.13786573813571468,-16.076502863819048,-0.5927506626190476,19.906613513380954
11.66219233,0.3382406578976194,-16.210139835961904,-0.8531325773333333,19.83758039957143
11.67213733,0.4998117282785718,-16.026335312771426,-0.7142263729047619,19.88333468714286
11.68208333,0.7448716930880955,-15.403343804438096,-0.3942954393809523,19.84182603142857
11.69202933,1.010052713526191,-14.271565318723809,-0.39723533590476173,19.87549917904762
11.70197533,1.0891501018595242,-12.892390748723807,-1.483993665095238,20.46424860095238
11.71192133,1.0599860418119054,-11.35210973967619,-2.7123364115714286,20.86654530857143
11.72186733,1.1511346390976194,-8.765744865390475,-3.040527581285714,19.620359891904762
11.73181233,1.253099207016667,-5.144089306819048,-2.0511227821904763,16.916129009523807
11.74175833,1.3480506001547623,-1.7342455152952374,-1.5728600244285715,14.565484176666665
11.75170433,1.3642482089166672,0.8643748443714292,-1.5806538060000002,13.037946598571429
11.76165033,1.5416047150166672,2.5989806036571435,-1.3414031159523812,12.451843204285716
11.77159633,1.8431470353523818,3.8986109606095245,-1.1689206678095239,12.287847985714288
11.78154133,2.132893921166667,4.953903605609525,-1.0941602846190477,12.269035425238096
11.79148733,2.2709519730714294,5.83500126432381,-1.1275405909047622,12.25466309
11.80143333,2.3498089294523816,6.627018012609525,-1.1997622801428574,12.253243334285715
11.81137933,2.3908204647380957,7.348544070228572,-1.288069102761905,12.298185658619047
11.82132533,2.3942054039761906,8.008513954895239,-1.4739034729523812,12.436112303285716
11.83127133,2.320602303071429,8.6248054728,-1.5457537804285717,12.665752849
11.84121633,2.156447932833334,9.165312314704764,-1.398985214904762,12.781253288095238
11.85116233,1.9720074344523815,9.622050023761906,-1.1723480272380955,12.862236756666666
11.86110833,1.836738212071429,9.985847103190476,-0.9849857239523813,13.016710168952383
11.87105433,1.7442685060333336,10.22815791952381,-0.8395463140857145,13.174364460714287
11.88100033,1.693992080171429,10.317259824238096,-0.7299932435904763,13.228874138380954
11.89094533,1.6875161252476196,10.262160731333333,-0.635677460209524,13.148903538000003
11.90089133,1.7638091019523814,10.056801589285715,-0.45135760240000017,12.882779356095238
11.91083733,1.9517040204761908,9.707910705333333,0.2048151004571427,12.156947975142858
11.92078333,2.1994214333952384,9.405356388190476,0.9101358785047619,11.412409559428571
11.93072933,2.381340855966667,9.23514555557143,1.1219073278857141,11.151333426095238
11.94067533,2.4808540761904765,9.190374706285715,0.9508876860761903,11.111704079904761
11.95062033,2.494832972857143,9.224072711428573,0.6574289634095238,11.029002021333334
11.96056633,2.415400727004762,9.261090598428572,0.41804033488571435,10.911122464190477
11.97051233,2.201249316448096,9.220205697142857,0.1946550899809524,10.700920854666666
11.98045833,1.904457903641429,9.059161795000001,-0.14088080911428566,10.301009058000002
11.99040433,1.5827736651504765,8.767928634,-0.5232501699238095,9.762300391285715
12.00035033,1.2873970070361909,8.21754325557143,-1.0107714785428572,9.403932219285714
12.01029533,1.0265216708457146,7.214557824904762,-1.7532555439714286,9.738973410714285
12.02024133,0.7702543304171433,5.88534506752381,-2.3769473534952383,10.410524066190476
12.03018733,0.49571562441714323,4.499458562285715,-2.3350137958285715,10.97325894152381
12.04013333,0.23230006984571472,2.448490258285715,-1.8406561036380953,12.118122475333333
12.05007933,-0.06474984563047585,-0.5130352021904754,-1.1264839222095238,14.172555040095238
12.06002533,-0.3447316898685711,-3.761722268047618,-0.8904769890666666,16.47108520533333
12.06997033,-0.4326519106019044,-6.588536789857143,-1.2199050537333331,18.39902215309524
12.07991633,-0.5779648187542854,-8.399976299619047,-1.500317357457143,19.355054364142855
12.08986233,-0.8175633988447615,-9.700034004333332,-1.3727508393333332,19.819317224714286
12.09980833,-1.0305030244447615,-10.715788083333333,-1.0350354880952382,20.045487329857142
12.10975433,-1.221177914635238,-11.511059503238094,-0.5575236242380953,20.042275920761906
12.11969933,-1.3473304193971427,-12.162775736714286,-0.0035983971428570983,19.84390733052381
12.12964533,-1.4106743367828567,-12.722524790571427,0.4647582862857143,19.524676389285712
12.13959133,-1.4621996652209521,-13.204338116904761,0.7923015496666667,19.15369852038095
12.14953733,-1.5070457557780952,-13.637109397657142,0.922356594047619,18.741946139142858
12.15948333,-1.508389118730476,-13.991544277466666,0.803072113904762,18.400046606142855
12.16942933,-1.4401207389733328,-14.242564048133332,0.42821547157142853,18.154151402714284
12.17937433,-1.3352025074642853,-14.362479136561904,0.014341361571428544,17.99749402942857
12.18932033,-1.2499048151814283,-14.31417798889524,-0.2266887195714286,18.02812742447619
12.19926708,-1.1654687344999997,-14.055937073942857,-0.3034942986761905,18.286870014380952
12.20921308,-1.0449235946714281,-13.44449406732381,-0.06615207034285715,18.548073299714286
12.21915908,-0.8431695812428567,-12.336634758752378,0.5367284684190475,18.25427644352381
12.22910508,-0.6058829432428567,-10.888833089228571,1.0536448854857141,17.686863130666666
12.23905008,-0.29362230371904724,-9.388648609228571,0.9029365495809524,17.27266268542857
12.24899608,0.3028167336142861,-7.2461551749428565,-0.3931745908000001,16.831656728761903
12.25894208,1.029144274376191,-4.288656330085713,-1.8635126541333333,15.411201440666668
12.26888808,1.6196075269476196,-1.1070594369904754,-2.4624100419428574,13.343236495904762
12.27883408,1.9684170475857146,1.6627430058666675,-2.316147093514286,11.508483205428572
12.28877908,2.297895600157143,3.4807042493428577,-2.0330575446523813,10.606874241142858
12.29872508,2.6022426875857145,4.852632336961905,-1.9674780557000002,10.245216452095239
12.30867108,2.778154907080953,5.9454578974380965,-1.9681860143190475,10.142399990666668
12.31861708,2.9002677010771434,6.804560837009525,-1.9535775534619049,10.216225088333333
12.32856308,2.9608463466247623,7.520895402438096,-1.9120169367952382,10.411242055714286
12.33850908,2.962945763300953,8.136302487152383,-1.8156830008428573,10.727451551714287
12.34845408,2.9124124532580957,8.643884882676192,-1.7164065858428574,11.112917022523808
12.35840008,2.8198128137676193,9.05088829152381,-1.606095291557143,11.516716286619047
12.36834608,2.7003434780533335,9.35258181504762,-1.4298667272238095,11.81755757757143
12.37829208,2.5694649473057147,9.572978408666668,-1.2341513978904761,11.98520746747619
12.38823808,2.4773710345152384,9.764519772904762,-1.1462013667952382,12.133148316476191
12.39818308,2.439032414658096,9.921598984238097,-1.1754007468428573,12.28446466857143
12.40812908,2.4314310552295244,10.019242641000002,-1.3024404169285717,12.400925980619046
12.41807508,2.426482890753334,10.051458126142858,-1.5347476774523812,12.455354938238093
12.42802108,2.381142814896191,10.047079619952383,-1.7346784873095238,12.459857042523808
12.43796708,2.340341319991429,10.02123748852381,-1.797256502995238,12.435273697761906
12.44791308,2.2402953766104767,9.944191985428573,-1.6310901301857141,12.298318680857143
12.45785808,1.854858604800953,9.759284732857145,-0.6689834091285716,11.46210115242857
12.46780408,1.3903838667533337,9.54785562404762,0.21581186852857126,10.590514081095238
12.47775008,1.048513953934286,9.243058342761906,0.4927127243380951,10.075461013571429
12.48769608,0.7175337615247623,8.662869037904764,0.28136508676666655,9.984203448
12.49764208,0.4550881625485719,7.7475625224761915,-0.17722312680952393,10.147605144190477
12.50758808,0.3830243968771433,6.489791129619048,-0.625252716809524,10.418287951333333
12.51753308,0.5066411173819051,5.093901542000001,-1.001329700857143,10.771223962761903
12.52747908,0.6961233270047623,3.5616362296190482,-1.2153168551428573,11.297593288
12.53742508,0.9098048024095242,1.2080822282857153,-1.0835368194761907,12.705964654190476
12.54737108,1.1031736179619052,-1.9458646301904752,-1.0825913525714288,14.88742122847619
12.55731708,1.2438404747285718,-4.862012968666666,-1.9579336250000001,16.932253781333333
12.56726308,1.3265145752857148,-6.887390209857141,-2.688508582857143,18.12878092990476
12.57720808,1.3517211075476194,-8.333703540238094,-2.726995624571429,18.66018612290476
12.58715408,1.3714799638619053,-9.483425766523808,-2.555899857571429,18.90913278595238
12.59710008,1.32830054032381,-10.446907686809523,-2.3246933214761905,18.92011888214286
12.60704608,1.2744598423814288,-11.28330254638095,-2.0608486856666666,18.76807828733333
12.61699208,1.2122728540242862,-12.002608611333333,-1.8321908603809522,18.465646687142858
12.62693808,1.1349369828957148,-12.603899347952378,-1.6696394886428572,18.022768388142858
12.63688308,1.0673940111433335,-13.084376390809522,-1.664119661357143,17.638613526380954
12.64682908,1.041315356238572,-13.433616576428571,-1.872324643261905,17.476106700666666
12.65677508,1.0616230146671433,-13.67718153695238,-2.1478971265476194,17.419425332095237
12.66672108,1.0701519409052385,-13.796789117523806,-2.3813434351285716,17.40456663490476
12.67666708,1.0108915301204766,-13.756677914238093,-2.5332722032619053,17.47969736890476
12.68661208,0.908120707701429,-13.492588502857142,-2.4495249558809524,17.656755865952384
12.69655808,0.8184026508728576,-12.88381513995238,-2.039347010147619,17.63442874609524
12.70650408,0.7462408747061908,-11.95287904490476,-1.5958395453666667,17.452858636095236
12.71645008,0.614817372996667,-10.693638943,-1.3342201927619048,17.16325395466667
12.72639608,0.4068898553300005,-9.260084933476188,-1.2454354020476193,16.79683473038095
12.73634208,0.19488880005857184,-7.654151720619048,-1.4070614084285717,16.285793885619047
12.74628708,-0.008948940004285307,-5.214468483476189,-1.9110335380952381,14.913737379428571
12.75623308,-0.20715136159952338,-1.978147777285713,-2.2002863898571428,12.759920500380954
12.76617908,-0.3873635086471425,1.0191453798571442,-1.4536969103333335,10.761412329904763
12.77612508,-0.5266303940614281,3.1208705789047633,-0.6779754890476193,9.660006480380952
12.78607108,-0.6245725788471425,4.640016632714286,-0.47953903261904784,9.267359266095237
12.79601708,-0.7320656656995235,5.850312031285716,-0.392945332809524,9.170288900857143
12.80596208,-0.8084176679423805,6.846257080142858,-0.2823310483333335,9.274557979904761
12.81590808,-0.8884831089523805,7.70896218257143,-0.17713858066666685,9.502119643761905
12.82585408,-0.9495220104047616,8.460147712761906,-0.05463435209523829,9.84611265157143
12.83580008,-0.9629978810142852,9.082804955095238,0.08026798359523793,10.289384153428571
12.84574608,-0.9418049106571424,9.565276009857143,0.266970414690476,10.650177215666668
12.85569108,-0.9227273428476186,9.91559141452381,0.5480253656809523,10.803694095190476
12.86563708,-0.9162522406571424,10.202173811476191,0.7982771184904761,10.910237336857143
12.87558308,-0.8649542487999995,10.440958756523811,0.9164284639190475,11.069610075809525
12.88552908,-0.7161669173009519,10.609107916666668,0.9070687422999998,11.247959335047618
12.89547508,-0.47892480511047575,10.705022579428572,0.765836682538095,11.413557205047619
12.90542108,-0.15521189949142813,10.73063541657143,0.5031269077571427,11.551016115238095
12.91536608,0.23050345388952426,10.71593156257143,0.17549443949999985,11.704380229047619
12.92531208,0.6539508202704767,10.665698968428572,-0.22890768229523828,11.887145895238096
12.93525808,1.070976036556191,10.58978384352381,-0.656360641961905,12.081965658571429
12.94520408,1.40171056930381,10.499354899190477,-0.9097758498190478,12.182642056666666
12.95515008,1.613069499319048,10.365329282285716,-0.847508015009524,12.089782673047619
12.96509608,1.6574420245904766,10.149070122809524,-0.6201578115809525,11.915601619
12.97504108,1.645820599971429,9.867743955047619,-0.48979397158095267,11.708391873047619
12.98498708,1.656631155019048,9.501005837619047,-0.5897532369142859,11.349045050761905
12.99493308,1.555285514876191,8.703280396857144,-1.2913236663904764,11.29124068552381
13.00487908,1.4532538292571433,7.620341531619049,-1.8359535469142858,11.313215227428572
13.01482508,1.4368506838761912,6.421585195428572,-1.9330478854380955,11.415300513142856
13.02477008,1.3152810004952387,4.522260976857145,-1.7894217806761905,12.263864013619049
13.03471608,1.1092877452571435,1.5909684611428585,-1.4396822152476194,14.16163000742857
13.04466208,1.0065182382333338,-1.6706101002857132,-1.7751236539142858,16.365613491238094
13.05460808,0.9938004258523815,-4.525594168380952,-2.191123366009524,18.24035338647619
13.06455408,0.7673929571380957,-6.55820282790476,-1.9370135054285715,19.318191230285713
13.07450008,0.3724303923285719,-8.073827910761903,-1.4734568013333333,19.96688611076191
13.08444508,0.012015196280952902,-9.208236084095237,-0.8717413897142859,20.307575323619044
13.09439108,-0.35630114038571375,-10.113738405999998,-0.21369863619047647,20.476994057428573
13.10433708,-0.7444738279095233,-10.927893297476189,0.4037196679523807,20.496290558380952
13.11428308,-1.1241841464809519,-11.692129088857142,0.9597761216190472,20.35104419657143
13.12422908,-1.5525477403857137,-12.420150205809524,1.438038155428571,20.054988225857144
13.13417508,-2.0190650429095234,-13.123511999428572,1.7488128225238093,19.669979921285716
13.14412008,-2.378621115928571,-13.789880854142856,1.9218913525238093,19.286330118523807
13.15406608,-2.550140458023809,-14.410969177142855,1.9935052097619046,18.983096810142857
13.16401208,-2.518827003214285,-14.927147007476188,1.8406374414285713,18.848594547285717
13.17395808,-2.25783865217619,-15.280865575371427,1.5304607078571426,18.785687928285714
13.18390408,-1.9054153538904757,-15.46315324727619,1.240652708238095,18.72880790780952
13.19385008,-1.5955827149857138,-15.43929128922857,1.0690421077619046,18.797963844714285
13.20379471,-1.200935280271428,-14.865991145990474,1.428221975095238,18.59236607104762
13.21374071,-0.8252646916047615,-13.903676524847619,1.6181158721619044,18.38554841004762
13.22368671,-0.5543247101761901,-12.730526203895238,1.391964769095238,18.195011489571428
13.23363271,-0.20708946536666625,-10.80725156722857,0.9294229467619045,17.32733813052381
13.24357871,0.1924957480619052,-7.815259272942856,0.1833861686666664,15.501213396714284
13.25352371,0.5209078520619052,-4.404914514371427,-0.20028524847619072,13.682316011000001
13.26346971,0.8068336416000005,-1.367068021038094,-0.5063878231904765,12.31595185147619
13.27341571,1.2970398246000006,0.8004159675333343,-1.1528945912857145,11.565120122904762
13.28336171,1.9060670958380956,2.39929827324762,-1.7839034117142862,11.10720145052381
13.29330771,2.3929000897428576,3.575647410866668,-2.351082494714286,10.839580590047618
13.30325371,2.792633850266667,4.517169472342858,-2.8273808627285715,10.685009832428571
13.31319871,3.115154125742858,5.368576752152382,-3.1514650177761907,10.636895821
13.32314471,3.343326764409524,6.136689052628572,-3.3093826155857147,10.679331423761905
13.33309071,3.5254747574761907,6.828214327580954,-3.2268410919190478,10.802227280952382
13.34303671,3.6542318313714293,7.460743674723811,-2.8022738167285715,10.977480034095239
13.35298271,3.620481472914286,8.053852653152383,-2.1252273336809524,11.169509795904762
13.36292871,3.4190185185809527,8.634321677676192,-1.432455293157143,11.394754834285713
13.37287371,3.1209011939142863,9.188434405485715,-0.8609262715380953,11.639799852666666
13.38281971,2.796821991590477,9.695465241428572,-0.4372446545857145,11.892917801904762
13.39276571,2.498786242533334,10.116314494904762,-0.12577070230000015,12.154943631666665
13.40271171,2.2699172961666667,10.435237952857145,0.12032757836666652,12.403205576571427
13.41265771,2.1076660555804767,10.640065499428573,0.30232444874761893,12.575856439761905
13.42260271,2.0124566853900006,10.723849277809526,0.35797495479047603,12.63242489504762
13.43254871,1.9511998620566668,10.70220305209524,0.329636953142857,12.599695171714286
13.44249471,1.875900003628096,10.631497741142859,0.338663439142857,12.515264698380953
13.45244071,1.7133515258804768,10.517721616380953,0.3322503800476189,12.39460544790476
13.46238671,1.279831467404286,10.274342485952383,0.09050604719047599,12.429883884571428
13.47233271,0.6824172397852385,9.894402246428573,-0.10058062614285745,12.378211636952383
13.48227771,0.23751872240428615,9.536369547142858,0.3043040928285712,11.845901812809524
13.49222371,-0.08009918130047577,9.17492224104762,0.9046197923999997,11.56972490052381
13.50216971,-0.32715882817666625,8.624753822233336,1.2929201858761903,11.287979727904762
13.51211571,-0.44885094808142817,7.646899445900002,1.5741204123666663,11.310382189333334
13.52206171,-0.42038322179571386,5.600465072566668,2.2681276077,12.523353322190477
13.53200771,-0.5120595059147616,2.440327488757144,2.5208169324619045,14.76516330695238
13.54195271,-0.5991374874099996,-1.8826154664333319,0.5593526819857143,18.58672670095238
13.55189871,-0.5366861266099996,-6.248539327242856,-1.4680684947761906,22.43458078
13.56184471,-0.5873903476576187,-8.727790895576188,-1.4529052166809524,24.014072694761904
13.57179071,-0.6686432911814282,-10.212251934195235,-1.3170986771095239,24.630482422380954
13.58173671,-0.7091960706576186,-11.314104119528569,-1.3316232164904764,24.786322349047616
13.59168271,-0.7418408006671424,-12.188086162242856,-1.421360435109524,24.663252849142857
13.60162771,-0.746412105138571,-12.891519625909522,-1.5447228887285713,24.350353786809524
13.61157371,-0.750334667990952,-13.443684757338096,-1.7369527745857143,23.87451560909524
13.62151971,-0.7773814967238091,-13.863788490814283,-1.9580655129190478,23.486874867190476
13.63146571,-0.8463472091714281,-14.150764655909521,-2.133761667361905,23.256075207285715
13.64141171,-0.9179961427571425,-14.3459060668619,-2.2878324306952385,23.121006638904763
13.65135771,-0.9221383242809521,-14.500004646433332,-2.4270544404571432,23.017406127904763
13.66130271,-0.8110715453904758,-14.637107792242855,-2.3503469901238097,22.873204884666666
13.67124871,-0.504044748628571,-14.697277367623807,-1.5621682426714285,22.299129501142858
13.68119471,-0.10475752048571385,-14.58683755295714,-0.6960678081438096,21.768517754238097
13.69114071,0.14325569541904806,-14.378335142623806,-0.7463493033057144,21.976772336000003
13.70108671,0.4340120194571433,-14.024817607480951,-1.687654794972381,22.420212980190474
13.71103171,0.8831641082380957,-13.390024719619046,-3.227809058781905,23.57414318995238
13.72097771,1.0866639680000003,-12.426091617095235,-4.333425208210476,24.002451305666664
13.73092371,0.9899312240904766,-10.412806640904758,-5.367846606781905,22.81527230614286
13.74086971,0.9556620853523815,-7.219336892809523,-5.5917049469723805,20.611477217095235
