Time (s),Linear Acceleration x (m/s^2),Linear Acceleration y (m/s^2),Linear Acceleration z (m/s^2),Absolute acceleration (m/s^2)
0.2026570417,0.7817983769285713,-0.14971340778076192,0.07090525820857144,1.0032972778333333
0.2126030417,0.9599495370666666,-0.1653163233755238,0.11408452338476191,1.1737977104904762
0.2225490417,1.1028363867238096,-0.21899236738980954,0.1766081042609524,1.3111539745619047
0.2324950417,1.1882544933619048,-0.3034972398755238,0.22931546303238098,1.4089036532809525
0.2424410417,1.2515870400142857,-0.3674985513802857,0.2917938532847619,1.480276489104762
0.2523860417,1.2829939806142856,-0.43297481951838096,0.37678413515619047,1.5478541730714288
0.2623320417,1.331304957147619,-0.47779153130885715,0.4620177725942857,1.6240491772761907
0.2722780416,1.4095159946190476,-0.5266645157612381,0.5193441254657143,1.714937272195238
0.2822240416,1.4945565904,-0.5559136667279047,0.5542730807309524,1.8027139115809523
0.2921700416,1.5633830294761903,-0.5954345483421906,0.5427345751742857,1.8749215035714282
0.3021160417,1.6644588937238094,-0.6776619999421905,0.47634592908095236,2.012794883452381
0.3120620417,1.757086899204762,-0.7688489695755238,0.37877694983809523,2.168639095538095
0.3220080417,1.8543317477904764,-0.842385098956,0.2648362679142857,2.3326112597047617
0.3319540417,1.9614423127666667,-0.8892711995333332,0.15226171835238098,2.4942199804380953
0.3418990417,2.0252160596619047,-0.9166387930714286,0.05113175690476192,2.613262966828571
0.3518450417,2.0100357132904763,-0.9298721314857142,-0.0435690517095238,2.6674596577142857
0.3617910417,1.9262452870142857,-0.9252483482571427,-0.15124463693809523,2.7027352218095237
0.3717370417,1.8109275023,-0.8848121163619047,-0.2911314751142857,2.732304012238095
0.3816830417,1.6491158886333335,-0.8407212841904762,-0.4711114180666667,2.765762371
0.3916290416,1.4432144382047618,-0.7956414024480952,-0.6637589360666666,2.8268150813333333
0.4015750416,1.1950166869666667,-0.7402737694085714,-0.8456045027666667,2.8979641868095234
0.4115210416,0.9147794794904762,-0.6949177946519048,-1.035323735180952,2.9607148948095237
0.4214660416,0.6208019834904762,-0.6911847581566667,-1.2605840706380953,2.9988553917142857
0.4314120417,0.3887981307761904,-0.6272075594709524,-1.5086603807952381,3.059814911904762
0.4413580417,0.2641189712095238,-0.514012084337619,-1.688089516047619,3.0895090779523806
0.4513040417,0.0524410564,-0.3923615283852381,-1.3688868115571429,3.3681748868571426
0.4612500417,-0.39833046007619044,-0.25124506252809525,-0.979789386890476,3.8743545266666666
0.4711960417,-1.2374731494095237,-0.07843384774238092,-0.26453310346190473,4.873514831333334
0.4811420417,-1.9050305483142858,0.13377493852904762,0.5221343336333333,5.780063422904762
0.4910880417,-2.125088462885714,0.24816948267666672,0.6892806684333334,5.919654559238095
0.5010340417,-2.1211697842666664,0.35097090550523813,0.6563316639238095,5.952801204333333
0.5109789167,-2.129757958838095,0.4527863764004762,0.5989303831619047,5.967389026190476
0.5209249167,-2.1273497970285713,0.5507697910195238,0.5368256856380952,5.995306933238096
0.5308709167,-2.1297458328380947,0.6542346640052381,0.41711950992380953,6.084665894619048
0.5408169167,-2.098532671742857,0.7866105030909525,0.2673634348761904,6.231023886380952
0.5507629167,-1.9654146051714283,0.9368991933576192,0.12086704335238094,6.444926332952382
0.5607089167,-1.791340649328571,1.0595043177195238,0.02890852320952381,6.633480448380952
0.5706549167,-1.6045410848523807,1.1525611607766666,0.01579689387619047,6.737006232095238
0.5806009166,-1.3563679475666663,1.1758565514671429,-0.0023488818380952396,6.8507299374285715
0.5905459166,-1.0619278115190476,1.13791334261,-0.00016154983809526935,6.944257878285715
0.6004919166,-0.7499440585666665,1.0779435958438097,0.04499329459047615,6.991647292333333
0.6104379166,-0.4394330034714285,1.0168174647090475,0.11517876054285708,6.996538806190477
0.6203839167,-0.2016827369476189,0.978788058147619,0.2324192211619047,6.904801723333334
0.6303299167,-0.16741742670952367,1.0067681614476192,0.46560389817619047,6.764913108238095
0.6402759167,-0.18491384128095223,1.0177490653761905,0.6746363446626665,6.641353461952382
0.6502219167,-0.24382621309523794,1.0171087117333333,0.8474707395055238,6.575930197761905
0.6601679167,-0.2690546375714284,1.0024429342571428,0.6473418204579047,6.415944442809523
0.6701139167,-0.05518936990476174,0.9816507644476191,0.3955492427912381,6.0874079395714285
0.6800589167,0.6208581374761906,0.8905236139714287,-0.2081873009230476,5.190432892476191
0.6900049167,1.229452610509524,0.7241988686523809,-0.8345399001611428,4.379177086714286
0.6999509167,1.4447746980809524,0.5908135634809525,-0.7754822981135238,4.407858237428572
0.7098969166,1.438167838604762,0.4266707623857143,-0.5020500384659047,4.5435851369047615
0.7198429166,1.3713701867380952,0.2787495783952381,-0.222849639799238,4.5743822523809525
0.7297889167,1.262430322124762,0.14465575077619053,-0.020484745456380873,4.501780610571428
0.7397349167,1.0534302928866668,0.004179923933333382,0.1690174995436191,4.393843276809524
0.7496809167,0.6505993318390476,-0.15148060682857137,0.4026132358055239,4.340859534666667
0.7596269167,0.0886646583628572,-0.3204139725428571,0.711118709853143,4.347364235714286
0.7695719167,-0.4349519301609524,-0.48104268059047617,1.0167961919960002,4.430472457285714
0.7795179167,-0.77365778578,-0.6629370019714286,1.2647248460436191,4.497954050142857
0.7894639167,-0.9997859385514284,-0.8436327624380953,1.5751779998055238,4.524293689428571
0.7994099167,-1.163099127684762,-0.9929654712238095,1.885962969138857,4.564137541476191
0.8093559167,-1.3054333180180953,-1.103845490747619,2.18451339151981,4.614502228095238
0.8193019167,-1.3834386970657142,-1.1425996039857143,2.4593665245674288,4.6426553694761905
0.8292479166,-1.3728488813514286,-1.1714939264190476,2.683692892615048,4.729442828380952
0.8391939166,-1.1849829657323807,-1.2276935034095238,2.7410617630769525,4.794952745761905
0.8491399167,-0.9864400830180952,-1.2651791189142858,2.7673195202809526,4.798557289571429
0.8590849167,-0.8336522962561904,-1.294797672952381,2.7582897486809523,4.776916703238095
0.8690309167,-0.666763447775238,-1.2933766533333333,2.644788777409524,4.624674949047619
0.8789769167,-0.552230108775238,-1.302601433047619,2.535030135504762,4.472967726047619
0.8889229167,-0.5559797262990476,-1.3698506883857142,2.4310674486952384,4.386677874190476
0.8988689167,-0.7122905509990476,-1.4884333007809525,2.2435210973000004,4.3335885413333335
0.9088149167,-0.9626643435704761,-1.574116603038095,1.9093005711571431,4.267073393095238
0.9187609167,-1.1593488279514286,-1.5333864232761905,1.5295032543476192,4.208456940333333
0.9287069167,-1.251556293322857,-1.41402186065,1.2383828610619048,4.160875035285715
0.9386529166,-1.2556247407285714,-1.2623465762833332,1.0688203453857144,4.17265229347619
0.9485989166,-1.0955284460142856,-1.100537680854762,0.9814195906238096,4.174884012190477
0.9585439166,-0.7307684485380952,-0.9809171424738095,0.8365218278380953,4.125926041142857
0.9684899166,-0.24847233715714284,-0.8859760655261905,0.5285265372666667,4.057207223142857
0.9784359167,0.18982619127142866,-0.7757695130023808,0.07584028040952376,4.039689777761905
0.9883819167,0.4390073815571429,-0.6097806066690475,-0.4803361525428571,4.1907738403809525
0.9983279167,0.5081248362000002,-0.40002995504999994,-1.1292932520666668,4.3961409226666674
1.008273917,0.4671082089776192,-0.18349260728809524,-1.7729784184,4.563869502761905
1.018219917,0.4118632804438096,-0.006210884637619028,-2.4333571904952382,4.740586421619048
1.028165917,0.31517048208190485,0.09275251197047621,-3.0815366938285718,4.963165089857143
1.038111917,0.22001339922000004,0.16128293749000003,-3.7152974088761903,5.216746271000001
1.048056917,0.1452537260390477,0.19348887357428574,-4.283736845257143,5.542174794190476
1.058002917,0.0926411861342858,0.2066673142919048,-4.7880532089,5.918289903190477
1.067948917,0.06533266688190484,0.20799656217761908,-5.2144293620476185,6.263768860428572
1.077894917,0.0850105488342858,0.1739225376871429,-5.673807729347619,6.608911741238095
1.087840917,0.21211244997714296,0.15207021195857146,-6.213486299014286,6.933343792809524
1.097786917,0.34955925204857147,0.19369075040142858,-6.652356893966666,7.172870995380952
1.107732917,0.4982392932580953,0.3475053360919048,-6.958384011761904,7.3029980332380955
1.117678917,0.6998734457342858,0.5352099660442857,-7.056035130476191,7.285377825190476
1.127624917,0.8882289751628573,0.5959236596538096,-6.857606470342857,7.17175738947619
1.137569917,1.0493181723533336,0.5185650000752382,-6.521446200009525,7.258879388142858
1.147515917,1.1862764848009524,0.357920741232381,-6.098196274676191,7.463317929333333
1.157461917,1.2811584770390476,0.08024049685142856,-5.525946792580952,7.807395409142858
1.167407917,1.3662124866104763,-0.25695034172,-4.810134272295238,8.220544671761905
1.177353917,1.483246540515238,-0.6092349008580953,-3.9493195464380957,8.65925612804762
1.187299917,1.6504694320866666,-0.9863075752866667,-2.950560288438095,9.114259970380951
1.197245917,1.8575022630390476,-1.333119119715238,-1.8578477464857146,9.491536884619048
1.207191917,2.060369680310476,-1.6494938462390476,-0.7533408970095237,9.777453527904761
1.217137917,2.2989735916185716,-2.034459516953333,0.3070822621809524,10.085409702857143
1.227083917,2.4913871966285717,-2.451736990127619,1.3801395278,10.402490463428572
1.237028917,2.368998593276191,-2.6215064302595237,2.603532271942857,10.734628231095238
1.246974917,2.0662531730428575,-2.7818713244457145,3.911493824895238,11.167162341428572
1.256920917,1.6716839518428572,-3.0793990179061903,5.1885466065142865,11.618811113809524
1.266866917,1.2681479036047623,-3.4326352531904765,6.437524845085715,12.055339343333333
1.276812917,1.0446655985238096,-3.7654483231952387,7.54255863984762,12.422132690142856
1.286758917,1.0284345945142856,-4.073379821704762,8.572003389752382,12.680834067809522
1.296704917,1.2013035575619049,-4.2895487705476185,9.590721477895238,12.872707228190476
1.306650917,1.5234732297761906,-4.3607003758000005,10.452814627657144,13.133312826
1.316596917,1.9086400655666669,-4.372372246595238,11.14982996475238,13.432088712952382
1.326542917,2.194849904471429,-4.317205827357142,11.673250963895239,13.737036209761905
1.336487917,2.368376978566667,-4.183140825109524,11.84797684947619,14.01129562485714
1.346433917,2.4206263123761906,-3.9268401207761903,11.720965468761905,14.02219204295238
1.356379917,2.368786471566667,-3.6107757839666665,11.352935729190477,13.896381505285714
1.366325917,2.237689655190476,-3.1868966982047615,10.698964252476191,13.691491220142858
1.376271917,2.021882346214286,-2.673909136538095,9.836548977,13.45986634942857
1.386217917,1.7249154612190476,-2.1353204600142854,8.809036676190477,13.212633522285714
1.396163917,1.3906676480761906,-1.5804401041571428,7.6277012,12.97123322895238
1.406109917,1.0712484016952382,-1.0731665530142858,6.378960191428571,12.785778696571429
1.416055917,0.8211567581571428,-0.6078756343476192,5.13344601,12.672528385142858
1.426000917,0.5861459608666666,-0.06539768230000001,3.8929265204761907,12.572622399428573
1.435946917,0.3901698666304762,0.5195158665571429,2.6211167980952377,12.476624198952383
1.445892917,0.4776956126209524,0.8490895964619047,1.1848786938095237,12.376093598476192
1.455838917,0.6891648375257143,1.1276114744619048,-0.34144584666666683,12.17466196657143
1.465784917,0.9096482205257145,1.5251368808904762,-1.8177169409523812,11.940898726095238
1.475730917,1.0667507651447619,1.928301025366667,-3.2184758109523814,11.686165442761904
1.485676917,1.0185421984304763,2.266856913857143,-4.428844105238095,11.470775149904762
1.495622917,0.7774073268161905,2.5717668863000003,-5.495100641714286,11.298966549904762
1.505568917,0.34190539634000006,2.747771592745238,-6.453685852714286,11.09050284495238
1.515514833,-0.1994704251361904,2.752433187969048,-7.309924770142857,10.863682612904762
1.525459833,-0.7778941075171429,2.6820390877595237,-8.069039959904762,10.65822603957143
1.535405833,-1.246475755612381,2.5407001422833333,-8.775045920095238,10.542522208619047
1.545351833,-1.5815466060885712,2.3864216357309522,-9.38820010052381,10.585925655571428
1.555297833,-1.8052975663742856,2.1993778247071427,-9.885629780571428,10.770772071238095
1.565243833,-1.9721686226123811,1.9782964664166667,-10.216772388095238,10.975394492428572
1.575189833,-2.1063075155695237,1.7239276333690479,-10.332288114999999,11.036936835809524
1.585135833,-2.19561453226,1.462281801207143,-10.229979382714285,10.893456779619047
1.595081833,-2.2381275698361907,1.208303144497619,-9.968543075809524,10.595911995190477
1.605027833,-2.2454901819314284,0.9619354186071428,-9.551335384523808,10.152367550142857
1.614973833,-2.216818951664762,0.7341576897480953,-9.034208077933334,9.59585542409524
1.624918833,-2.1854611694361905,0.5196725058304763,-8.5014224286,9.02829534757143
1.634864833,-2.141405699002857,0.318011254292381,-7.972943365219048,8.483141634904761
1.644810833,-2.0826898736714283,0.11177319215904762,-7.412751342885715,7.921010725714286
1.654756833,-2.0298183682476187,-0.09893161365047616,-6.798961625838095,7.31236367204762
1.664702833,-1.9500426193619047,-0.31966920436476187,-6.112154803525714,6.718260765190476
1.674648833,-1.805960776342857,-0.6028653953171429,-5.293284494620952,6.26075417247619
1.684594833,-1.6342524438666668,-0.8494922538409524,-4.320388808144762,5.992101829857143
1.694540833,-1.4457964014857143,-0.9894108062361905,-3.33338390124,5.909007897952382
1.704486833,-1.2142310621285712,-1.1430228763933334,-2.4084845273352378,5.89483498604762
1.714432833,-1.0046253796809523,-1.2609721796480953,-1.6456655998114282,5.855058886714286
1.724377833,-0.8378902381190476,-1.274405183057619,-1.019577601192381,5.7363055682380955
1.734323833,-0.7354850267857143,-1.2442354019052382,-0.4560906450495238,5.576857767761904
1.744269833,-0.7496948049761905,-1.2241461161266667,0.14410560428380959,5.477844129714286
1.754215833,-0.8974404959285713,-1.251807915107619,0.8566155338552383,5.475386215619047
1.764161833,-1.1534806720238096,-1.3176497212742857,1.7001715064266665,5.573767553619048
1.774107833,-1.4220805003095238,-1.4382675057933334,2.6546895336171428,5.821255176809523
1.784053833,-1.6485302220714284,-1.609965967602857,3.6791974236171434,6.255467483809523
1.793999833,-1.8136633048333333,-1.8382408490123812,4.66068979823619,6.840776280238096
1.803945833,-1.8740504871666668,-2.120179972112381,5.547901222140952,7.463966034666667
1.813890833,-1.829275917090476,-2.450676601507619,6.347347414664762,8.142432836857143
1.823836833,-1.7377830789285713,-2.7923355656009523,7.129456000455238,8.911810654333333
1.833782833,-1.6059896155714286,-3.0787576653976187,7.965547974455238,9.695216784666666
1.843728833,-1.4149423482380954,-3.2980485783833338,8.770773638693333,10.37546230447619
1.853674833,-1.1458451307619046,-3.4104179881547614,9.416856748264761,10.922922835095237
1.863620833,-0.837427566795238,-3.424613078726191,9.853333799407618,11.347399559238095
1.873566833,-0.5819390824428571,-3.3399535682738097,10.053810460714285,11.575585035761904
1.883512833,-0.43375723446190473,-3.134538000559524,9.981334250523808,11.511903759238097
1.893458833,-0.3472647332714286,-2.9123796825928574,9.610432080157143,11.190497040380952
1.903404833,-0.29018663649047616,-2.755589762097619,9.056686000633333,10.799019867285715
1.913349833,-0.24961962184761907,-2.546972495764286,8.398729952728571,10.514546305333333
1.923295833,-0.12891833353333335,-2.310989042002381,7.740345610157142,10.449141920428572
1.933241833,0.05184628661904763,-2.1023349382404763,7.145526766680952,10.567390884380952
1.943187833,0.2770257355714286,-1.8981658298404762,6.528368023157143,10.82017197104762
1.953133833,0.5497229306190476,-1.726753979047619,5.807544995919047,11.059770081952381
1.963079833,0.8218195678619047,-1.555516041133333,4.993482239871429,11.172193166238095
1.973025833,1.1045094873809524,-1.3698893863238095,4.114866974823809,11.118334813380951
1.982971833,1.4073793662857144,-1.1530001893238095,3.1533614971095236,10.874832282285714
1.992917833,1.692780375190476,-0.8969527320428571,2.0907126649190477,10.461109746523809
2.002863833,1.9445458015809525,-0.6035421862666668,0.9028950489666665,10.055335767761905
2.012808833,2.1123196157380955,-0.25727231676190476,-0.3588868100809525,9.783457560142857
2.022754833,2.1512776262761903,0.11078710790476191,-1.6187611400809525,9.540905647285715
2.032700833,2.0517095849095237,0.4332626278190476,-2.8420735548428575,9.208442626333333
2.042646833,1.8023728795761904,0.6581299259619047,-4.041489484985714,8.801832523476191
2.052592833,1.4386045768142857,0.7983370801999999,-5.141302662938095,8.431851683761906
2.062538833,1.030865804052381,0.8528949992000001,-6.05936460922381,8.15678267904762
2.072484833,0.6626203578857142,0.8471195720571428,-6.771128239128571,7.993615616095238
2.082430833,0.39115942782857144,0.8042222888428571,-7.298757423652381,7.992746336952381
2.092376833,0.25185748696190474,0.7290573200809524,-7.713361126890478,8.16707046495238
2.102322833,0.21656343921904758,0.6620353300238095,-8.038285666047619,8.450487745
2.112267833,0.2148498065190476,0.604729804395238,-8.313725414047619,8.720094763142857
2.122213833,0.16837332774190475,0.5254071625185714,-8.496205904857144,8.882179558619047
2.132159833,0.05052272586571426,0.4325369709566666,-8.588656175809525,8.926934616142857
2.142105833,-0.09659775502476194,0.32947257657571427,-8.636261755428572,8.904815851380953
2.152051833,-0.19622705640571433,0.2260220362423809,-8.612108856619049,8.82173303842857
2.161997833,-0.20908794459619046,0.15353597628999996,-8.511696376571429,8.70508686590476
2.171943833,-0.11869251745809525,0.07579723024238091,-8.360862854571428,8.561538392428572
2.181889833,0.0483985194038095,-0.06702269313857145,-8.162248280857144,8.379635220666668
2.191835833,0.23473933502285713,-0.25436737123380954,-7.8283803139999995,8.155696395
2.201781833,0.4424507841180952,-0.47357991761,-7.296955506857142,8.05823230404762
2.211726833,0.6176482511085715,-0.7252166043385715,-6.433970935142857,8.124628356142857
2.221672833,0.7454259894752381,-0.9699564097004763,-5.236376969428572,8.302621764714285
2.231618833,0.8734401119561904,-1.1584394188909524,-3.9111647937142857,8.559697185190476
2.241564833,0.9748688904657143,-1.2706696823290478,-2.661529884666667,8.853814113285713
2.251510833,1.070533511662381,-1.274164987757619,-1.591467061666667,9.069650408047618
2.261456833,1.1538943346719048,-1.1558270256766665,-0.7188492299047621,9.141826920142856
2.271402833,1.1852388562433334,-0.9100662964385714,-0.011589682380952652,9.138624802619047
2.281348833,1.1467351987433334,-0.5548722045338095,0.5547639964761902,9.167705899380953
2.291294833,1.002123103752857,-0.15541808710523805,1.0200916829523807,9.228974967047618
2.301240833,0.7165388733814285,0.2005044634661905,1.5000355708571427,9.306158588142857
2.311185833,0.326267679362381,0.4658576182709524,2.08952999547619,9.440846314333333
2.321131833,-0.10287230819476191,0.6199891995947618,2.8019399654761905,9.634972258809524
2.331077833,-0.5130310312271429,0.6506415326571429,3.6330087356666665,9.883410838142858
2.341023833,-0.8971489826842859,0.49817350507619046,4.5691300859999995,10.195060487904763
2.350969833,-1.2226608224604762,0.14752289464761908,5.661413052666667,10.658741162571427
2.360915833,-1.4108792834128572,-0.3657406138285714,6.939379280428571,11.266918244571428
2.370861833,-1.4414774705557143,-0.9317761693523811,8.238156611809524,11.89705928995238
2.380807833,-1.3522929251747617,-1.4175586274,9.376908069333334,12.456899816761904
2.390753833,-1.2201790274128572,-1.733212841209524,10.276166567523811,12.931251906619046
2.400699833,-1.1207251285557143,-1.8499123925904761,10.769100518380952,13.259383775285714
2.410644833,-1.0943597269366667,-1.7997066397809525,10.709313963476191,13.21696878595238
2.420590833,-1.1031676245557143,-1.627458640638095,10.099817077238095,12.949050959095237
2.430536833,-1.1085494296985714,-1.3873013886761907,9.037448131857143,12.659723047904762
2.440482833,-1.0795744017461903,-1.0813956145333332,7.717712458523811,12.438958283142856
2.450428833,-0.9501182026985715,-0.7235883532,6.352438613285714,12.329315101714284
2.460374833,-0.7328201008476191,-0.3727746820095238,5.0848838818571425,12.389745033619048
2.470320833,-0.4996418627142856,-0.07977353875714284,3.936237014238095,12.664949902190477
2.480266833,-0.25854389819047613,0.09167694543333334,2.87270614347619,13.095826218714286
2.490212833,-0.028046149047619012,0.10330109876666664,1.9500522953809525,13.488723569666666
2.500158833,0.19438604833333337,0.02363676719523807,1.1954741274285714,13.765807002904761
2.510104417,0.46439254964285714,-0.08149479194761906,0.4574724535714285,13.972017134476191
2.520050417,0.7710870156904763,-0.17512340218571432,-0.3453305699047619,14.066236259714284
2.529996417,1.0735343218809523,-0.2371387556142858,-1.2246145059523807,14.053515223523808
2.539942417,1.3433067117857143,-0.2632206543279524,-2.1577865483809524,13.926775217809526
2.549888417,1.5830211833571428,-0.16101098017557144,-3.1049383369523813,13.64874608895238
2.559834417,1.7909472461666667,0.09622875917680948,-4.147573402952381,13.147046905380952
2.569780417,1.8565791163571428,0.4644277756529999,-5.332524769285714,12.438232746095238
2.579726417,1.7607336387190478,0.9027223850291903,-6.543311556761905,11.693834311190477
2.589672417,1.5817240968904762,1.3223262025101428,-7.728120390380953,11.155667814333334
2.599618417,1.3575595679285715,1.6699988677864286,-8.879337694190477,10.903269621952381
2.609563417,1.1198811142333334,1.9201191069626193,-9.912209998,10.997388736714285
2.619509417,0.9073318216285715,2.0702802757530954,-10.68444661804762,11.433471104190476
2.629455417,0.7173767723904763,2.127809119776905,-11.128337604714286,11.825677718666666
2.639401417,0.5320312364238096,2.0930736168578568,-11.285693612190476,11.959110915095238
2.649347417,0.3441643184,1.952888222610238,-11.278767056476191,11.910172822714285
2.659293417,0.10518400303333336,1.7007980842911903,-11.168740389333333,11.732219510333334
2.669239417,-0.19629530358571426,1.3703922259626191,-10.92839153652381,11.40977276104762
2.679185417,-0.4896931316809524,1.0030805940340475,-10.554744182047619,10.956204406857143
2.689131417,-0.7642077944428571,0.647615191310238,-10.086415258809524,10.411778011285715
2.699077417,-0.9847112946809524,0.3441080842530952,-9.623132093095236,9.882313578952381
2.709023417,-1.0825026387047618,0.10966503073880947,-9.264238878619048,9.470508758142856
2.718968417,-1.0386620464761904,-0.037154753627857216,-8.970311738095237,9.152962577190477
2.728914417,-0.892219546761905,-0.11662435900880956,-8.649251428809524,8.83425568747619
2.738860417,-0.6943336613809523,-0.1251235444850001,-8.239265243809525,8.44737369595238
2.748806417,-0.47255441004761906,-0.10033261353323818,-7.787846858228572,8.047254646142857
2.758752417,-0.30870248355714286,-0.09321988290942865,-7.278477024561904,7.768072621095238
2.768698417,-0.2722036692238095,-0.07939215762371436,-6.716499290514285,7.68148807
2.778644417,-0.3012051836523809,-0.024046924953238173,-6.15726306527619,7.676391429095239
2.788590417,-0.38348437615714287,0.06350637948009516,-5.497044367657144,7.770787004857143
2.798536417,-0.5355462171857143,0.22128648414199995,-4.649896728942857,7.874653490285714
2.808482417,-0.6939234931285714,0.3601914843419047,-3.600914817038095,7.921391277904761
2.818427417,-0.8263529073380953,0.3894882553085714,-2.232571072752381,8.05596050552381
2.828373417,-0.9763428466380952,0.3053580988514285,-0.5254977913238096,8.423120765523809
2.838319417,-1.168995592304762,0.1704914920657142,1.3073712624857141,9.031323978857143
2.848265417,-1.396217954004762,0.004596461403809437,3.070314800580952,9.725699101238096
2.858211417,-1.6742839371238094,-0.1910808610152382,4.750590961057143,10.385399731714287
2.868157417,-1.8916926418523812,-0.3933754007914287,6.341996126295238,11.047092414095237
2.878103417,-1.9846617418523809,-0.6855494901771431,7.809881032533334,11.811912756714285
2.888049417,-1.9346443946619045,-1.1275230773438096,9.212246411390476,12.717318362333334
2.897995417,-1.7366301977095238,-1.6506646979057142,10.62167817815238,13.738892447428574
2.907941417,-1.4340500135190475,-2.136359350086667,11.942145728152381,14.726345438809526
2.917886417,-1.0476347519238096,-2.5732582360485714,13.05546803462857,15.484619759619049
2.927832417,-0.6780837268904761,-2.9463352643485714,13.978073378866668,15.982504263428572
2.937778417,-0.3545178021761905,-3.244588397539048,14.693797801295236,16.386960324571426
2.947724417,-0.06028065503333332,-3.4801433408723814,15.235886287009524,16.82504496561905
2.957670417,0.1897467874428572,-3.6075054362009524,15.702981865238096,17.303519210666668
2.967616417,0.41106422357142863,-3.5718453214200006,15.922020150666667,17.599810371285713
2.977562417,0.6855641987142858,-3.4495190918676193,15.74163911657143,17.595510422761908
2.987508417,0.9481663708571427,-3.280032715252381,15.251101828047618,17.636507266333336
2.997454417,1.1756864184761906,-3.0610863006809526,14.486473437904763,17.74905014690476
3.007400417,1.402336852904762,-2.8500009803000004,13.461472043285715,17.933819402142856
3.017345417,1.592803227190476,-2.604844853157143,12.222619233285714,18.176070467380953
3.027291417,1.7159904174857143,-2.277807728919048,10.707849625666668,18.269372765
3.037237417,1.7793367015809523,-1.8963796445857142,8.884132800904762,18.084331073571427
3.047183417,1.804845959485714,-1.533310014490476,6.8991571194761905,17.689123320238096
3.057129417,1.8050858066761908,-1.1851803127761904,4.9709507737619045,17.229301599285716
3.067075417,1.8330265595809525,-0.8157729134428573,3.157645389476191,16.772315913095238
3.077021417,1.849383170819048,-0.4436114477285715,1.4360370994761906,16.297823275
3.086967417,1.8153279009619048,0.016612733271428506,-0.19992618766666656,15.741701848809525
3.096913417,1.6955883543428572,0.6150971129380951,-1.7914181138571428,15.047222525
3.106859417,1.4630739840095237,1.2593519651285714,-3.3771282576190473,14.211732059142857
3.116804417,1.1218154080095237,1.8222504684142857,-4.850621979809524,13.387524220857141
3.126750417,0.6476878847238096,2.273624081038095,-6.025585076809524,12.710337015523809
3.136696417,0.11199976124761908,2.628540980109524,-6.90247842047619,12.187948471380952
3.146642417,-0.41089354060952377,2.8969335941714283,-7.622609137571428,11.79182914452381
3.156588417,-0.8701345818952382,3.1011127681190476,-8.319893864238097,11.482451695
3.166534417,-1.248380402657143,3.248223395771429,-9.059893921285713,11.212527092714286
3.176480417,-1.5232050235666665,3.2922944031190475,-9.705625084047618,11.095652758095238
3.186426417,-1.7553970521999998,3.260865563309524,-10.08086900695238,11.170517812571429
3.196372417,-1.9408578270666665,3.156854302833333,-10.181734033857143,11.164468417904763
3.206318417,-2.0638700463761905,2.9570785695,-10.118797723095238,11.005759839095239
3.216263417,-2.1777478359076192,2.6665173371190476,-9.890832298857143,10.672033127047618
3.226209417,-2.2719493270885716,2.336652763880952,-9.516702938761906,10.202842710761905
3.236155417,-2.266685649636191,2.023745791261905,-9.090554743333334,9.69898463709524
3.246101417,-2.1105655833980954,1.7776628178333331,-8.656928098619048,9.20592752652381
3.256047417,-1.8293875728742859,1.6046407691666664,-8.244141515142857,8.741145482333334
3.265993417,-1.4833095198742856,1.4855721139761904,-7.873503917190478,8.312986142714285
3.275939417,-1.146039796064762,1.3761437353571426,-7.527350003333332,7.909841425952381
3.285885417,-0.859005162112381,1.2802692722142857,-7.172151561,7.502936523857143
3.295831417,-0.6047923174647618,1.1760822889714286,-6.8365142267619055,7.1181450775714294
3.305777417,-0.3640770392742857,1.039232223104762,-6.5334037559523805,6.788657800904763
3.315723417,-0.15474778394095234,0.865682449295238,-6.180233350571429,6.477490236238095
3.325668417,0.01805058786857149,0.6566226183428571,-5.642179944857143,6.301127879333333
3.335614417,0.19823518334476198,0.5024157541,-4.943226617761905,6.364507270619048
3.345560417,0.3532680259685715,0.48615558709999995,-4.208375785857142,6.551133956714286
3.355506417,0.4220376722114287,0.6341686210857143,-3.4992714974761907,6.768842168333332
3.365452417,0.4147494938304763,0.9194549270904763,-2.7510006652380956,7.05616116452381
3.375398417,0.38315121702095245,1.2175157565333332,-1.8251611984761904,7.482016443952382
3.385344417,0.2982275725019048,1.4307322477714284,-0.5688745805238095,8.170048842809525
3.395290417,0.09604635037333344,1.528446043057143,0.9897966179523812,9.122879874857144
3.405236417,-0.2010288612361904,1.5260461647238095,2.602575834,10.133640140428572
3.415182417,-0.5809245226409523,1.466078417495238,4.06365410752381,10.982341986857143
3.425127417,-0.9791592102047617,1.3778399133333334,5.304413249476191,11.62397540604762
3.435073417,-1.281332177547619,1.1997572248095238,6.360253555571428,12.09149310947619
3.445019417,-1.4715126578190474,0.8332791622380951,7.441305106809525,12.570361261238096
3.454965417,-1.597171250390476,0.32415795357142857,8.697859137333333,13.205210843238095
3.464911417,-1.6660114008209521,-0.20712146676190482,10.010284844809524,13.884881720761904
3.474857417,-1.575300843535238,-0.6848964205714286,11.230764116380952,14.501858807047622
3.484803417,-1.313977067678095,-1.0950923326190476,12.333505746809525,15.081848803809525
3.494749417,-0.9785882922019046,-1.4048322583333335,13.259872187333334,15.617575240666667
3.504695417,-0.619605246325714,-1.5781219702809524,13.89894170085714,16.00819200504762
3.514640667,-0.30130089684952355,-1.6275288751285717,14.221199993190478,16.239519180095236
3.524585667,-0.022528034087618852,-1.548121573924286,14.205901922857143,16.47555474042857
3.534531667,0.228138926721905,-1.343754558162381,13.741555315619047,16.699129779380954
3.544477667,0.40917908124571456,-1.1203657424004763,12.861573277904762,16.862901547714287
3.554423667,0.5575522863361907,-0.9817880052814286,11.748737933000001,17.068728215285716
3.564369667,0.7375954070457146,-0.9607437647576191,10.534083936190475,17.368175261
3.574315667,0.9349863603790479,-1.0659253176147618,9.174671729904762,17.710194644809526
3.584261667,1.0933191870457146,-1.2069553143290477,7.563039932761905,17.987519086714286
3.594207667,1.253702169331429,-1.2938065979004765,5.595157722761904,18.022717017190477
3.604153667,1.4947253382457144,-1.3168383627100002,3.3226979480000005,17.786754937190477
3.614099667,1.7975080196631907,-1.3009036001861907,1.0139656113333335,17.467859409571428
3.624044667,2.1132805525679523,-1.3013508129909526,-1.0426242058095236,17.20776148004762
3.633990667,2.3996112339489053,-1.329581204971905,-2.754789855333333,17.04061375004762
3.643936667,2.588819920853667,-1.2933379766385715,-4.191747779619047,16.96762578052381
3.653882667,2.6598246513774764,-1.0895384679719047,-5.560704368190476,16.795569791
3.663828667,2.6137976669012857,-0.7758696518766668,-6.9877979843809515,16.35734943242857
3.673774667,2.4860259845698573,-0.43413901763857154,-8.375536191428571,15.778741967666665
3.683720667,2.2362724075698575,-0.12218589987666675,-9.633595434476192,15.207832585047619
3.693666667,1.847440916379381,0.15786740569476182,-10.75418134704762,14.644604583380953
3.703612667,1.4199813472460479,0.38468399848999996,-11.731988778666667,14.158106093619049
3.713558667,0.9792835879270001,0.528515980937619,-12.46161796347619,13.856955216666666
3.723503667,0.5481298767174763,0.6126841164566665,-12.876214260285714,13.706178246285715
3.733449667,0.14439783191271433,0.6446827709238094,-13.017827474999999,13.563718299238095
3.743395667,-0.19304830549204754,0.6275249240571428,-12.918333425285715,13.32929344861905
3.753341667,-0.4567537636587143,0.579134084295238,-12.597259166333334,12.950117217142857
3.763287667,-0.6611159659301429,0.4867692174380952,-12.116758177857143,12.439012569809522
3.773233667,-0.8129114941015714,0.35357911177142853,-11.509438739047619,11.807744821
3.783179667,-0.9166335505872858,0.21511760200952376,-10.779177414380952,11.06140000304762
3.793125667,-0.9845190073396666,0.08745850296190473,-9.952141134904762,10.228147249761905
3.803071667,-1.0375505559214762,-0.02365192470476194,-9.050048380190477,9.329727437380953
3.813017667,-1.0734958999690951,-0.10690966265714288,-8.096251064238096,8.38400433457143
3.822963667,-1.085420529715143,-0.16834339911904767,-7.129917039533335,7.420232334333334
3.832908667,-1.0630879248294285,-0.2004394932571429,-6.194034005190476,6.529414615209524
3.842854667,-1.0091789005913332,-0.2144987717809524,-5.314865871952381,5.8210450133047615
3.852800667,-0.9419334285437141,-0.2189017182095238,-4.4756706135238105,5.261607677066666
3.862746667,-0.9284806698770477,-0.1979269829714286,-3.6599945827142863,4.842574416923809
3.872692667,-0.9277367369722856,-0.10901887168571432,-2.9270240759523807,4.523259589161905
3.882638667,-0.8958292955913333,0.08313910212380948,-2.2561045003333335,4.303793678209523
3.892584667,-0.9331782811627618,0.3915519535047619,-1.5359539584285713,4.30681683887619
3.902530667,-1.0540399607341904,0.7788520624095238,-0.767747657,4.5119499234000005
3.912476667,-1.2152550923151428,1.1460872141380951,0.05606048652380962,4.8284452698285705
3.922422667,-1.3929560063770474,1.4257840414047618,0.9997183688095238,5.254928240590476
3.932367667,-1.5819522096913334,1.5272449135047619,2.095878791047619,5.8504119830666665
3.942313667,-1.7698031592199048,1.4451873235,3.3616443859047616,6.67491682792381
3.952259667,-1.9017872122437143,1.1935145093190476,4.752213146571428,7.673465987161904
3.962205667,-1.9301347364770476,0.7906877109380952,6.2002685571428575,8.801689549590476
3.972151667,-1.861648502686571,0.2546754360809524,7.628836256285715,9.989325944066666
3.982097667,-1.7761946062294287,-0.3457675658714286,8.995425780333333,11.16348042335238
3.992043667,-1.7345643555056192,-0.9378611334428572,10.235816074238095,12.200032320352383
4.001989667,-1.644313340658,-1.462231066061905,11.285799725714286,13.042910715542856
4.011935667,-1.4524966424095236,-1.8644637385857143,12.160344632428572,13.76127834935238
4.021881667,-1.193632041847619,-2.1335094588238097,12.866683772666667,14.38291883549524
4.031826667,-0.8882053808999999,-2.2563688500285712,13.358730227580953,14.876281085733334
4.041772667,-0.5111328944523807,-2.2235091408476193,13.55400295052381,15.238333517809524
4.051718667,-0.0976416657380951,-2.0267073570857144,13.439935216980953,15.50455210357143
4.061664667,0.28091285321428583,-1.6990801721809523,13.04271478464762,15.804432338333331
4.071610667,0.6277960816904763,-1.2893818443238094,12.384847419504762,16.185085306571427
4.081556667,0.9266632560714287,-0.8824300858952382,11.52111902607619,16.712245998619046
4.091502667,1.1572958949285717,-0.5468139477523809,10.480003345123809,17.367974176714284
4.101448667,1.3997612726428572,-0.34408719432380946,9.238463321504762,17.95960056866667
4.111394667,1.6758364041666667,-0.2860907784190476,7.8775492721714295,18.41209169057143
4.121340667,1.9349796697857142,-0.30599595346666664,6.467699039314286,18.72889597342857
4.131285667,2.164543012990476,-0.34157151332380953,4.971511325980952,18.88289521104762
4.141231667,2.375891177895238,-0.30567478818095234,3.354312979314286,18.81903923247619
4.151177667,2.544862240752381,-0.1763830420857142,1.638198621695238,18.446722192952382
4.161123667,2.6326115104666665,0.04262535295714288,-0.11694228068571438,17.81060622342857
4.171069667,2.639635151104762,0.37662186111428575,-1.8621806169714286,16.971436187238094
4.181015667,2.572432308061905,0.8379321205190476,-3.5470735439714285,16.029007730333333
4.190961667,2.5165906798809523,1.367803879490476,-5.17458250892381,15.103729791095237
4.200907667,2.5168982399761908,1.9017847829285714,-6.692035904971429,14.332692140809524
4.210853667,2.4326465936857145,2.370823864242857,-8.027090281161904,13.758028435380952
4.220799667,2.225476511509524,2.7218515574238094,-9.208338717161904,13.325641324047618
4.230745667,1.9470753262666667,2.953513633428572,-10.234554606685714,13.007989718095237
4.240690667,1.6023028938857145,3.066654207395238,-11.026263318114285,12.812339582190475
4.250636667,1.2072009321714288,3.0639390528047623,-11.523214640257143,12.709866451999998
4.260582667,0.8339123286333335,2.9580083045619046,-11.72875407147619,12.585216262999998
4.270528667,0.5245128361676191,2.7613530631761907,-11.689326686142858,12.347822437523812
4.280474667,0.2954411915804763,2.4913364963190476,-11.43301755204762,11.954691563571428
4.290420667,0.1433842945757144,2.1929230101761905,-10.97354351295238,11.395316701809524
4.300366667,0.04756794165190485,1.8811645769380954,-10.368862281952381,10.708748431714286
4.310312667,0.005278093651904865,1.5815708442238094,-9.686922041142859,9.968687148
4.320258667,0.022169641604285816,1.3352896153666667,-8.998065908904763,9.25750466704762
4.330204667,0.08322282874714297,1.146346962795238,-8.323480880809525,8.58370269452381
4.340149667,0.16945164835190488,1.0270242669380953,-7.634271047380953,7.92022712295238
4.350095667,0.300200487494762,0.9945245374142857,-6.993979131857143,7.336012843142857
4.360041667,0.5041760600185716,1.0220927948428573,-6.506684096571428,6.913702185761904
4.369987667,0.7299401400661906,1.0937411785142857,-6.122232535380952,6.601013009190477
4.379933667,0.9603190933042859,1.1312502733761904,-5.756778215809524,6.347254894
4.389879667,1.1835855282090477,1.064778318352381,-5.2592954653333335,6.165921565190476
4.399825667,1.2925395880090478,0.8711655364285714,-4.437652880095238,6.233168198238094
4.409771667,1.2505187606519048,0.5670015364666668,-3.285689945,6.575672719
4.419717667,1.1534650533709525,0.20299958177142868,-2.032180392619048,7.029980644428572
4.429663667,1.0854059708804764,-0.16568004802857134,-0.839060048047619,7.462647532428571
4.439608667,1.0525972960757144,-0.4797446649380951,0.28925045433333324,7.862653634571428
4.449554667,1.0641205919138097,-0.7065578955714285,1.3616362370952382,8.273831363333333
4.459500667,1.069151393542381,-0.8788219084190475,2.409014062904762,8.74846751342857
4.469446667,1.0353832080328573,-1.0742061182714284,3.4508658525238096,9.305006429047618
4.479392667,0.9715314947842857,-1.3489017802190475,4.539292635857143,9.961710068857144
4.489338667,0.9167145510857144,-1.7205254134571428,5.737616612285714,10.772565570428572
4.499284667,0.880091673109524,-2.194854832742857,7.060388271761904,11.750291650761906
4.509230667,0.8421541896523811,-2.7628421262190477,8.436234717904762,12.786347189428572
4.519177042,0.7753710026619048,-3.3874745855999997,9.775679211380952,13.750686289333332
4.529123042,0.664719069804762,-4.02857771912381,11.026255410571428,14.578968473619048
4.539069042,0.5592740998714287,-4.637264334314286,12.100935000095237,15.275069798523807
4.549014042,0.485724219104762,-5.191082111885715,12.914463766190476,15.838929773904763
4.558960042,0.442753414152381,-5.6792461966,13.506621458333333,16.202916620857145
4.568906042,0.42433578467619054,-6.066441870028571,13.954097790380953,16.339512901142857
4.578852042,0.4505863163904763,-6.338001196933332,14.212697223142857,16.353399115619048
4.588798042,0.4859924880095239,-6.460306334761905,14.20618258957143,16.403533093047617
4.598744042,0.5148644239619048,-6.386662769738094,13.83139422047619,16.542201575142858
4.608690042,0.6039558315333334,-6.0972801550238085,12.988269048476193,16.553507745142856
4.618636042,0.8041506744619047,-5.618528792833333,11.742117465142858,16.37107024942857
4.628582042,1.0986397600333333,-5.004452534404761,10.328868106571429,16.16890642704762
4.638528042,1.3789351194142858,-4.308977994309524,8.922119125619046,16.06493093895238
4.648473042,1.5982506672714287,-3.5566039202619044,7.4946449394285715,16.11246506990476
4.658419042,1.7634198635761904,-2.8260572935952375,5.935045564666668,16.338921466095236
4.668365042,1.869259778090476,-2.1625721741190476,4.2203199489523815,16.65312465561905
4.678311042,1.8788910611238094,-1.532302455642857,2.4706380627619047,16.908750357523807
4.688257042,1.7852217013619047,-0.9099260467380952,0.8009780518095239,16.931281263238095
4.698203042,1.6072139720761907,-0.3105538093095238,-0.7748303615238098,16.592777872761904
4.708149042,1.342293403342857,0.2718957785,-2.2540343354761907,15.895292258
4.718095042,1.0096880487238098,0.8570647114047619,-3.6034760922380946,15.02675968847619
4.728041042,0.6553820514285716,1.448002604547619,-4.8242317419523815,14.16673020147619
4.737987042,0.3377369929523811,2.0371752097380953,-5.957318389190476,13.383775306952378
4.747933042,0.06272641664761913,2.6136260275952385,-6.982912914380951,12.738870791190477
4.757878042,-0.1739845942999999,3.1626253305476193,-7.834142160238095,12.268110299571427
4.767824042,-0.4135514028238094,3.654405570071429,-8.478205585761904,11.974862208142858
4.777770042,-0.7186094560142856,4.043164266928572,-8.908732259666667,11.842874920047619
4.787716042,-1.102673235490476,4.30476053002381,-9.138934132761905,11.828371124333334
4.797662042,-1.5362242563952382,4.439477030442857,-9.168700831904763,11.809971418952381
4.807608042,-1.9707168043,4.455822135209524,-9.00059792042857,11.675000308238095
4.817554042,-2.3691336048238094,4.343139446938095,-8.699605756523809,11.414583193999999
4.827500042,-2.7327839608714286,4.106931209509524,-8.342064557380953,11.055055109619046
4.837446042,-3.0580688207761906,3.778748030985714,-7.970459467952382,10.62138645590476
4.847392042,-3.3283742887761902,3.3506326096523806,-7.614616690142857,10.170140814809523
4.857337042,-3.5353183116809523,2.7992103040809524,-7.228728663,9.653616422761903
4.867283042,-3.699793708004762,2.1687597118904764,-6.720711318095239,9.013481475619049
4.877229042,-3.7965269043476195,1.5316052448904764,-6.069297302238095,8.265010706380952
4.887175042,-3.761121686409523,0.9332721690809523,-5.382490368380952,7.503380937666667
4.897121042,-3.5806238298333333,0.3997511072714286,-4.7820400994285714,6.848702072238095
4.907067042,-3.336004108190476,-0.039013792300000016,-4.265321123,6.334518438952381
4.917013042,-3.0215556529238095,-0.3632702453,-3.831610528857143,6.010001760619048
4.926959042,-2.608964616971429,-0.6010570708238095,-3.480352079476191,5.844409926857144
4.936905042,-2.144747748304762,-0.7878713508238094,-3.128870990428572,5.771929602095239
4.946851042,-1.727499126638095,-0.9583350477285715,-2.631962826285714,5.821304056571428
4.956796042,-1.4139355047285713,-1.1017219387285715,-1.9164674196666671,6.029971836619048
4.966742042,-1.2015284665219046,-1.2457454523,-1.0350892061904766,6.396205698238095
4.976688042,-1.084794917712381,-1.3717578431714286,-0.05201507642857163,6.890815123
4.986634042,-0.9660470309980953,-1.3737795667428572,0.8650021115714285,7.369856626761904
4.996580042,-0.8234973464266668,-1.211959453695238,1.5607338454761903,7.697396061714286
5.006526042,-0.7322088545219048,-0.9133398183999999,2.05668729847619,7.941017987238095
5.016472042,-0.674001423712381,-0.5596028387142857,2.471313945095238,8.189059783476191
5.026418042,-0.5691430408552381,-0.30560409963333335,2.967921061142857,8.400398108190476
5.036364042,-0.46224168614095235,-0.2687978505285714,3.7154671448571426,8.745765927333334
5.046310042,-0.45148597656952383,-0.43013641052857143,4.83269586447619,9.415846097714285
5.056256042,-0.4718814685219048,-0.6868174275761904,6.199010792380952,10.262746960714285
5.066201042,-0.4616798070171429,-0.9832016583857143,7.671571493809525,11.167296089428572
5.076147042,-0.4014526678790476,-1.2653161840523808,9.14327646938095,12.035917185619047
5.086093042,-0.25870308163142863,-1.4767587136238096,10.412197667333334,12.723058294380952
5.096039042,-0.06469485041238097,-1.6177119169095238,11.395405643,13.203368248809525
5.105985042,0.1553058275828571,-1.6634731036714285,12.074772579666666,13.503872992333331
5.115931042,0.41269203970190477,-1.6100628538619048,12.380862039904763,13.693556327761904
5.125877042,0.6664708782447619,-1.4962496203666666,12.289891086642857,13.803961666190476
5.135823042,0.8524157608161905,-1.3246669960952382,11.891603231166666,13.924497057095236
5.145769042,0.9887659106257144,-1.0902444217619047,11.251865241690476,14.117586553619045
5.155715042,1.1357325297209524,-0.800793338952381,10.34982294002381,14.343894341285715
5.165660042,1.3046998545733333,-0.5031655028095239,9.160738288119047,14.531037979380951
5.175606042,1.4732347673666666,-0.2249750853333334,7.69838106145238,14.686854100809523
5.185552042,1.624183430747619,-0.008493752509523878,6.029920175261905,14.818273454619048
5.195498042,1.6718877412761903,0.04399383449047614,4.390553363357143,14.981981472714287
5.205444042,1.6257396533238095,-0.1135328769380953,3.0002151224047617,15.255173164619046
5.215390042,1.5817195237047617,-0.44784402795000006,1.8791678364523805,15.543924182238097
5.225336042,1.5320187893238095,-0.8476565449071429,0.8943392354047616,15.779839788428571
5.235282042,1.398122562752381,-1.111583661259524,-0.13567416997619078,16.038578221761902
5.245228042,1.241525443752381,-1.119021420502381,-1.3745855637857147,16.149442970333332
5.255174042,1.1614573062285714,-0.9009778021414286,-2.9131392495000004,15.893054906047619
5.265120042,1.1165555000380951,-0.5497022148461905,-4.5948052095,15.35726715747619
5.275065042,1.0779018579619046,-0.12582903197952391,-6.289852605690477,14.662685584142856
5.285011042,1.0189957719047618,0.310162421825238,-7.919501512357143,13.932729290809524
5.294957042,0.8764105376666665,0.7061041307776189,-9.327274981119048,13.359787850952381
5.304903042,0.6522015315761904,1.0545231931585715,-10.466689067595238,13.011598161238096
5.314849042,0.38757345931904763,1.3298786229204762,-11.36626261907143,12.892748496380953
5.324795042,0.12211819053333331,1.5445275358252382,-12.025280159357143,12.96600237866667
5.334741042,-0.1522230570671429,1.6955587633300002,-12.42415914047619,13.117337481333333
5.344687042,-0.4144304655738096,1.7834478372014284,-12.611342491142858,13.200951936380953
5.354633042,-0.6559641242738096,1.7939316860585717,-12.627480806333335,13.14617241090476
5.364579042,-0.896066795297619,1.7308226179157145,-12.494320744238095,12.94632181547619
5.374524042,-1.10287569535,1.6259414727252381,-12.236275432619049,12.635372737238097
5.384470042,-1.2143476549690475,1.5265750036776191,-11.862632365904762,12.236120199714286
5.394416042,-1.2107577221119048,1.4537701939157142,-11.372833580857144,11.751511353333333
5.404362042,-1.0777833891642856,1.4341148202966667,-10.819854739666667,11.231156528857142
5.414308042,-0.8537961456880951,1.4893454405823807,-10.287909224,10.73889491952381
5.424254042,-0.5612492266880952,1.6127216282133334,-9.836972871571428,10.321152464095238
5.434200042,-0.19136362259285714,1.7650158195038095,-9.429762498952382,9.954377043666668
5.444146042,0.2120397251690476,1.8763372411419048,-8.942857695666667,9.525604638571428
5.454092042,0.6000982388357143,1.9155204704133333,-8.298930593714285,9.017514113095237
5.464038042,0.9584961385023811,1.8948904912095241,-7.531185637809523,8.56955960904762
5.473984042,1.2655725948357142,1.8237547412952382,-6.67714875404762,8.277455798428571
5.483929042,1.4347175566928574,1.721231444047619,-5.742946014571428,8.161951518047621
5.493875042,1.4829972488880954,1.5988026445761903,-4.731963040761904,8.212830703285713
5.503821042,1.4586296424119047,1.4378621059095238,-3.548998419142857,8.506339564095239
5.513767167,1.3894142573595238,1.2351336470047618,-2.111618687904762,9.093468197142858
5.523713167,1.2133021013785716,0.9442751184809524,-0.4473656806190479,9.917854575333333
5.533659167,0.859260102402381,0.5538114292428571,1.3320952115714284,10.894851356619048
5.543605167,0.436605447955238,0.07808766476666662,3.0858302481428566,11.91102403338095
5.553551167,-0.007152201109523811,-0.4681449376142857,4.83828552452381,12.947558135952383
5.563497167,-0.4477822858857143,-1.0443402183285715,6.599062474619048,13.996720026666667
5.573443167,-0.7936733950523811,-1.629008559995238,8.289435022047618,14.982874356380954
5.583388167,-1.0038229694761907,-2.224718240757143,9.899472200428571,15.879915165571427
5.593334167,-1.1160119508571429,-2.827855695233333,11.517149545619048,16.73719363452381
5.603280167,-1.0857133081904762,-3.375047073852381,13.184244606285715,17.647733624238096
5.613226167,-0.8764161499047619,-3.814116307090476,14.785120840333335,18.58826039252381
5.623172167,-0.5472925581428573,-4.128096918995238,16.15975198419048,19.37987161042857
5.633118167,-0.2272635863809526,-4.315201360090477,17.225729664142857,19.885017680619047
5.643064167,0.008378021047618861,-4.4163875035428575,17.859197684238094,20.06804359961905
5.653010167,0.17695856652380934,-4.410571967257143,18.044381927561904,20.165920519619046
5.662956167,0.28859264714285693,-4.2987815014380955,17.818182028085715,20.38431589857143
5.672902167,0.34323262209523786,-4.107992339928571,17.260942515609525,20.685997244523808
5.682848167,0.3752903578095236,-3.863524778119048,16.402567944228572,21.026425730380954
5.692793167,0.44669765519047594,-3.5914533325952385,15.312006203323811,21.33800359838095
5.702739167,0.5640135744761903,-3.261402769166667,14.041352837133335,21.59390761504762
5.712685167,0.7344023504761902,-2.884163734547619,12.456089476180953,21.746197040761906
5.722631167,0.9230834027619045,-2.501279547309524,10.477744537133333,21.72736403933333
5.732577167,1.174839435333333,-2.071694609261905,8.218910110942856,21.513906858857144
5.742523167,1.525351981853809,-1.6261252770238097,5.826466918561904,21.149427485047617
5.752469167,1.8429520480919048,-1.1970132325476193,3.4847048299904757,20.713478107904763
5.762415167,2.072239472377619,-0.8018802979476192,1.2422126476095239,20.173099783142856
5.772361167,2.2206595979014288,-0.4640643119476192,-0.8864247790571428,19.524168720761907
5.782307167,2.2539944351395236,-0.16379901261428584,-2.8071106028666666,18.831681893142857
5.792252167,2.1639109639014285,0.12258059743333323,-4.530836364771429,18.127502381714287
5.802198167,1.986191582377619,0.4156029785761903,-6.170273733199999,17.351835974095238
5.812144167,1.7035441387109522,0.6856616731952381,-7.825471018676191,16.44674567204762
5.822090167,1.2782997141395238,0.8875475343857142,-9.413120349723808,15.47380641285714
5.832036167,0.7595253859014285,1.0098640672904762,-10.749770848628572,14.608109757714287
5.841982167,0.2537179231871428,1.0496489959190476,-11.75600496462857,13.99982025204762
5.851928167,-0.18786901667476194,1.0589886281809522,-12.360794424580954,13.72265340842857
5.861874167,-0.5447774621919047,1.0387643204666666,-12.637762105714287,13.630299485333333
5.871820167,-0.8043133370109523,1.0065996155142858,-12.684774387809522,13.535214752809525
5.881766167,-0.978712815677619,0.9651430236095235,-12.559221135619046,13.352215830619048
5.891711167,-1.0872156079157143,0.9254159267047617,-12.291495591190477,13.067699450285712
5.901657167,-1.1377981929157142,0.887716504942857,-11.951555820095239,12.73299196152381
5.911603167,-1.13503697063,0.811146895752381,-11.577370632809524,12.366424120857143
5.921549167,-1.107452939582381,0.7081222693714285,-11.125715100666666,11.920853182190475
5.931495167,-1.0714278332490477,0.6096454541809523,-10.59179868347619,11.391859497190476
5.941441167,-1.0298853081538095,0.5283964018476189,-10.037893837952382,10.842080958142857
5.951387167,-0.9527766344361904,0.4846239088,-9.481718713666666,10.293698100523809
5.961333167,-0.7792500684838095,0.5079947773238095,-8.946418316238095,9.764894464809524
5.971279167,-0.49779964734095244,0.583306873152381,-8.476955395380953,9.278525318714287
5.981225167,-0.15991723976952382,0.6915347418466665,-8.083757652571428,8.836275434190476
5.991171167,0.2009796485161905,0.8434643870576191,-7.817191639142857,8.490226005380952
6.001116167,0.5464547143257142,1.0284686266385714,-7.752935388904762,8.327121134809524
6.011062167,0.8097287106257143,1.2292544560099998,-7.84258127952381,8.330982238619049
6.021008167,0.952133831482857,1.4486331051052381,-7.9717123035714295,8.414155172095239
6.030954167,0.9386442701971428,1.7095525669147618,-8.119988698714286,8.572079706523809
6.040900167,0.7956480637209524,1.9791963946766669,-8.242908782619049,8.778583430714285
6.050846167,0.6436618083876191,2.1930507336195237,-8.135802966761904,8.831535801714287
6.060792167,0.5573184181542856,2.270727067571905,-7.561430277095238,8.922257066714286
6.070738167,0.538730572495238,2.137459256571905,-6.385819336380952,9.558794338238096
6.080684167,0.5063495745147618,1.7728609484766666,-4.660819104380953,10.712041966333334
6.090630167,0.3599361089909523,1.1947314506195237,-2.641113356190476,12.143782100904762
6.100576167,0.04442999332428565,0.4572155692385713,-0.4471906253809526,13.740348577904761
6.110521167,-0.338767667342381,-0.445464886142381,1.8619415778095239,15.458534297619048
6.120467167,-0.6928088901995239,-1.4223136944757142,4.291292980047619,17.259067629714284
6.130413167,-0.963903377342381,-2.368065575951905,6.763356984095238,19.026303931238097
6.140359167,-1.0665707440519048,-3.1917115425233336,9.182851373095238,20.644867190523808
6.150305167,-0.966917086194762,-3.854488243856667,11.527797131380952,22.095865326714286
6.160251167,-0.7581369609566666,-4.364817758761428,13.708763351380954,23.34933024052381
6.170197167,-0.5602909619566666,-4.751935037761429,15.601774749190476,24.345547937190478
6.180143167,-0.40073236395666667,-5.008498497904286,17.134029591666668,25.041132705190474
6.190089167,-0.2618840678138095,-5.108778295074762,18.244115352666668,25.407764498761903
6.200035167,-0.12182451400428572,-5.107131378059524,18.911870220238093,25.402694175285713
6.209981167,0.03292466556714283,-5.039761903307142,19.243742838666666,25.205607884047623
6.219926167,0.17595118707666665,-4.962737648773809,19.247364436761902,25.238857863571432
6.229872167,0.29412586740999996,-4.880818797869048,18.949525648190473,25.553422717857146
6.239818167,0.4753739252671428,-4.868441161202381,18.423227902476192,26.06067337214286
6.249764167,0.7448350205528571,-4.89352252825,17.700884125761906,26.703725786904762
6.259710167,0.998551102457619,-4.873967726678572,16.63697499590476,27.621137639666667
6.269656167,1.1574099209671427,-4.77804167577381,14.991830494428573,28.613443778285717
6.279602167,1.2124854699433334,-4.576140068869048,12.711276724904762,29.08175263495238
6.289548167,1.2329127404476192,-4.282392918354762,10.02032259252381,28.877300939238097
6.299494167,1.3182542868585714,-3.9205049548785715,7.292925716809523,28.12688180447619
6.309440167,1.5352299435014287,-3.53600795245,4.651324535380953,26.961032054000004
6.319385167,1.7571569484061906,-3.0669631076404764,2.1439715268095236,25.455843310190478
6.329331167,1.8890457840728572,-2.5429556048309525,-0.3073139229523813,23.720501646380953
6.339277167,1.9273581053585715,-2.023141975735714,-2.7408358101428574,21.955269646809523
6.349223167,1.850296367734762,-1.5467160094499999,-5.110172978190476,20.297169540428573
6.359169167,1.6399770639204765,-1.1378273608309524,-7.38116304152381,18.759723599333334
6.369115167,1.3424861883442856,-0.793169053545238,-9.460033729761905,17.387305405380953
6.379061167,1.0646799538157143,-0.4854235504595238,-11.238606123714286,16.263021861714286
6.389007167,0.8409152095109523,-0.2212936261738095,-12.673032871761905,15.466474055666666
6.398953167,0.6612975189538096,-0.02635047736428569,-13.730466766857143,15.057179703666666
6.408899167,0.49439430996809525,0.10069398188571432,-14.376610269666665,15.060126462000001
6.418845167,0.31012163539190474,0.1672581767428572,-14.618963046666666,15.194080529571428
6.428790167,0.15889853396809522,0.21912215821904765,-14.469682767761904,15.041013295285714
6.438736167,0.07075245932999999,0.2353771392666667,-14.047391145285715,14.634875381857144
6.448682167,0.001627738282380943,0.24527181150476193,-13.43755141752381,14.047263360380953
6.458628167,-0.05444007102238095,0.23966337107619048,-12.697365781095238,13.330221592238093
6.468574167,-0.09886194173666667,0.20105085093333333,-11.859036467428572,12.510433053285713
6.478520167,-0.13654789398619047,0.1780133502666667,-10.915561046333334,11.588840236190476
6.488466167,-0.17840869643476193,0.2161634252666667,-9.94914371252381,10.648769340714285
6.498412167,-0.21547748377285716,0.3437869050380953,-9.120762767904763,9.846867504714286
6.508358167,-0.2284553867457143,0.5849791211333333,-8.542436024190478,9.289823378809523
6.518304333,-0.24299409604095237,0.9355104831809523,-8.21521029952381,8.959724162
6.528250333,-0.20911607164571427,1.3444073039904763,-8.133799822428571,8.831949987238096
6.538195333,-0.1034545894457143,1.763723960561905,-8.203256975904761,8.820303516761905
6.548141333,0.006586344182857135,2.149823545609524,-8.287023658285714,8.827051023142857
6.558087333,0.05834183626380951,2.4679600382285716,-8.33100237704762,8.83811569942857
6.568033333,0.03589957522095237,2.7090280288476194,-8.340859947333334,8.852678169095238
6.577979333,-0.019401639726666673,2.933833283847619,-8.29955769404762,8.855725441571428
6.587925333,-0.09036408234095239,3.1237255381428572,-8.246375931142857,8.871668750714287
6.597871333,-0.16165539470285714,3.2336505611428574,-8.074250692190477,8.774852321619047
6.607817333,-0.1634569601266667,3.198708414809524,-7.533546799285714,8.644398345666666
6.617763333,-0.08955486466476194,2.9111431147142857,-6.382354527476191,9.108930592
6.627709333,-0.02022639342190476,2.313163349952381,-4.505871092,10.315046382428571
6.637655333,-0.03904099140857144,1.3811407307142858,-2.054476911857143,12.13349820195238
6.647600333,-0.21362311029428574,0.16936885447619043,0.7514000394761906,14.338658994904764
6.657546333,-0.4641524710085715,-1.1610734888095238,3.6940068893333335,16.703403901142856
6.667492333,-0.7088302680371429,-2.4702528220476188,6.490946009571429,18.945320141666667
6.677438333,-0.92344442918,-3.647412550809524,8.998579155428573,20.890158438714284
6.687384333,-1.1131579396780953,-4.640289830095238,11.230216900523809,22.4967243067619
6.697330333,-1.2372041895057142,-5.421932963619048,13.196436273380952,23.739223592714286
6.707276333,-1.2173588587866666,-5.935611972428571,14.902604350190476,24.61415628061905
6.717222333,-1.043486742415238,-6.2222246636190475,16.327375758380953,25.15899516747619
6.727168333,-0.7629494683819049,-6.326568595871429,17.465490064190476,25.423439496666667
6.737114333,-0.5020656763485715,-6.3098624743,18.256047403142855,25.37716841957143
6.747060333,-0.3114943497390477,-6.217581187871428,18.67272633891905,25.207843510714287
6.757005333,-0.12206787836761913,-6.055319589157143,18.754096637442856,25.251999815809523
6.766951333,0.09944151264666659,-5.858909777728572,18.561391482823808,25.534893183999998
6.776897333,0.33838109240857134,-5.659458968633333,18.166475995014284,25.994908398285713
6.786843333,0.5930509595990475,-5.513266381680952,17.560524025204764,26.624274347857142
6.796789333,0.843794143075238,-5.406112033966667,16.775989652442856,27.395125416190478
6.806735333,1.0018379223609524,-5.306336412966667,15.706615130109522,28.416184003714285
6.816681333,0.9743279177942857,-5.219746827109524,14.18315948372857,29.523037631190476
6.826627333,0.8042914783180951,-5.050447014966666,12.15200004277619,29.915612715
6.836573333,0.5714511884133332,-4.747142792347619,9.600727761823808,29.374227982142855
6.846519333,0.36618814949047607,-4.246003443633334,6.710909268490476,28.02688256833333
6.856465333,0.32284381182380945,-3.5281006272523814,3.648852851823809,26.13892202452381
6.866410333,0.40587054301428555,-2.6988774331095238,0.5467122684904759,23.998697480238096
6.876356333,0.520151240490476,-1.8728676460619051,-2.3192389207476194,21.89012640404762
6.886302333,0.6417828834904762,-1.1282363993952385,-4.838785044557143,20.00508349595238
6.896248333,0.7931911589523809,-0.4785048779666668,-7.078008410319048,18.406072250999998
6.906194333,0.9241057353619045,0.03863165922380936,-9.03583176622381,17.13420266657143
6.916140333,0.9472318552476191,0.36892241788095226,-10.69141822560476,16.184000130333335
6.926086333,0.8601135627714285,0.5407720441523809,-12.057490605319046,15.56419976090476
6.936032333,0.7184354300571427,0.5977317487380951,-13.138326756080952,15.247798560476191
6.945978333,0.6123546589619047,0.5978088902142856,-13.869353703842856,15.264396767238097
6.955924333,0.5260534173904761,0.5441766550714284,-14.252547139190478,15.429762220238095
6.965869333,0.40628361834285714,0.4340488311190474,-14.325725349380955,15.402015556428571
6.975815333,0.29406800424761903,0.2922150928809522,-14.152086962619048,15.164085009285714
6.985761333,0.21133619548571428,0.14369999188095223,-13.808710615571428,14.781112813571426
6.995707333,0.13783790596190476,-0.017716739833333498,-13.322662596619047,14.264790257380954
7.005653333,0.05668687105714285,-0.19470814302380968,-12.714543369952382,13.62667769642857
7.015599333,0.02934904262857142,-0.3559454278809525,-11.965884031857144,12.861612390238095
7.025545333,0.09036221808095238,-0.4211009101190478,-11.139853779476189,12.037136627380951
7.035491333,0.17521793395238094,-0.37069102330952397,-10.386005566714285,11.285962328142856
7.045437333,0.29605203409999997,-0.18947636421904773,-9.778391205285713,10.660193404619047
7.055383333,0.48662368527142846,0.09453494250952368,-9.350283775095239,10.165055164
7.065329333,0.6584006372761905,0.41535539062952376,-9.042766981476191,9.758477134
7.075275333,0.7767276741428571,0.7255757277676189,-8.793586522047619,9.407616039190478
7.085220333,0.8700633667285713,1.0373031568771427,-8.620187898761904,9.131450444666667
7.095166333,0.9517394476523809,1.3180923345247617,-8.467395336761905,8.893904485285713
7.105112333,0.9661738807333334,1.5147813505342855,-8.18326748947619,8.577701534285714
7.115058333,0.9419987955904762,1.6894138129152378,-7.8049896969857135,8.25003317647619
7.125004333,0.8587698551428572,1.865902404305714,-7.498398768366668,8.042640570809525
7.134950333,0.6767463242380952,1.9959402620819047,-7.191584420414285,7.864162755285714
7.144896333,0.3992957187619047,2.0180839809866664,-6.710682118128571,7.662665829333334
7.154842333,0.06374779114285714,1.8756773826723807,-5.974486788604763,7.596297684571428
7.164788333,-0.24802354776190474,1.6085285549104757,-4.882435260557143,7.821885857571428
7.174734333,-0.5718335519047619,1.077322405767619,-3.4481702850333327,8.430690455190476
7.184679333,-1.028113632761905,0.2840610360533333,-1.614038538938095,9.496733931857143
7.194625333,-1.5495557252857144,-0.7438014293752382,0.538924363061905,10.926288063285714
7.204571333,-2.0612613823809522,-1.8889442555180953,2.908136122204762,12.600871709
7.214517333,-2.5474194753333332,-3.0249467975180955,5.3776427207761905,14.363000669952381
7.224463333,-2.964010194761905,-4.113598802946667,7.855246098395239,16.109554186142855
7.234409333,-3.213361291904762,-5.077560194565714,10.308820872204763,17.769557074714285
7.244355333,-3.1891561162238093,-5.831522817899048,12.636209279919047,19.281554870142855
7.254301333,-2.945548495371429,-6.352634438275238,14.754056867061903,20.637761360333336
7.264247333,-2.5782207757809523,-6.670263893718095,16.5852798183,21.78482901142857
7.274193333,-2.1605407809761905,-6.835897400695238,18.029779509442857,22.631035333333333
7.284139333,-1.7560408401285716,-6.878790876261904,19.02342284382381,23.096816357190477
7.294085333,-1.3782637920476193,-6.835365777419048,19.518262346538094,23.221134174904762
7.304030333,-1.0647405655428575,-6.718168342590476,19.518644253204762,23.395105229428573
7.313976333,-0.8083628345619049,-6.551036305599999,19.00351546882381,23.976338993
7.323922333,-0.5649432364952381,-6.3874808085523815,18.058126727476193,24.913103046666667
7.333868333,-0.3099463637333334,-6.267838924361904,16.873854389666665,26.03936352904762
7.343814333,-0.07823208044761916,-6.171725873980953,15.52365216095238,27.28149550161904
7.353760333,0.1593850435999999,-6.0353805829333345,13.928365113238096,28.592187408
7.363706333,0.3690688385857142,-5.837993367619047,12.02452712209524,29.790141425476193
7.373652333,0.47500391653809515,-5.636625124238096,9.77510760447619,30.678662301190474
7.383598333,0.5501127241571426,-5.308788347976191,7.333028790190476,31.045058428333338
7.393544333,0.6985034604428569,-4.871519361261905,4.78341589352381,30.683038970238094
7.403490333,0.8605354862999997,-4.31282458802381,2.2238421259047625,29.692934000238097
7.413435333,1.0291871311095238,-3.6662620069285716,-0.3433374212380948,28.290451365
7.423381333,1.227160947490476,-3.0111247069761906,-2.8615684226666667,26.687313054523813
7.433327333,1.383599791395238,-2.352216454119048,-5.227715154857143,24.971077049285718
7.443273333,1.4637891263952378,-1.7319270558333335,-7.444741543380951,23.191206315142857
7.453219333,1.398485960185714,-1.2076789541190478,-9.484218036428572,21.455214225142857
7.463165333,1.2028501704047618,-0.8082697489285716,-11.335477919666667,19.8568553947619
7.473111333,0.9106967759761905,-0.5171919637666669,-12.922991651190475,18.479225171857145
7.483057333,0.6295501663571427,-0.2972102718619049,-14.164272643142857,17.477961534904765
7.493003333,0.4278113000238094,-0.1199622454809526,-15.002221776523808,16.955599189428572
7.502949333,0.2578437950238094,0.005480925899999796,-15.403135533,16.861007164333333
7.512895333,0.1084706012142856,0.08207054089999981,-15.412679163476193,16.81230982547619
7.522840083,0.04116256397619037,0.14084407961428555,-15.087288099857144,16.54336682904762
7.532786083,-0.0018883130714286817,0.1596798267571427,-14.446655263761906,15.976429751666666
7.542732083,-0.059034251500000155,0.1362900174714284,-13.511532172333332,15.104428123190477
7.552678083,-0.0686874128809525,0.08447747761428556,-12.406249286380952,14.050114288619048
7.562624083,-0.09958320589047631,-0.013498509623809692,-11.251460085857143,12.908744331190476
7.572570083,-0.14711394110952392,-0.10648891019523822,-10.107114541238095,11.767286111095236
7.582516083,-0.12170748282380964,-0.1289686351952383,-9.032589095523809,10.697578927761905
7.592462083,-0.05878423082380963,-0.05909669482857159,-8.128296813142857,9.795031321571429
7.602408083,0.0047659540333332365,0.12043675749714271,-7.484553341714285,9.13981446395238
7.612354083,0.13363822503333322,0.39956304964476175,-7.0936630774285705,8.68319111252381
7.622300083,0.3120817598428571,0.7297401983066665,-6.873452926619047,8.350794135619047
7.632245083,0.4811165677904762,1.0714055247209522,-6.770638660571429,8.113074972285714
7.642191083,0.6793121045766666,1.402645056768571,-6.783446039809524,7.968506742619049
7.652137083,0.8812723854814285,1.723358069244762,-6.905761577285714,7.978611970714285
7.662083083,1.0623120214242856,2.030055876625714,-7.142740122761905,8.198162562809523
7.672029083,1.1821287756814285,2.316472066578095,-7.3961518779999995,8.49495237557143
7.681975083,1.257904674062381,2.560840190892381,-7.566679936047619,8.754833761714284
7.691921083,1.2949345130147616,2.6859824673685715,-7.540238854714285,8.830506665619048
7.701867083,1.2590366044909524,2.6219884927019046,-7.135313880428571,8.86392284395238
7.711813083,1.1991072940147618,2.365739905130476,-6.267988920714285,9.240443238714287
7.721759083,1.1185329268242856,1.8851442475590479,-4.938031144619048,9.992548492428572
7.731705083,0.8782828990623808,1.1469480287019047,-3.1874768815714285,11.099530918380951
7.741650083,0.5015694455861903,0.13571952779714272,-1.1281919709999997,12.548800110047617
7.751596083,0.13310836249095231,-1.1366259663933334,1.202374481857143,14.39419256757143
7.761542083,-0.17450644836619056,-2.5748453581076194,3.8307995201904763,16.61953390214286
7.771488083,-0.35594691092809533,-4.028767962393333,6.680839823000001,19.048178681
7.781434083,-0.3720405158376191,-5.349343950345714,9.564782254571428,21.34215221395238
7.791380083,-0.20895202336142862,-6.407565089726667,12.272642747428572,23.23007612680952
7.801326083,0.10240448344809515,-7.139575274688572,14.673422064571431,24.67559349061905
7.811272083,0.5380331174957143,-7.567177742109524,16.687914379809527,25.714605750142855
7.821218083,1.0283412787338095,-7.756572050304762,18.193075341238096,26.338348598238092
7.831164083,1.47355359321,-7.771344887509524,19.126416980904764,26.525308875142855
7.841110083,1.8627132454528568,-7.670972711304763,19.564974165090476,26.472300433619044
7.851055083,2.178574572952381,-7.522663975257142,19.617228336804764,26.57221642804762
7.861001083,2.361587752095238,-7.412449626447618,19.40572081947143,26.850236493619047
7.870947083,2.411047650809524,-7.394984160352381,19.053699837519048,27.194801384857143
7.880893083,2.4148777580476186,-7.485011428685715,18.571278651233335,27.627310563904764
7.890839083,2.4013159905714283,-7.639128162257143,17.924520577947618,28.182275516857143
7.900785083,2.366196095904762,-7.738797050685714,17.00942575951905,28.955653279904762
7.910731083,2.328039693380952,-7.690422200257142,15.608898968138094,29.824254448476193
7.920677083,2.218323819680952,-7.501110198590476,13.634863705757144,30.433833746571434
7.930623083,2.002049387823809,-7.179202673019048,11.216165846709524,30.661611196095237
7.940569083,1.8032712660619044,-6.707970147957142,8.536628263852382,30.385628465619053
7.950515083,1.7030745620142855,-6.050487167861905,5.777362057661906,29.55552915704762
7.960460083,1.6357615685380948,-5.176150784004762,2.967376100519049,28.149060762285714
7.970406083,1.5138487092523807,-4.1196647917666676,0.04821171242381058,26.231650049904765
7.980352083,1.3661802850619047,-2.971794490052381,-2.9731157285285703,24.026382939428572
7.990298083,1.1887357331095236,-1.8666455401952382,-5.94417309757619,21.86013989085714
8.000244083,0.9058940226333332,-0.9396916565523812,-8.664763981385713,20.006616474666668
8.010190083,0.5648940536809522,-0.24951713710238113,-11.02776170948095,18.528989073714285
8.020136083,0.20453774049047607,0.20900294946428552,-12.953798988957141,17.38814552309524
8.030082083,-0.20174897026190486,0.4512298582214284,-14.33005170500476,16.625473423190474
8.040028083,-0.6237434270666667,0.5120510570642856,-15.095293802338094,16.271516590857146
8.049974083,-1.0125969880142858,0.45434700889285695,-15.343638221238095,16.137511860380954
8.059920083,-1.355521059852381,0.33731419405476176,-15.230489809190473,15.877160391809525
8.069865083,-1.6336384993857143,0.2237440863880951,-14.877978802571429,15.450978001238097
8.079811083,-1.8569959376952379,0.1464176108166665,-14.373582415666666,14.914350530761904
8.089757083,-2.003620366738095,0.14578529010238078,-13.79798342552381,14.336946856380951
8.099703083,-2.0753829137857145,0.21223251972142837,-13.238325114666665,13.795551081904762
8.109649083,-2.1086673257380957,0.30339674434047603,-12.695647146095236,13.280399868571429
8.119595083,-2.1079297551666665,0.39392666443571417,-12.091735743238095,12.710211261904764
8.129541083,-2.0329067206095237,0.4935328136261902,-11.374633995619046,12.031117170952381
8.139487083,-1.8341080361809527,0.633765824388095,-10.627419866571428,11.310707735714285
8.149433083,-1.5172092843000002,0.8213878415166666,-9.972521689904761,10.653815422380953
8.159379083,-1.1695875037285715,1.0663240715642854,-9.489558828476188,10.14674206857143
8.169325083,-0.8302587908285715,1.3416720182785713,-9.20184518990476,9.8089397
8.179270083,-0.47022575206190487,1.5944066937547619,-9.063970016571428,9.582743961428571
8.189216083,-0.1316194904904763,1.789340097183333,-8.95609740790476,9.392139809190477
8.199162083,0.15520522493809513,1.9099833518976188,-8.768509485428572,9.15307058052381
8.209108083,0.37677621793333327,1.949489417083333,-8.475655030666665,8.831154723142857
8.219054083,0.5152186285571427,1.9276102011428573,-8.08329076642857,8.423659349380952
8.229000083,0.5915974148866665,1.8981822019499996,-7.643905532995237,7.993864118785715
8.238946083,0.6560805195390476,1.874641228197619,-7.174826801947619,7.770272591071428
8.248892083,0.7795396175342856,1.8501376844119044,-6.560585095138094,7.846439803690477
8.258838083,0.9697497306723809,1.7988166795880953,-5.6280946988523795,8.3260462095
8.268784083,1.1561188356533332,1.6538133049500001,-4.317272074995238,9.20472369854762
8.278730083,1.2654996369009524,1.3225283456166668,-2.641396612566666,10.43245788007143
8.288675083,1.3005343058247618,0.7209523345690475,-0.5947245361380944,12.01340691197619
8.298621083,1.2509337719914284,-0.17447818628809544,1.8261099232428581,13.929150681595239
8.308567083,1.1471073078961904,-1.277405089907143,4.576405915719048,16.053209891309525
8.318513083,1.0585348659438094,-2.420242498192857,7.452528559528573,18.11915649845238
8.328459083,1.050153731562857,-3.4640590637642856,10.135365809528572,19.83286790511905
8.338405083,1.1129538161342856,-4.315056133430953,12.5177677181,21.129045632738094
8.348351083,1.2319009467533333,-4.944094804192857,14.572647475719046,22.04318774892857
8.358297083,1.3801735518723808,-5.354994045764285,16.272584759528574,22.61189212511905
8.368243083,1.5171431375866664,-5.584923160145238,17.576859002385714,22.837105530833334
8.378189083,1.636563715162857,-5.677701341621429,18.481759116766664,22.738945804880952
8.388135083,1.7475158503485713,-5.668979307573809,19.04454178962381,22.46175169345238
8.398080083,1.8634726765866663,-5.6019442517642855,19.323375038814284,22.288115508214286
8.408026083,1.972027411586667,-5.51702679557381,19.32097985219524,22.33947306802381
8.417972083,2.065159119877143,-5.419200350878571,19.016125741719048,22.664819858261904
8.427918083,2.1551421564914284,-5.301544313340476,18.386580590814283,23.30517646392857
8.437864083,2.245690246447619,-5.165814232904761,17.46136165257143,24.228576196571428
8.447810083,2.301522830595238,-4.971035933814286,16.261002984238097,25.204039625619046
8.457756083,2.228777354414286,-4.698119593471428,14.671038461904763,26.132579155809523
8.467702083,2.0016742619857144,-4.375279795523809,12.578665355238096,26.843279572952383
8.477648083,1.6787716343190477,-4.017181440333333,10.093870570476192,27.16554394533333
8.487594083,1.3159655744142857,-3.621206089047619,7.4484963195238105,26.93440839438095
8.497540083,0.9698920791333333,-3.142261017095238,4.758562331428573,26.04228195295238
8.507486083,0.6269649862476191,-2.523301693047619,2.0801475252380963,24.504403001999997
8.517431667,0.2564696776761905,-1.7955429212380953,-0.5840427314761895,22.52847383247619
8.527377667,-0.08815036946666664,-1.0554013197619048,-3.175164148857142,20.40886134071429
8.537323667,-0.42656325875238094,-0.37494660585714296,-5.505770362571428,18.470153459857144
8.547269667,-0.7892746494666667,0.17679457490476175,-7.554978543714285,16.891519785761904
8.557215667,-1.1688657127047617,0.5831730277761904,-9.289216931095236,15.688818872428572
8.567161667,-1.522841961847619,0.8312795346428571,-10.657582087523808,14.808672586285715
8.577107667,-1.808789963847619,0.9446501408523809,-11.616197007857142,14.241660242000002
8.587053667,-2.031879071561905,0.9705903664238094,-12.18400697752381,14.003513287142859
8.596999667,-2.2373325939904762,0.9526791823761904,-12.462887533476191,14.006904706476188
8.606945667,-2.4478120523333335,0.9353881721380952,-12.552593316333333,14.008106965
8.616890667,-2.6333648164285712,0.9418864474238094,-12.48429945242857,13.908701721142856
8.626836667,-2.7591529352571427,0.9719040965666665,-12.23059018547619,13.656587842571428
8.636782667,-2.817779935109524,1.0033799995190473,-11.799705522857142,13.241343949333336
8.646728667,-2.840995121490476,1.0082950576142855,-11.234686763238093,12.696038485714285
8.656674667,-2.864723380157143,0.9533145937571426,-10.565718375619046,12.03675772857143
8.666620667,-2.846448692485714,0.8254309058999999,-9.776156761761904,11.243115133333333
8.676566667,-2.741490931395238,0.6774321418999999,-8.880660974619046,10.338830327142857
8.686512667,-2.5329446913190474,0.5723052744238094,-8.005931657952381,9.454650418571429
8.696458667,-2.2276540442333332,0.5782884935190475,-7.335786392714285,8.767062856190476
8.706404667,-1.860979612661905,0.7355524282809524,-6.958997496047619,8.346922706666666
8.716350667,-1.4421643861857143,1.0011012211857142,-6.912783720809523,8.17240963095238
8.726295667,-0.9985441815285713,1.299468702233333,-7.132558170761903,8.133364734761905
8.736241667,-0.6175957429,1.5678917496619047,-7.435068968142856,8.169838979857142
8.746187667,-0.31853767779047615,1.7371523193142855,-7.687578497952379,8.254729117571427
8.756133667,-0.03617820250476188,1.811168177909524,-7.827751320666666,8.307076621523809
8.766079667,0.26135735206666666,1.8061450716190472,-7.894360406809524,8.321697536285715
8.776025667,0.5440582142095238,1.7473730295142857,-7.93717449947619,8.347010777285714
8.785971667,0.8029162192571428,1.678925780642857,-7.970010541380951,8.405462114
8.795917667,1.030471221447619,1.6710823951571427,-7.999170076809523,8.483792892857142
8.805863667,1.2435287415428573,1.7346875856333333,-7.987714685238095,8.553671289142857
8.815809667,1.4089820220285714,1.8412324168238097,-7.78679511125238,8.546621039809523
8.825755667,1.6271454317428573,1.9491987061571427,-7.2139261863,8.693783947857144
8.835700667,1.9605908572380955,1.955589253442857,-6.07448403325238,9.323076326428572
8.845646667,2.271236582804762,1.8331117689333334,-4.285828783966666,10.508976420619048
8.855592667,2.4358574425190476,1.5598955082190475,-2.0890054440619035,11.985326711380953
8.865538667,2.4277433414238097,1.1547287097904761,0.281097792604763,13.51854492947619
8.875484667,2.317614445504762,0.6402563312666665,2.774903247795239,15.094579914714286
8.885430667,2.1954105793666665,0.025688795314285546,5.358236257319048,16.707060045190477
8.895376667,2.0788738276714285,-0.6537894610190479,7.969026622080953,18.320605054714285
8.905322667,2.0107555577714287,-1.3502060987333335,10.52219986017619,19.866586423761905
8.915268667,2.0135082424333333,-1.998456750209524,12.905136315414287,21.249640114238094
8.925214667,2.0807793691476193,-2.5505288276380957,15.02352880779524,22.372142605190476
8.935160667,2.236042115252381,-2.9455841404000003,16.784396194938097,23.131135596142858
8.945105667,2.4699524595761906,-3.159622666638096,18.084663592080954,23.491779323761904
8.955051667,2.6896188543238093,-3.219159319195238,18.882993885366666,23.48729686009524
8.964997667,2.7673026852285716,-3.215866797304762,19.218586001223812,23.247236213333334
8.974943667,2.694848624847619,-3.1883212065171436,19.196179415176193,23.255304587809526
8.984889667,2.527139634761905,-3.1646634798980955,18.911152962366668,23.51259229438095
8.994835667,2.2816585694761904,-3.187436787331429,18.4214655527,23.957616229095237
9.004781667,1.9985656306190474,-3.3113918910838103,17.77715030722381,24.547068447238097
9.014727667,1.7258670294761906,-3.5201475415123813,16.98819463208095,25.24425921161905
9.024673667,1.5168265987619047,-3.7763314617028576,15.942560891190478,26.07716593371429
9.034619667,1.2424754213333333,-4.013987582864762,14.475511246000002,26.803056923142858
9.044565667,0.8282380739523809,-4.116793596479048,12.393491219333336,27.09319073695238
9.054511667,0.40680698066666665,-4.072247342779049,9.637470830285716,26.84940366790476
9.064456667,0.10226850828571431,-3.888428076255238,6.524443176952381,26.257381733619045
9.074402667,-0.04028767785714282,-3.630117911821905,3.4201969279047635,25.427503999809524
9.084348667,-0.0772125732380952,-3.3510819869647626,0.4620722640952395,24.295969679809524
9.094294667,-0.1087171414285714,-3.050690206774286,-2.316213876380951,22.87908911409524
9.104240667,-0.1850198948095238,-2.7290341917742857,-4.889913291619046,21.269366170761906
9.114186667,-0.32735825823333337,-2.3935326661552385,-7.254191476476189,19.620471560285715
9.124132667,-0.5357342608000001,-2.063977870012381,-9.384013298523808,18.075424413666667
9.134078667,-0.776473296847619,-1.762617985821905,-11.252580661952381,16.763129854142854
9.144024667,-1.0792844321333332,-1.536084474869524,-12.786389833999998,15.81259379038095
9.153970667,-1.4528533922761906,-1.4100351108028573,-13.897433536142856,15.283590654095239
9.163916667,-1.7982751718952381,-1.362291449936191,-14.55128664852381,15.153869406380952
9.173862667,-1.9811244549285716,-1.3228411421314288,-14.773583086047617,15.27927166995238
9.183808667,-2.0038595431390474,-1.2647349325476194,-14.662137773047618,15.173089780666666
9.193753667,-1.9496878605819048,-1.169082632309524,-14.328423476714285,14.847695048619048
9.203699667,-1.8490822481914286,-1.020849412357143,-13.851298030238095,14.380032314809526
9.213645667,-1.7069173069390478,-0.8377855434523812,-13.253893798666665,13.794136134619047
9.223591667,-1.5652418820485716,-0.6484933944523813,-12.546372852809522,13.104819274952382
9.233537667,-1.4364181498961905,-0.4647747417857146,-11.74805394752381,12.336013034809525
9.243483667,-1.3143757469628572,-0.3073579841476193,-10.86468233447619,11.487618464761905
9.253429667,-1.2178176955914286,-0.19539814053333363,-9.913559590476188,10.56789430852381
9.263375667,-1.1269359854342857,-0.10163966639047645,-8.921968740190474,9.608875103428572
9.273321667,-1.0412964955390478,-0.0032516871047621756,-7.9502308023809505,8.671875869047618
9.283267667,-0.9564126155535239,0.13912962722380925,-7.102153150238094,7.857580567285714
9.293213667,-0.8667671843059048,0.3613899790809521,-6.43244520147619,7.217965847809525
9.303159667,-0.7645055847868572,0.644611326985714,-5.938709736523809,6.735023627761905
9.313105667,-0.6241012123059049,0.9561737880809521,-5.601787880333331,6.366494642857144
9.323050667,-0.4794829846963809,1.2502679777476187,-5.328353560238094,6.016336662523809
9.332996667,-0.34921381037733334,1.508494546128571,-5.048001315792856,5.693019099571428
9.342942667,-0.21655592316304761,1.7461451872714282,-4.754041709511903,5.431621312428572
9.352888667,-0.09440397891733336,1.987348568795238,-4.41958022240238,5.239124971904762
9.362834667,0.056484670506476174,2.2476617613476186,-3.9836878371642848,5.158483353095238
9.372780667,0.2991285484112381,2.4781869297666663,-3.3491231856404755,5.278604211904762
9.382726667,0.5760598793493333,2.623529543857143,-2.378220759164285,5.758123979047618
9.392672667,0.7687943816550477,2.6374634413333333,-1.109295941640475,6.549413381952381
9.402618667,0.7922293258931429,2.4825945539523806,0.3426217777404772,7.523765547809523
9.412564667,0.595184652978857,2.1263100746666663,1.9491607617404771,8.668586108761904
9.422510667,0.23670228191695236,1.536514344619047,3.7576152396928584,10.061684314190476
9.432456667,-0.15513933154495238,0.6917684216666663,5.806899991454762,11.745492463857143
9.442402667,-0.5158758529830477,-0.3577075803333338,8.10422624855,13.68480383161905
9.452348667,-0.8671297638211429,-1.469803753619048,10.47867026312143,15.713189811666666
9.462293667,-1.1664630587640001,-2.490009123095238,12.654981932454762,17.526815530761905
9.472239667,-1.3580372611592382,-3.3123020299523813,14.49170622264524,18.911316015857143
9.482185667,-1.4013477528163811,-3.901508228619048,15.941172315788098,19.809001660714287
9.492131667,-1.2721760521352383,-4.2700354270476195,16.952908522216667,20.23528466009524
9.502077667,-1.022966802192381,-4.461660684709524,17.477976932597617,20.302934695761905
9.512023667,-0.77241759314,-4.511223306519049,17.516831318597617,20.363854210952383
9.521969042,-0.5740199232400001,-4.4443171191857145,17.13154797716905,20.775456381571427
9.531915042,-0.4033626173257143,-4.283878320328571,16.399739535264285,21.524185395238096
9.541861042,-0.2552847245019048,-4.095308100614286,15.440573250009523,22.458252851
9.551807042,-0.1441193017161905,-3.937883889519048,14.392032747157145,23.437195920047618
9.561753042,-0.02093666739047623,-3.824360545661905,13.245026998285715,24.436939803380955
9.571699042,0.044047125995238044,-3.786396091947619,11.876453151857143,25.456382863238094
9.581645042,-0.10619173070000006,-3.802712969947619,10.205714580095238,26.37651532895238
9.591591042,-0.45802311670000007,-3.8374112386142865,8.216826053428573,26.923161539904765
9.601536042,-0.8490932109380952,-3.8580010669000004,6.072243882476191,27.019397854666668
9.611482042,-1.1219924690285714,-3.8053077066285717,3.947248658666667,26.73893675038095
9.621428042,-1.2300773036476191,-3.6213561677238095,1.864131583428572,26.11475374942857
9.631374042,-1.1978742089809524,-3.221822966914286,-0.30633170038095187,25.13468780847619
9.641320042,-1.0501983644095239,-2.5550209794857146,-2.6606033779999994,23.77027107895238
9.651266042,-0.8382712607904762,-1.658255695866667,-5.160061476142856,22.01046401895238
9.661212042,-0.6016607697428571,-0.6879578085928576,-7.610552261333332,20.027075297523808
9.671158042,-0.40190763174285715,0.19000927536523773,-9.743668209761905,18.14894582804762
9.681104042,-0.3302309517428571,0.8608036925652378,-11.423606930047619,16.60798973309524
9.691050042,-0.4313175063142856,1.282240779198571,-12.638350723380952,15.519051526857144
9.700996042,-0.6920419565047619,1.4844502768128567,-13.38808121545238,14.896187601571429
9.710942042,-1.0604146492190476,1.5225865969271424,-13.703892757647619,14.674509175714284
9.720888042,-1.4187313283142857,1.4567611490699997,-13.642412013742858,14.532964576047618
9.730834042,-1.6940715970761906,1.3279152810271424,-13.275232737885712,14.131585388952379
9.740779042,-1.8750903118238094,1.1766718692176188,-12.712392038457143,13.538233670809523
9.750725042,-1.9821876979047617,1.0355828086938093,-12.088421622742855,12.892224436000001
9.760671042,-2.060686797728571,0.9106610140271424,-11.485784940695238,12.27287006552381
9.770617042,-2.1683466372333333,0.7720427988842854,-10.86213328212381,11.627979644571429
9.780563042,-2.2688745651766666,0.6277532787890473,-10.114076374504762,10.862042730285715
9.790509042,-2.2563696923766665,0.5052858528842853,-9.256635492600001,9.996456012666666
9.800455042,-2.1065605747385714,0.4335306044080949,-8.441671736409521,9.174987528857141
9.810401042,-1.8868273755623808,0.4263650539128568,-7.807637761647618,8.525270782666666
9.820347042,-1.6300364517719048,0.47920683947476156,-7.384949113552381,8.072041614571429
9.830293042,-1.3098212740338095,0.5749826621509521,-7.126814395314286,7.754096144666668
9.840239042,-0.9802372488052381,0.6632281307785711,-6.918459056504761,7.473474388523809
9.850185042,-0.7287196921433333,0.7306712839499996,-6.649000174933333,7.165460262619049
9.860131042,-0.5530387752861905,0.7774157914166663,-6.331015556790474,6.854695841380952
9.870077042,-0.41803903990523805,0.8023624775714282,-5.995864070409523,6.573441555571428
9.880022042,-0.3240642118338095,0.8179140734085711,-5.622648156838094,6.480592897428571
9.889968042,-0.24458996697190477,0.8266371202619044,-5.180553267980952,6.634621745904762
9.899914042,-0.13079871971,0.8263794494809521,-4.595709022742857,7.01427047595238
9.909860042,-0.02528999775285716,0.7932202897714282,-3.781496661623809,7.660396880285715
9.919806042,0.02481768896142856,0.7183278082238091,-2.744954171904761,8.51786237852381
9.929752042,-0.041983032705238114,0.6156804595095234,-1.5284670729523804,9.498720938285715
9.939698042,-0.2682979483242858,0.4676619193619044,-0.18162262166666582,10.535698456333334
9.949644042,-0.5536503000528571,0.2274017772666663,1.2720459489047626,11.547548640190476
9.959590042,-0.7080918534480952,-0.1489884714000004,2.9068795536666676,12.538380828333331
9.969536042,-0.6335703081480952,-0.6546570314476194,4.8451039897142865,13.655909822619048
9.979482042,-0.4328489269290477,-1.2749721574952384,7.061102939238096,14.967287276904761
9.989428042,-0.30305321350952386,-1.9442573456380958,9.393266350190476,16.389633801190477
9.999374042,-0.23109774661428575,-2.5177918786857147,11.676826980666668,17.77431705214286
10.00932004,-0.08120424110952387,-2.902882429257143,13.750697825904762,18.93133802404762
10.01926504,0.1840643309523809,-3.0873431944761913,15.472401342095239,19.71666554547619
10.02921104,0.5482491851619047,-3.1179886988238095,16.742308714952383,20.10287365547619
10.03915704,0.905948300804762,-3.0558570241190472,17.555345061904763,20.17178832109524
10.04910304,1.168097961052381,-2.9659279750800005,17.96604023564286,20.076226930190476
10.05904904,1.329653209152381,-2.90780732320381,18.016577247214286,20.10261211947619
10.06899504,1.3975617206761906,-2.8993991663180956,17.74450878102381,20.38033543047619
10.07894104,1.4014091050571427,-2.9121454664704767,17.18594186697619,20.883073864380954
10.08888704,1.3776958716380954,-2.918396642498572,16.325451745166667,21.45067034104762
10.09883304,1.334174617442857,-2.85625613431381,15.11315467754762,22.035569970857143
10.10877904,1.2392163677523809,-2.681082244118572,13.45951425564286,22.660038713238094
10.11872504,1.1229426850809523,-2.410774872261429,11.332412252309524,23.250165303714287
10.12867104,1.024134318842857,-2.1202630697376197,8.94934086611905,23.672057592285714
10.13861704,1.006814768604762,-1.9184307314519053,6.6166918580238105,23.772295198000002
10.14856304,1.072912724557143,-1.8438803781280955,4.520812760880953,23.49278657942857
10.15850804,1.0886220768904762,-1.861016896556667,2.689308558500001,22.94097424895238
10.16845404,0.8638900791285715,-1.8618538558423812,1.037926832261906,22.182690191333332
10.17840004,0.40866713308095237,-1.7722506498423813,-0.6425262759761893,21.116215027523808
10.18834604,-0.05793113944285713,-1.5218993831280954,-2.5017696415952364,19.685447213809525
10.19829204,-0.35293319291904757,-1.1269360319376194,-4.523851252499999,18.054819130809523
10.20823804,-0.5552668324904763,-0.7263733728900003,-6.585641082071429,16.47659958195238
10.21818404,-0.8139690231095238,-0.43744033943285754,-8.472481801642857,15.137113385761904
10.22813004,-1.1367748271619047,-0.2908076573085718,-9.981155324880952,14.138503856666668
10.23807604,-1.5180419912538095,-0.26181308471809556,-11.010206139404762,13.511407112714286
10.24802204,-1.888284205868095,-0.310372801094286,-11.590675665119047,13.211079905999998
10.25796804,-2.1686815295585715,-0.3728031919514289,-11.837688283238094,13.143925393190475
10.26791404,-2.346549141496667,-0.4005197946800003,-11.880323868761902,13.110083300571429
10.27786004,-2.449484789282381,-0.3950856047609528,-11.801678985333334,13.01168368342857
10.28780504,-2.465264186377619,-0.36000855135619075,-11.644159144285712,12.855797977142856
10.29775104,-2.391393766791905,-0.30679701859952413,-11.39833874547619,12.61831446857143
10.30769704,-2.261205217934762,-0.31574195683761935,-11.026709599285713,12.248801855238096
10.31764304,-2.0963160023157146,-0.4228263468376194,-10.459023702142856,11.669712989999999
10.32758904,-1.9021340008871428,-0.6010892270614289,-9.708543262619047,10.89747483952381
10.33753504,-1.6700535809823813,-0.7724635233947621,-8.933875732142857,10.099033063333334
10.34748104,-1.4168768350776193,-0.865513168799524,-8.343428127857143,9.48875676095238
10.35742704,-1.1386830415490476,-0.834775075706667,-8.049114709285714,9.16297641952381
10.36737304,-0.7945357287157144,-0.6625496762352383,-8.033446510238095,9.053847927142856
10.37731904,-0.36437997709666675,-0.40733528708761935,-8.250842702571427,9.044640354285715
10.38726504,0.04472937261761902,-0.14926526049238126,-8.588626800523809,9.062152256190476
10.39721104,0.34062850032714287,0.04070554836476161,-8.885662264999999,9.114456904619047
10.40715704,0.5595941306604761,0.13051492441238063,-9.046526295666666,9.175013792095239
10.41710304,0.7622096617080952,0.14381381079333305,-9.045881960380951,9.163651514809525
10.42704804,0.9560003799461905,0.1415678813361902,-8.931142493142856,9.077849216190478
10.43699404,1.1073972150461904,0.18835138940238066,-8.788274493809524,8.984820438333335
10.44694004,1.1719131685190476,0.31753993384999973,-8.60569688357143,8.913178695714285
10.45688604,1.1495855442285714,0.46773657922619016,-8.24486631942857,8.906533070666667
10.46683204,1.1288083161285714,0.5595642366071425,-7.515549626714285,9.169160381
10.47677804,1.1700829308761904,0.5477734863499998,-6.323814933380951,9.791223382619048
10.48672404,1.2365084944714286,0.4072250983642855,-4.671493392523808,10.747801264285716
10.49667004,1.2713958544238095,0.1659497334452379,-2.6350222016666653,11.966239857238095
10.50661604,1.316399952042857,-0.19229049326904785,-0.2940352866666656,13.388264323904764
10.51656204,1.4379738259476191,-0.6729185889357145,2.3463717266666677,15.022019713904761
10.52650783,1.5761228194238097,-1.2388105327452383,5.214405944761905,16.822402098190476
10.53645383,1.6613964894238098,-1.8040955635214289,8.131967081428574,18.605188997714286
10.54639983,1.7283424969952381,-2.281169338664286,10.920560247619047,20.20254145104762
10.55634483,1.8304319934714286,-2.5798657952595243,13.518724301904761,21.575001848666666
10.56629083,2.033133903180952,-2.7312398792952384,15.763288626190475,22.603135223904765
10.57623683,2.2929156186333333,-2.7353823592380957,17.51271629761905,23.183949231523812
10.58618283,2.5797367908714284,-2.607404795766667,18.714506225238097,23.343660542476194
10.59612883,2.8983854612523805,-2.3962987630285717,19.394437000761904,23.27352984842857
10.60607483,3.179289432257143,-2.1615916450761907,19.612076075333334,23.260399963142856
10.61602083,3.355475322304762,-1.943230244457143,19.443119442619047,23.483920208190476
10.62596683,3.400057515495238,-1.7641893434571432,18.951076384523812,23.969903943857144
10.63591283,3.3235804246,-1.6488995000761908,18.197562771619047,24.68872206342857
10.64585883,3.172092407742857,-1.596035338504762,17.239444112666668,25.600322264666666
10.65580483,3.0057260706,-1.5980962175047622,16.04239201695238,26.698151213619045
10.66575083,2.8549453301714287,-1.6220045216952381,14.504839457619049,27.89625553585714
10.67569683,2.6442493752,-1.6384350723619052,12.603170227142858,28.824130760142857
10.68564283,2.284355207819048,-1.6689002806000004,10.473208211428572,29.171905157285714
10.69558783,1.8174053784380952,-1.7115562060761909,8.22251633952381,28.886067073952375
10.70553383,1.2586316122952381,-1.770704133647619,5.885432524761906,28.139255581571426
10.71547983,0.5645363051047619,-1.7763218878857145,3.465623694761906,27.09533510395238
10.72542583,-0.19332373803809533,-1.6568056909809528,0.8946965277142866,25.722057273
10.73537183,-0.7996881594666669,-1.397262740266667,-1.8104041073809516,23.981345576809524
10.74531783,-1.1966761093238096,-1.0533809848380955,-4.4899118691904745,22.07454118738095
10.75526383,-1.5079241224666668,-0.7469125276000003,-7.011764663666665,20.278699527809525
10.76520983,-1.8037276899904764,-0.5678422860761908,-9.346823170285713,18.681948953380953
10.77515583,-2.1297619958476193,-0.4930976694571432,-11.32461975195238,17.40557772938095
10.78510183,-2.4918212549428573,-0.5483327238428574,-12.788530722952379,16.551723989761904
10.79504783,-2.9146918421809525,-0.7383169534619051,-13.708351901619048,16.128279397142858
10.80499383,-3.3724751726095237,-1.0071884266523814,-14.162669308904759,15.997328264619048
10.81493983,-3.768099113180953,-1.273096252509524,-14.258901391904761,15.904943051523812
10.82488483,-4.051939653371429,-1.4991246823666668,-14.093469934142856,15.685824322904764
10.83483083,-4.227786491938095,-1.6810631641285718,-13.739131561190478,15.321353181047616
10.84477683,-4.292491849957143,-1.8266590009380954,-13.251249883047617,14.83334329242857
10.85472283,-4.239609293990476,-1.9749635534285719,-12.62886467552381,14.20809106395238
10.86466883,-4.092953879038096,-2.158532465119048,-11.849293335999999,13.419672266809522
10.87461483,-3.9138396442142858,-2.363191765119048,-10.93550656742857,12.491972309666668
10.88456083,-3.6936702775595243,-2.541182297357143,-10.003312931238094,11.544801633
10.89450683,-3.3947156107452385,-2.635988338466667,-9.195020792285714,10.713729393380952
10.90445283,-2.995842233207143,-2.6247393536095243,-8.580277644809522,10.049405896095237
10.91439883,-2.4513174076357145,-2.529538427085715,-8.122954211857142,9.470216579
10.92434483,-1.754500054492857,-2.3889722816571433,-7.780498160761903,8.90252900542857
10.93429083,-1.032113370254762,-2.2295679388000003,-7.476842924238094,8.368912580380952
10.94423683,-0.4164972336357143,-2.0969701143238098,-7.101454575128569,7.977424419428571
10.95418183,0.0923024129833333,-2.004213929514286,-6.588844409461903,7.806314363761904
10.96412783,0.5308185970309524,-1.8757309969047622,-5.932698854414285,7.77557564952381
10.97407383,0.8448801928880952,-1.6974074587619052,-5.175672011652379,7.810154289190476
10.98401983,0.9891001311261904,-1.5066869742380955,-4.289866787604761,7.984370585095239
10.99396583,1.0566164754214287,-1.3239396415714286,-3.19768280612857,8.435464583761906
11.00391183,1.125696897697619,-1.0965898174761908,-1.8920934126999989,9.158056886857143
11.01385783,1.1666633711119048,-0.7696542538095242,-0.530942189033332,9.948338626761904
11.02380383,1.0917846305404761,-0.3471708845238098,0.7499896633000012,10.65855966804762
11.03374983,0.9126992002071427,0.10806000399999978,2.0491628793476204,11.34362362
11.04369583,0.7208551592499999,0.48491922023809503,3.545052440204763,12.105312593285714
11.05364183,0.5320093129261905,0.7120913446190473,5.265076329680953,12.968059625238094
11.06358783,0.39008929343571425,0.7759407920857141,7.1003503712047635,13.87128330038095
11.07353383,0.3326716578880952,0.6694478514428569,9.061895591680955,14.876853049904764
11.08347883,0.39217245101666665,0.44132914639523774,11.236332365014286,16.093076644190475
11.09342483,0.5975761502666667,0.1886541890619045,13.481221571204763,17.41463346895238
11.10337083,0.9254845723095239,0.0013286188238092493,15.43741269082381,18.591354894761903
11.11331683,1.245500520104762,-0.07915538103333361,16.89942746572857,19.433573570142855
11.12326283,1.4787893889142858,-0.07596685255714314,17.862833038014287,19.909511525809524
11.13320883,1.6350061778666667,-0.05003137436666692,18.41216516582381,20.081719366142856
11.14315483,1.7302736652000001,-0.05006829536666692,18.606277327842857,20.111796485142857
11.15310083,1.753850766390476,-0.08634748412857168,18.396953355876192,20.236207162904762
11.16304683,1.7046855672952381,-0.13776177989047647,17.75689307344762,20.47350747133333
11.17299283,1.6173837557714286,-0.2266030684523812,16.74939576430476,20.807944296095236
11.18293883,1.5446087389619048,-0.3368964034285717,15.473060436257143,21.257614360380952
11.19288483,1.5438954970095238,-0.40979558306666697,13.873095727685717,21.78014705752381
11.20282983,1.538468437737524,-0.38770180911428603,11.84891619149524,22.254029658
11.21277583,1.4933243236518094,-0.33199690311428603,9.413431031971431,22.653988992285715
11.22272183,1.4518972079518095,-0.35166047678095264,6.841985634828573,23.06162415942857
11.23266783,1.5046558690470477,-0.5130871487809526,4.458427759590477,23.444600588
11.24261383,1.6539275788565715,-0.805991778161905,2.285207373876192,23.624828045142856
11.25255983,1.7904526299994283,-1.1178787005285717,0.1738367191142871,23.473819443238092
11.26250583,1.8464964099994288,-1.3746671810047622,-1.9269353280285704,23.006315130380955
11.27245183,1.7771976046660956,-1.5342811500285716,-3.965889608980951,22.345237265619048
11.28239783,1.610362080689905,-1.5483943238380955,-5.991179336599999,21.44962817895238
11.29234383,1.394479788118476,-1.419272864028572,-8.121305714933332,20.228992875142858
11.30228983,1.0945786171660952,-1.2203307070285716,-10.276973649790474,18.842695859285715
11.31223583,0.705679072023238,-1.0252440996000003,-12.177065635742856,17.61390612585714
11.32218183,0.32546971447561907,-0.8806170350285718,-13.627042274457143,16.740412882666668
11.33212683,0.019639209313714285,-0.7758453719809527,-14.619572521647617,16.242998664809523
11.34207283,-0.2115336635624762,-0.6739484055095242,-15.215451103409524,16.040866492857145
11.35201883,-0.39628725246723806,-0.5568632563428575,-15.47882431442857,15.983216250761902
11.36196483,-0.5758302830910476,-0.4381980833428575,-15.449192296142856,15.835294736857142
11.37191083,-0.7474535385577142,-0.34610598564761935,-15.158487389333331,15.494569192714286
11.38185683,-0.8830574861862857,-0.2958227084714289,-14.655583880238096,14.973986244666667
11.39180283,-0.9813446358029525,-0.30938621966190505,-13.986923975047617,14.304639000857142
11.40174883,-1.0729936572886667,-0.39051389005714315,-13.151067059380951,13.473449652238095
11.41169483,-1.1195203481404763,-0.5519610621333336,-12.180221573666666,12.500928609904761
11.42164083,-1.11209319395,-0.7603435488238097,-11.080804892523808,11.39013020895238
11.43158683,-1.0860237936642858,-0.9713781063133337,-9.928263890809522,10.22608492647619
11.44153283,-1.0587427945690475,-1.1310323967323814,-8.891427369333332,9.182475311
11.45147883,-1.0389253277119048,-1.1833389114657147,-8.076829815714284,8.368105993714286
11.46142383,-1.014442806045238,-1.1384322952561907,-7.478320460142855,7.772425855904761
11.47136983,-0.9329763834738094,-1.0214970871704765,-7.031181985714284,7.313923533476192
11.48131583,-0.8060699463785713,-0.8827565225047622,-6.647628417571427,6.896678154619048
11.49126183,-0.6829804498547618,-0.768072548119048,-6.238414928380951,6.454770001142857
11.50120783,-0.5948989190595237,-0.6898531748809527,-5.723957738714284,6.075112643142857
11.51115383,-0.5295080933261904,-0.6333313988809527,-5.097252134857142,5.902109040000001
11.52109979,-0.5099341978452381,-0.5874281769619051,-4.389686610857141,5.881870108523809
11.53104579,-0.5433129657261904,-0.539626938419048,-3.612250535238094,6.012632948
11.54099179,-0.6038116070880952,-0.49225361862095274,-2.7170495870952367,6.334769664428571
11.55093779,-0.7229772634499999,-0.46216396694952405,-1.7425650447142842,6.803934878190477
11.56088379,-0.928819392545238,-0.37947407887809553,-0.7821989942380938,7.328029845380952
11.57082979,-1.1933048553499999,-0.22021232106857172,0.10357924923809686,7.840328270095238
11.58077579,-1.5020494666452382,-0.022915163287619306,0.9889433148095254,8.39968441852381
11.59072079,-1.8101792292547618,0.11301658344095211,2.036413610476192,9.093590079428571
11.60066679,-2.0498400944000004,0.10378673960761879,3.3726545819523825,10.02736548847619
11.61061279,-2.2020957775809524,-0.08023531045428596,5.035119677714287,11.250186512809524
11.62055879,-2.2592256152761903,-0.4207911485685717,6.973928333904764,12.67031542847619
11.63050479,-2.2094046805666667,-0.8521719892590479,9.05733434514286,14.173217231333334
11.64045079,-2.0443984962809525,-1.2686382012457145,11.194967796761906,15.675390292380953
11.65039679,-1.7642263391380952,-1.6558904464933337,13.29232106052381,17.076270275952382
11.66034279,-1.4216638479952382,-1.986313905617143,15.245626440238095,18.264621288
11.67028879,-1.0386666911857143,-2.2449802159361907,16.927864981809527,19.17422819057143
11.68023479,-0.6634133361857143,-2.433200625974286,18.240702333095243,19.79257286252381
11.69018079,-0.32696858489999997,-2.545964064973334,19.109627759238098,20.149115995190478
11.70012679,-0.038381146280952315,-2.587603786120953,19.46317842852381,20.329087353761903
11.71007279,0.218627753352381,-2.5842423471209526,19.27750418857143,20.471126481000002
11.72001879,0.44585218942857147,-2.5671304356923814,18.628355216857145,20.68608239842857
11.72996479,0.6597204085666667,-2.5494970361780953,17.61048436214286,21.02415392142857
11.73990979,0.8765104117095238,-2.526177901614286,16.275957961428574,21.45706697704762
11.74985579,1.1129585172333334,-2.475211895874286,14.618414550476192,21.90885442847619
11.75980179,1.3869096755190478,-2.3628146370171432,12.687359663809527,22.41045186847619
11.76974779,1.688201356138095,-2.24465775068381,10.579149512857144,23.043776228000002
11.77969379,2.0244766356142856,-2.133079691969524,8.389036242857143,23.849778322285715
11.78963979,2.3956391463285716,-2.0551778503980955,6.103175318095238,24.703562270380953
11.79958579,2.718375636490476,-1.991150323874286,3.729714415238097,25.337907039428572
11.80953179,2.924379402785714,-1.9200562684457145,1.3136384476190492,25.479289228476187
11.81947779,2.9865204644047623,-1.8398228217790478,-1.1274369838095222,25.04674069133333
11.82942379,2.870407263452381,-1.7318308743504767,-3.5115469471428558,24.143145382761904
11.83936979,2.601543233266667,-1.5993273432076194,-5.770145312380952,22.958593643714284
11.84931579,2.2403464942190476,-1.4917848239219051,-7.909462901333331,21.640190330380953
11.85926179,1.827379635457143,-1.3786077048742862,-9.91399985838095,20.296452203809523
11.86920779,1.4177989966952382,-1.2709489095409527,-11.747521684190476,19.067265046190478
11.87915379,1.0346666647904763,-1.1652154073980956,-13.32219924595238,18.073061693761904
11.88909879,0.7112651565285715,-1.0649419864933338,-14.57910202095238,17.39752529009524
11.89904479,0.4751847399238095,-0.9716382552076194,-15.452909092523809,17.041424045857145
11.90899079,0.32252060787619047,-0.8803375328790479,-15.913009925095237,16.964121560666666
11.91893679,0.19554417125714288,-0.7915044365076195,-15.991467502761903,16.926920726285715
11.92888279,0.05677221611428575,-0.7148404922742861,-15.74658349390476,16.645418233285714
11.93882879,-0.07272924317142854,-0.6579584059933337,-15.23345916295238,16.117986754952383
11.94877479,-0.19146524053333328,-0.6239512364333337,-14.511873268619045,15.391488703666667
11.95872079,-0.3069095617714285,-0.6143395381142861,-13.646807032571427,14.52899500052381
11.96866679,-0.4402767614857142,-0.6391097775904765,-12.670686884714284,13.55383190852381
11.97861279,-0.5629625391190476,-0.714681079114286,-11.597561457285712,12.478265835142858
11.98855879,-0.6671467901857143,-0.83692575392381,-10.432572763476188,11.308539874380951
11.99850479,-0.7558828053895238,-0.9587983231142861,-9.192237071761904,10.065579036285714
12.00845079,-0.8011590735228571,-1.0171094375904766,-8.005593103571428,8.884359806142857
12.01839679,-0.8110515878704762,-0.9646465533523813,-7.037358455190475,7.925484172380953
12.02834279,-0.7583869764419047,-0.7859717924523812,-6.327916615476188,7.208280198523808
12.03828879,-0.6110327983466666,-0.5155774188761908,-5.86112319895238,6.674975793095238
12.04823379,-0.3926697897419047,-0.2032948244909527,-5.583600143857142,6.255691280904763
12.05817979,-0.15379528811333326,0.14705492582333302,-5.464493029238094,5.953037409238095
12.06812579,0.01467534707238102,0.5027178530614284,-5.452592469666665,5.801115683619047
12.07807179,0.08322125378666671,0.8219252910614282,-5.379638068619046,5.683061292142857
12.08801779,0.11720435579142861,1.0642951921090473,-5.055340462361904,5.478993019380952
12.09796379,0.1810947285485715,1.169940658875714,-4.3336135389333315,5.563204180571428
12.10790979,0.26796238782000004,1.115576327970952,-3.15175994402857,6.168539570999999
12.11785579,0.3513507692961906,0.8815613602614282,-1.5639333585047606,7.2904862453809525
12.12780179,0.4011331976295238,0.4503388155090474,0.32384347254285845,8.823253628619048
12.13774779,0.3786080035676191,-0.17160358362904796,2.4466926287809536,10.686734304142856
12.14769379,0.31628577401523816,-0.9221741258195241,4.759282485447621,12.796942359619049
12.15763979,0.26640288840571436,-1.700002528676667,7.148546463019049,14.982629498523812
12.16758579,0.2442223877057143,-2.419301834295715,9.433360819828572,16.98562643547619
12.17753179,0.26252090799142863,-3.0355034162480954,11.499420230542858,18.644402517476188
12.18747779,0.3115715155295239,-3.508881124629048,13.341004948828573,19.924567685142858
12.19742379,0.4362387718342858,-3.8426984852480954,14.918571675495238,20.824043261142858
12.20736979,0.6352304700857143,-4.055693241724287,16.18713198854286,21.393296590190477
12.21731479,0.8483208459619048,-4.171728806976667,17.1249261994,21.67410309747619
12.22726079,1.0825549206809524,-4.211205761371905,17.737019527780955,21.686347163190476
12.23720679,1.3264826800619047,-4.2035315275052385,18.053625650880953,21.55009502042857
12.24715279,1.5636086310142856,-4.174388747138572,18.10503328497619,21.549452418523806
12.25709879,1.779130477552381,-4.143267992933334,17.91929750997619,21.766861267428574
12.26704479,1.9550907138285714,-4.147818612876191,17.55360080954762,22.150708507666668
12.27699079,2.1287413904047616,-4.1814596284,17.042150619880953,22.660524933666665
12.28693679,2.3247589233095236,-4.202603494352381,16.29526234797619,23.38296340561905
12.29688279,2.495889575257143,-4.153297363495239,15.146477263480955,24.402071384142854
12.30682879,2.5667221296190474,-3.956945717880952,13.46265315219524,25.30069950852381
12.31677479,2.521381072238095,-3.615196358642858,11.190147824576192,25.810552604714285
12.32672079,2.3810357705571428,-3.1541964609761908,8.451130916004763,25.846192432809524
12.33666679,2.2086851736761908,-2.5920411804047623,5.474157278861906,25.393572192809522
12.34661279,2.073915540166667,-1.9430227201666668,2.4191128436238105,24.454689274238095
12.35655879,1.9170806465761905,-1.2789811685952384,-0.6324476539952371,23.092280034238094
12.36650479,1.7074759908809525,-0.6638233005952384,-3.565909430661903,21.484923141380953
12.37644979,1.479169778152381,-0.13468354359523832,-6.257520789709521,19.91294632757143
12.38639579,1.3150473448190478,0.30017651554761876,-8.652377378280951,18.57705829852381
12.39634179,1.1885287799904762,0.6222604669285711,-10.748537809709521,17.538750246142857
12.40628779,0.9992739975142858,0.8222282116714283,-12.541247907804761,16.839358619000002
12.41623379,0.7459401773238096,0.9335477712714283,-14.015935464471427,16.461966244714283
12.42617979,0.5024425084857145,0.9742520214380951,-15.144941534947618,16.360422353285713
12.43612579,0.2847177582809524,0.9688220046238092,-15.919512057423807,16.502076916095238
12.44607179,0.0942017696476191,0.9531092901523808,-16.396710482714283,16.78934572561905
12.45601779,-0.05962105779999994,0.9656025763999997,-16.654872627285712,16.98957094652381
12.46596379,-0.1979445419761904,1.0003591779999996,-16.748883909761904,17.053037125523808
12.47590979,-0.3190278379619047,1.051299358533333,-16.66383359642857,16.954388612190474
12.48585579,-0.4116070400571428,1.0847868289619045,-16.35937921233333,16.64597695504762
12.49580179,-0.48363637677142857,1.0641852087714283,-15.820851931666667,16.104894171428572
12.50574779,-0.5579736025809523,0.9624504364380949,-15.066390986523809,15.340765451666666
12.51569379,-0.6202563895333333,0.7879129843428568,-14.108332359142857,14.366067812095237
12.52563996,-0.6414579131999999,0.5836565783904759,-12.979772486952378,13.223252858999999
12.53558596,-0.6262186770142856,0.39687571106666636,-11.76400495738095,11.998066654857142
12.54553096,-0.5598864182523808,0.2846127832952378,-10.582545993571426,10.818002892142857
12.55547696,-0.44660787782380945,0.2629021481619045,-9.490393949066666,9.748024579700001
12.56542296,-0.2620327751333333,0.35002678210952354,-8.519380202495237,8.917728688509523
12.57536896,-0.05759410314285703,0.501289719433333,-7.702478289209523,8.292388913176191
12.58531496,0.09534708252380962,0.6677058762428569,-6.896392805876189,7.88112188322381
12.59526096,0.16096212114285724,0.7866117074142854,-5.896201509066666,7.7446839422238085
12.60520696,0.2376772911809525,0.8029129615238093,-4.609706309542855,7.927642060319049
12.61515296,0.3976598053238096,0.7162210702571427,-2.992054942876189,8.435635863652381
12.62509896,0.6128822535142858,0.5170436567523806,-1.1244275890666653,9.202307818890475
12.63504496,0.7967575349714286,0.23669767717142834,0.8304824895047632,10.1258678627
12.64499096,0.8921948630333334,-0.12201801171428596,2.809802967123811,11.170402817461904
12.65493696,0.9124609122266667,-0.5919446516761907,4.853887511504763,12.352464475509525
12.66488296,0.8605119582123809,-1.2088290355333335,7.03304101117143,13.692685730033334
12.67482896,0.7793919901504761,-1.9337468612000006,9.356380138314288,15.138481880509522
12.68477496,0.7388824279038095,-2.7144491843428575,11.691222575933335,16.5849346767
12.69472096,0.7712595399038097,-3.47029141624762,13.875935580409527,17.93756597812857
12.70466696,0.8731909666657144,-4.134973307676191,15.83026656164762,19.15038471365238
12.71461196,1.0512489577133333,-4.6788416580095245,17.51279490221905,20.17767956627143
12.72455796,1.288505900237143,-5.095984041342858,18.84669055531429,20.95480689774762
12.73450396,1.538934002284762,-5.399025438533334,19.756985951219047,21.449629758938094
12.74444996,1.7879668055419047,-5.6013505161142865,20.235659712552383,21.70894357365238
12.75439596,2.004104697994286,-5.766890377152381,20.344693411066665,21.87010141679524
12.76434196,2.1914062668514287,-5.922058969161905,20.12656372722857,22.165282904857143
12.77428796,2.3633935532561905,-6.083967570061906,19.59975964046667,22.58781344509524
12.78423396,2.5286595140276193,-6.2265386630999995,18.799719203847623,23.178879208999998
12.79417996,2.678738473741905,-6.343971796433333,17.668768489085714,23.88327302704762
12.80412596,2.812538924265714,-6.391009855009524,16.114463406561907,24.56496036995238
12.81407196,2.9102086148657142,-6.292975562690477,14.08252261037143,25.130925334714284
12.82401796,2.9404158530085716,-6.028913201595238,11.532626708942859,25.56695087185714
12.83396396,2.9027852752942858,-5.630332762595238,8.561549738466667,25.91888524852381
12.84390996,2.8512813361514286,-5.1880424096904765,5.457747988942859,26.15502606947619
12.85385596,2.8136656688323813,-4.736258433928572,2.4561038908476203,26.136132855190475
12.86380196,2.7547029448438094,-4.294180110422857,-0.40777590819999854,25.77415837804762
12.87374796,2.646074548877143,-3.828848177613333,-3.2236387067714274,25.082487434714285
12.88369296,2.431262209734286,-3.3442557391847623,-5.971787518199998,24.10814877804762
12.89363896,2.145272720347619,-2.8287546824704766,-8.522156877247618,22.945590958047617
12.90358496,1.8276420467285717,-2.314724492422857,-10.793450662009523,21.73582654233333
12.91353096,1.5145412737285717,-1.8399490696133338,-12.7856180012,20.583922359
12.92347696,1.1939266475857144,-1.4258943084704765,-14.51554640562857,19.604955368714286
12.93342296,0.8598916173952382,-1.0854537614419049,-15.938736754485713,18.909014242285714
12.94336896,0.49365894296666674,-0.8426298624266669,-16.944768584438094,18.501936285238095
12.95331496,0.15069249972857152,-0.6924685718314288,-17.479118001819046,18.294522433714285
12.96326096,-0.12073968499523799,-0.5718304404028574,-17.582226382619044,18.12036727938095
12.97320696,-0.37454035666190466,-0.4660896361600002,-17.327367719942856,17.848865680476187
12.98315296,-0.6284314791380952,-0.3428320008457145,-16.751717246609523,17.487309492809523
12.99309896,-0.8113125111904761,-0.22044509250285743,-15.918594015609523,16.929060179761905
13.00304496,-0.9297467992171426,-0.1034720723885717,-14.889794798704761,16.121952244809524
13.01299096,-0.9985171345790474,-0.0029537227457145506,-13.7437564299,15.09097719952381
13.02293696,-1.0583530845314284,0.04345026796857116,-12.545371280566664,13.947625112333334
13.03288296,-1.2098084300838094,-0.006681406221905025,-11.3094557219,12.718010910571428
13.04282796,-1.4386777853695238,-0.11973466869809547,-10.020377863185715,11.436676752619046
13.05277396,-1.650506822845714,-0.216019641174286,-8.759473754899998,10.188184746809522
13.06271996,-1.7799862506219046,-0.26744479603142884,-7.666556254138094,9.107266462619046
13.07266596,-1.8174017830980953,-0.21814177844666693,-6.788277204185714,8.24157695495238
13.08261196,-1.7709270271933333,-0.08674504170857167,-6.086467539995237,7.539202537809524
13.09255796,-1.6001408423838093,0.13073687850095214,-5.5793709367095214,6.992442571714285
13.10250396,-1.4044941900028571,0.4053012147866665,-5.297327259614285,6.653118679857143
13.11244996,-1.2555514208599998,0.7103837705485713,-5.178186398185713,6.500616638571429
13.12239596,-1.1770489170980951,1.002645930167619,-5.080365960804761,6.416410449714285
13.13234196,-1.126434301155238,1.212201535358095,-4.734456293709523,6.154091549428572
13.14228796,-1.039237544598095,1.2650537066914285,-3.92520184232857,6.142910286904761
13.15223396,-0.9216714115028571,1.1452201138666664,-2.6717303247571413,6.69991443252381
13.16217996,-0.9082786564266666,0.8726361703666664,-1.1117021544714274,7.819181788238096
13.17212596,-1.0195425595599998,0.5184410335095236,0.6336731182904772,9.410850066428571
13.18207196,-1.1210361968933331,0.053435479980952175,2.440468908280953,11.255752073523809
13.19201796,-1.175215668750476,-0.5398366356666668,4.363550726566667,13.251525217857145
13.20196296,-1.1401864476590475,-1.2586379534380954,6.491801652233333,15.485587144238096
13.21190896,-0.9935178068704761,-2.0532849392666668,8.792205048185716,17.903482689190476
13.22185496,-0.8076057313657142,-2.808754919219048,11.093318045571428,20.254276494952382
13.23180096,-0.5897149898419046,-3.4867042818380956,13.146259228142856,22.151591010714284
13.24174696,-0.27432217790857133,-3.9842130246000007,14.93562354947619,23.48770587485714
13.25169296,0.14912657366285723,-4.327395223171429,16.440938849809523,24.286970407571427
13.26163896,0.5463996309485715,-4.55206066012381,17.570944515333334,24.62093567004762
13.27158496,0.82592001152,-4.690066915457144,18.294484994428572,24.55260732152381
13.28153096,0.9680735368057144,-4.798123063928572,18.65648792532381,24.22318764542857
13.29147696,1.0169495283771428,-4.886606792666667,18.687820007609524,24.186233831952382
13.30142296,1.0411729974723811,-4.95969858934762,18.43179727575238,24.433577339952382
13.31136896,1.048850614377143,-5.043180014642858,17.947477136752383,24.902488575142858
13.32131496,1.04390198352,-5.135966103738095,17.263725790561903,25.558050620714283
13.33126096,1.055239386615238,-5.180341514357143,16.361264354752382,26.42037228004762
13.34120696,1.09684934612,-5.096893672261905,15.081069780657144,27.62481482061905
13.35115196,1.092139511367619,-4.8128753071000006,13.252928869085714,28.689427428619048
13.36109796,1.044132837177143,-4.3360375158142865,10.862821221942857,29.30651457861905
13.37104396,1.016373396672381,-3.7695666977190476,8.170136982419049,29.345324307190474
13.38098996,1.0229650742438094,-3.2822616943380956,5.491386601942857,28.699407607666664
13.39093596,0.9938582333390478,-2.8443069231571436,3.1002808071809524,27.380866783857144
13.40088196,0.9441142573866669,-2.397842298776191,0.9549134104666673,25.494848477666665
13.41082796,0.795565138109524,-1.9286327572047621,-1.1893956121523803,23.42182375195238
13.42077396,0.5008575615380954,-1.3938603357285717,-3.4428909734857136,21.202201492619047
13.43071996,0.11972302830000012,-0.8830855831095241,-5.751231268638095,18.99045961390476
13.44066596,-0.2718611336523808,-0.40681782591904797,-7.838137256304761,17.125146766619046
13.45061196,-0.6344796788904761,-0.04431375733333368,-9.594617922733331,15.745013769238096
13.46055796,-0.9956162542857141,0.2178146789428568,-11.00938942278095,14.833105135380952
13.47050396,-1.304919956842857,0.39797665129523774,-12.051310348495239,14.390141088142855
13.48044996,-1.4979899640190475,0.5346273410571425,-12.716009572542857,14.388631671333334
13.49039496,-1.5590158850190474,0.6625265100571425,-13.05300092710476,14.684998669619047
13.50034096,-1.5395737955047617,0.7900202581999997,-13.091334019914283,14.72210342638095
13.51028696,-1.514971266695238,0.8914761288142854,-12.864438441009522,14.499425449904761
13.52023296,-1.4738513282380952,0.9647748855857139,-12.408067825771427,14.048476867190475
13.53017979,-1.4252540957047617,0.9940023392047614,-11.764791073390475,13.40984020242857
13.54012579,-1.4208770371333332,0.9586211644904759,-11.013891304819046,12.662923464809523
13.55007179,-1.4912710746761904,0.8376565913476187,-10.234044366247618,11.877133602904761
13.56001779,-1.5938098740047617,0.6213312538238092,-9.44563470958095,11.064104678142858
13.56996379,-1.687086447052381,0.3733051322523806,-8.635737092438095,10.225666167666667
13.57990979,-1.721549608957143,0.18270881749047585,-7.960627819580951,9.53327064052381
13.58985579,-1.7330995165761902,0.13530947058571394,-7.611496921485713,9.18744325909524
13.59980179,-1.7404449420047616,0.22962945491428538,-7.692638844342856,9.266952919095237
13.60974779,-1.787110651290476,0.398189869228571,-8.161792391914284,9.621014447666667
13.61969379,-1.8652451980999998,0.6274578654190472,-8.773278667866666,9.835804498619048
13.62963979,-1.8980835370999998,0.8275603536761903,-9.306586584723808,9.93415933152381
13.63958579,-1.8882556345285713,0.9678362405619044,-9.587049926285712,9.998369134857143
13.64953079,-1.867905368052381,1.0358363201428569,-9.59029050885714,9.966327574904762
13.65947679,-1.8415837509095236,1.066196884106714,-9.398130286661903,9.778648816338094
13.66942279,-1.8153636455999997,1.107905856449571,-9.08507943775238,9.554417751385714
13.67936879,-1.817815334395238,1.1969782605733805,-8.649934159609522,9.392424489480952
13.68931479,-1.8278023508857142,1.2940488551924283,-7.97484693927619,9.386792676671428
13.69926079,-1.7808235928190475,1.2992919630019522,-6.831892419847618,9.772155388814285
13.70920679,-1.6621175484761903,1.15285663309719,-5.144654007799999,10.6456889441
13.71915279,-1.503350740095238,0.8823151185257616,-3.0404306557523793,11.876846214385713
