Time (s),Linear Acceleration x (m/s^2),Linear Acceleration y (m/s^2),Linear Acceleration z (m/s^2),Absolute acceleration (m/s^2)
0.2069399167,0.1734160988155238,-0.1719142937104762,-0.40916144908047625,0.8184817289285714
0.2168849166,0.16390215165361904,-0.22704735595238096,-0.47106277483285713,0.8321510856714286
0.2268299166,0.15528649865838093,-0.28745389672857147,-0.5181261504614285,0.8628152209761905
0.2367749166,0.15337522832980952,-0.3480686958142857,-0.5627914715714286,0.9055565153714286
0.2467199166,0.15945886465838094,-0.40810162733809524,-0.6210316328666666,0.9618328973
0.2566649166,0.1698149674917143,-0.4671800565952381,-0.6987607309857142,1.0353734963333334
0.2666099166,0.1798404590107619,-0.5248619340809524,-0.7945703109,1.124281223690476
0.2765559166,0.1927094689012381,-0.5775050152428571,-0.8980084467809524,1.2221847017047618
0.2865009166,0.2124880795821905,-0.6220121970142858,-0.996923566452381,1.3193911945380952
0.2964459166,0.24133441133457142,-0.658842123852381,-1.0770165546142858,1.4030668289285715
0.3063909166,0.26822502522028574,-0.6787733050952381,-1.139812504347619,1.4709822866333333
0.3163359166,0.29189749867457143,-0.6871653542952382,-1.1814635022380953,1.5181277576428573
0.3262809166,0.31748182021742855,-0.6845116790000001,-1.1782326649952382,1.5257699338238093
0.3362259166,0.3433755917250476,-0.6591357515238097,-1.111838505795238,1.5451123283000001
0.3461709166,0.3570446851817143,-0.6081717540238095,-0.9566113859428571,1.6440401494714283
0.3561159166,0.35184251834790475,-0.5246261102761904,-0.6845643038428572,1.8604044966714284
0.3660609166,0.3203177772302857,-0.4139694335285715,-0.31128749568571434,2.176512579161905
0.3760059166,0.2671826633312381,-0.2906840378476191,0.08522720557142856,2.513005114347619
0.3859509167,0.1949529863888571,-0.14454633119047616,0.4030489369904762,2.780688689252381
0.3958959167,0.11492138875428569,0.06044369844285715,0.6125528082666667,2.9860181936333334
0.4058409167,0.11143212459233333,0.3099718304904762,0.7285439137761904,3.154979631157143
0.4157869166,0.18045359092090477,0.5927221294904762,0.8019411996095238,3.3501115869190476
0.4257319167,0.2598768466875714,0.8757856164428571,0.8951144370619049,3.5474355879666666
0.4356769167,0.37838116904947616,1.0888085927285713,1.0934798080380954,3.7549553444904764
0.4456219167,0.599429128606619,1.1646807404428572,1.4633417030714286,4.0937817568714285
0.4555669167,0.8692329681828096,1.1252609704,1.9246513778809524,4.505840207014286
0.4655119167,1.1440005996209048,1.0095003287142856,2.3808981157380953,4.889545821252382
0.4754569167,1.3552058958113808,0.8517899938619047,2.7655435260714287,5.163293627966667
0.4854019167,1.5234106880256666,0.6792395648952381,3.010254819309524,5.326420510776191
0.4953469167,1.7123090026685237,0.5057244567047618,3.1518007910190473,5.484992943442857
0.5052919167,1.8661975556399524,0.4316059168047619,3.283623650557143,5.579019304252381
0.5152369167,2.057613444692333,0.3687361529333334,3.389339304780952,5.7161587465380945
0.5251819167,2.1899322246875714,0.31026923103809523,3.473523450519047,5.813716532014285
0.5351269167,2.2129785327161424,0.25862894737142855,3.542783580704762,5.864758373952381
0.5450719167,2.143238135559,0.166616605,3.5465222903904765,5.919948886285714
0.5550179167,1.992116940997095,0.05845490733333335,3.4583378694857148,5.952742490904762
0.5649629167,1.8096310449875714,-0.07982815099999999,3.2358000254761907,5.908286103047619
0.5749079167,1.6369806843304284,-0.2537581748095238,2.8112665806190478,5.791381900476191
0.5848529167,1.3441750120923333,-0.4471767456666667,2.265830202,5.812473567666667
0.5947979167,1.0009173496637618,-0.6841930056666666,1.7133006217142859,6.003409136380952
0.6047429167,0.6719725295209047,-1.0183287332380953,1.1559231149523812,6.326057278571429
0.6146879166,0.14411635222857141,-1.4290546466190477,0.6250858416190477,6.820516396047618
0.6246329166,-0.42515608977142855,-1.9033150827142857,0.07900192557142864,7.3090217232380965
0.6345779166,-0.9857372999142856,-2.3998144568095237,-0.4598622383809524,7.767373068047618
0.6445229166,-1.5375290729619044,-2.8110855117142854,-1.068514174095238,8.15479128709524
0.6544679166,-2.1898218697714285,-3.0961304112380956,-1.7779654251428572,8.367098804190475
0.6644129166,-2.913206952152381,-3.2763943757142857,-2.5170583005714287,8.480546899428571
0.6743579166,-3.5758659156285715,-3.4187507576190477,-3.1778190907619046,8.543181784190475
0.684304,-4.236470529485715,-3.430350297,-3.6638916263809524,8.657994491666667
0.694249,-4.9137159291523815,-3.376318237619048,-3.8928427661428575,8.870750171904762
0.704194,-5.523637016914286,-3.3689067247142863,-3.9068103582238094,9.005667673000001
0.714139,-6.060489098247619,-3.4274683018571426,-3.809790126238095,9.181727970904763
0.724084,-6.528029426866667,-3.503712276809524,-3.593102588557143,9.307120164190476
0.734029,-6.928139219009523,-3.5168251312380954,-3.2997236664857144,9.529738250904762
0.743974,-7.26699122724762,-3.4737705788333333,-2.9549443775428568,9.927241779000001
0.753919,-7.473869796142857,-3.3945146474271426,-2.6178460746190475,10.280860897952381
0.763864,-7.5637470555714295,-3.289910521060476,-2.352853686047619,10.498551332285714
0.773809,-7.572446417714286,-3.1685183006795237,-2.135791174752381,10.605336835904762
0.783754,-7.557196976761905,-3.0129561075366667,-1.864745358752381,10.643780461
0.793699,-7.449648331761905,-2.814382714917619,-1.5633561828000002,10.525064341714286
0.803644,-7.245225273238096,-2.623732383012857,-1.2399095691333333,10.244083787904762
0.81359,-7.020737800428572,-2.4159854608223807,-0.8320478447000001,9.854808881380952
0.823535,-6.645377351047618,-2.193811898360476,-0.3464994005571428,9.298114755095238
0.83348,-6.250057486428571,-1.9633523997128572,0.21387199206190483,8.678469427238095
0.843425,-5.821475485090476,-1.7187855327176191,0.7343423469666668,8.035375389761905
0.85337,-5.329310526614286,-1.497346589331905,1.1936552254714285,7.4606081056190465
0.863315,-4.777716528709524,-1.183064038379524,1.5778799704204762,6.992872926047619
0.87326,-4.131583467328572,-0.7463173053319048,1.9354528836538094,6.66204083952381
0.883205,-3.293838875519048,-0.2619966789985714,2.3037820285109527,6.624915912380953
0.89315,-2.1894626421380954,0.18152873119190474,2.7313777577014284,6.859721403333333
0.903095,-0.9120374769000004,0.5827297809061904,3.2115383685109524,7.256070133809524
0.91304,0.2622331428142856,1.0140175951919048,3.681767594882381,7.768742564142857
0.922985,1.2992827257190476,1.3865831730966665,4.045966405739524,8.247096887809525
0.93293,2.183230595719048,1.7454315032871428,4.27201734045381,8.69656356752381
0.942875,3.1562339546238096,2.0590511749061906,4.465293796025238,9.217708872904762
0.952821,4.370946284338094,2.304285947072857,4.740167450168095,9.89496003195238
0.962766,5.644602306861905,2.4790473614285715,5.179660857072856,10.759329305142858
0.972711,6.854457716528572,2.538552115347619,5.726054842787143,11.677735754714286
0.982656,7.933832258338095,2.526398482709524,6.225264081072858,12.512332753380953
0.992601,8.876536180957142,2.4891510785857145,6.578300334453809,13.16259394342857
1.002546,9.713059289814286,2.438006840680952,6.766280841596666,13.552714873047618
1.012491,10.3883254071,2.4356272814428572,6.78826976940619,13.79907812457143
1.022436,10.971992385195238,2.570664703490476,6.671870611782382,14.049730565714285
1.032381,11.608222518671429,2.9320280046952383,6.3580095336871425,14.557307108666665
1.042326,12.16300681314762,3.2696906057142856,5.769603749163333,15.204808626047619
1.052271,12.453589206904761,3.5360075278619045,5.154312634163333,15.79400041209524
1.062216,12.381142566939905,3.70104182052381,4.6352214424680955,16.227908091476188
1.072161,12.08274353174943,3.7362259162857145,4.198759232138095,16.549608032190477
1.082107,11.580378244797046,3.5763938635380956,3.766720162,16.779157811095235
1.092052,10.722067157844666,3.3551638954666667,3.263393203,16.84218382490476
1.101997,9.640233639273239,3.113389115686809,2.5785076921428565,16.71405103395238
1.111942,8.431315789035143,2.869643037629667,1.6246891031428572,16.522692792047618
1.121887,7.21161194170181,2.6276494188629997,0.5240362653333333,16.347003277761903
1.131832,5.987110258844666,2.3325098026725235,-0.5904001584761905,16.30699555252381
1.141777,4.820630608844667,2.053161754863,-1.6693479927142856,16.31177982728571
1.151722,3.586067260273238,1.7457503227201427,-2.7066718374761907,16.131941342047618
1.161667,2.2036337866065714,1.4299953245296666,-3.8334832807619046,15.625117884904764
1.171612,0.7563145681779998,1.1704644441963334,-5.04415401504762,14.886339035380953
1.181557,-0.6245871577743812,0.9973582443391904,-6.23905363952381,14.118747761095237
1.191502,-1.9017318796791431,0.8821411848820475,-7.278416352809524,13.473648624904762
1.201448,-3.0687528426791433,0.7602712817677618,-8.073782024095237,13.039235679666666
1.211393,-4.0920258007743815,0.6078991484820475,-8.585930454619048,12.84770042109524
1.221338,-4.981097697250571,0.4413155733868095,-8.820668876095239,12.838284947190475
1.231283,-5.800504223679143,0.16488386614871423,-8.832480418809524,12.840589986190475
1.241228,-6.70157619386962,-0.30631912351795243,-8.586070620819047,12.601508576333334
1.251173,-7.560508478060096,-0.6959804425179524,-7.984707921533333,12.249767497619048
1.261118,-8.167817976583905,-0.9626581587560478,-7.250017707057142,11.987639034619047
1.271063,-8.478326066333333,-1.081354666527476,-6.5189659503428565,11.860952028380954
1.281008,-8.592867062333333,-1.1125882650512857,-5.813369629390476,11.777784811190477
1.290953,-8.559454624190478,-1.028055889779857,-5.113841520961905,11.65628746252381
1.300898,-8.43071157661905,-0.8705312109465237,-4.4338942342,11.44605917109524
1.310843,-8.282698027523809,-0.7258115794047619,-3.7626067017714284,11.16803396042857
1.320788,-8.102440091238096,-0.5604442808238096,-3.000975176485714,10.783859344190475
1.330734,-7.844744582285714,-0.34650439153333334,-2.204092222390476,10.334631368428571
1.340679,-7.400427890619048,-0.019326432914285728,-1.3984396556761904,9.818379659428572
1.350624,-6.8415143483190475,0.3506285511809524,-0.557224184342857,9.369547897238094
1.360569,-6.1582032974142855,0.7610256561333334,0.24104454603809536,9.094938234619047
1.370514,-5.384997710128571,1.2034213355142858,0.9888947128476192,8.995708380809523
1.380459,-4.544469592890476,1.6662760953238096,1.6735010610380954,9.044781695095239
1.390404,-3.666955497890476,2.152899229847619,2.3285732621809525,9.206091465095238
1.400349,-2.733904938366667,2.6486793128952377,2.9739237433714285,9.458764507952381
1.410294,-1.7038383510809527,3.177649382371429,3.6619056335142854,9.83333273557143
1.420239,-0.6119544987000003,3.7296273961809523,4.410516968466667,10.318257045571428
1.430184,0.48992299682380935,4.285110349371428,5.243464811085714,10.911792542238095
1.440129,1.6389606535380952,4.802808226085714,6.2405101387999995,11.700336392904761
1.450074,2.844190024680952,5.214625334323809,7.474998030142857,12.753987499904762
1.46002,4.071564889776191,5.465382704228571,8.92191235657143,14.084651854333336
1.469965,5.286202096919047,5.521397603180953,10.453804630190476,15.593877307809525
1.47991,6.401839455442857,5.42954761152381,11.973762611095237,17.136270329761906
1.489855,7.421720749585714,5.183126376666666,13.281283618190477,18.502223785333335
1.4998,8.295039300395239,4.875352194380953,14.18561393552381,19.466323030190477
1.509745,9.068189924061906,4.539339468809524,14.641380171571427,19.99119506209524
1.51969,9.878212254014285,4.270965607571428,14.663111654809521,20.255519229904763
1.529635,10.692885292252381,4.020614173619047,14.222392922095239,20.56659351947619
1.53958,11.33133912177619,3.6995437152857145,13.406716849428573,21.055167455238095
1.549525,11.686683661157142,3.2161812945238095,12.364623653190476,21.681970521380954
1.55947,11.696708127671428,2.537880834285714,11.212171473285716,22.323946485952384
1.569415,11.37008575200476,1.6775468054285716,9.996678066714285,22.958344033809524
1.579361,10.774261632909523,0.6898509527142856,8.744803952714287,23.588922798571428
1.589306,9.980132313480953,-0.3542478104761905,7.445423299761906,24.221084766666667
1.599251,9.0635347051,-1.4178483741904762,6.053215620238096,24.867541196666668
1.609196,8.0803334401,-2.484222189047619,4.540308712809524,25.521973085714286
1.619141,6.968913344385715,-3.5916860590000006,2.860457951571429,26.151172997142858
1.629086,5.858055889766667,-4.696033975428572,1.0763215420476193,26.65378159047619
1.639031,4.7324195977666665,-5.807531588523809,-0.8292481155714283,27.059249072857142
1.648976,3.569011434052381,-6.876446826095239,-2.8923664327142853,27.22952793
1.658921,2.4084612502904763,-7.830163422714286,-5.103186419380951,26.98780327857143
1.668866,1.2269116268142857,-8.647023069190476,-7.395613488904762,26.29586924190476
1.678811,0.07948465524285711,-9.306451084047618,-9.702279921285715,25.30436323238095
1.688756542,-0.9241963436142856,-9.83052594095238,-11.915439963666666,24.15425695142857
1.698701542,-1.7988161224714285,-10.186846060666667,-13.86925664042857,23.070555061904763
1.708647542,-2.4862509637571426,-10.459778021190477,-15.398192241761906,22.315215762857143
1.718592542,-3.028592522752381,-10.67105919547619,-16.435539921190475,21.961183306190474
1.728537542,-3.588208538462952,-10.898137513809523,-16.963540877285713,21.82233808095238
1.738482542,-4.1681953625486665,-11.123693941095238,-16.985964587333335,21.59439416019048
1.748427542,-4.643482639296286,-11.29627843709524,-16.60357216461905,21.176754292047615
1.758372542,-4.950667143810572,-11.320212260238096,-15.963516531904762,20.582834908333332
1.768317542,-5.075729369101047,-11.16442919552381,-15.193724604809523,19.86174480638095
1.778262542,-5.030004727434381,-10.82084283604762,-14.314733140857143,18.98196036252381
1.788207542,-4.860476849529619,-10.292483981619048,-13.321330572695237,17.946913767619048
1.798152542,-4.614672600291524,-9.667296099109524,-12.231591479028571,16.847048863380955
1.808097542,-4.304025179720095,-8.972745795109523,-11.070924350838094,15.660220078333333
1.818042542,-3.981531829339143,-8.20809090434762,-9.904707323990001,14.412855369714284
1.827988542,-3.604107173672476,-7.365409647157143,-8.746398155418571,13.135394033809524
1.837933542,-3.271688453101048,-6.475995688442858,-7.6443740616090485,11.948559036190476
1.847878542,-2.9364316889581907,-5.5243566633476195,-6.572162108561429,10.824931123904761
1.857823542,-2.587260639862952,-4.527182919395238,-5.575346771180476,9.806730316523808
1.867768542,-2.260836150667714,-3.502743664728571,-4.762212525180476,8.995878489904761
1.877713542,-1.9387518269058097,-2.4726339751095234,-4.1724441726090475,8.381436146285713
1.887658542,-1.6648180432105715,-1.4507953392047617,-3.6376299918947614,7.866150354952381
1.897603542,-1.4194579874772382,-0.4373835436333334,-3.085074405466191,7.511877578952381
1.907548542,-1.059249316477238,0.5462731084142858,-2.4372295299423805,7.408823090380952
1.917493542,-0.4306142428105715,1.4944510272714286,-1.5968436114661901,7.695129936571429
1.927438542,0.5530060447560952,2.392453598890476,-0.47828361965666655,8.480070888
1.937383542,1.7686436266571428,3.1917981613666666,0.8657572031528573,9.661955393238095
1.947329542,3.039620872647619,3.8363266353666665,2.2709095320576194,10.968497928285714
1.957274542,4.339466128728572,4.333014456938095,3.656889704105238,12.293750543571429
1.967219542,5.772775501719048,4.7071794850333335,5.038390547105238,13.757696204428571
1.977164542,7.375244433909524,4.968889149300001,6.430330952867143,15.421937442095238
1.987109542,9.057281023671429,5.106093368490476,7.778755990343334,17.235692249761904
1.997054542,10.825882606004763,5.087513054157143,9.066182623133809,19.20330376133333
2.006999542,12.604597309766667,4.9771487868857145,10.420023574229049,21.230180606047618
2.016944542,14.268597884242856,4.808229450980953,11.901157769848096,23.269541338238096
2.026889542,15.884495142195238,4.6176136246,13.412080855857141,25.22872032542857
2.036834542,17.438105492242855,4.436811173304762,14.758190061571426,26.918838772761905
2.046779542,18.82750419724286,4.224768997866667,15.770813290619046,28.18492633466667
2.056724542,20.02608052271905,3.952047940628571,16.322168415857146,29.000989039333334
2.066670542,20.94512391019524,3.557903965152381,16.348372615333332,29.463969630047618
2.076615542,21.47049991190476,2.9971268872000003,15.949748377904763,29.808305329047617
2.086560542,21.647648493809523,2.292969927961905,15.351303703904762,30.21343779314286
2.096505542,21.584049554304762,1.5091049501047618,14.69495386509524,30.637496183047624
2.106450542,21.341527876285713,0.6193595379142857,14.006591739142856,30.997608619999998
2.116395542,20.84574808557143,-0.3789907769904763,13.196364868,31.246855185238093
2.126340542,19.955511590761905,-1.438302157752381,12.09865214942857,31.270958133809525
2.136285542,18.555366037809524,-2.5130384372761903,10.580984995619048,30.99074272380952
2.146230542,16.872306937190476,-3.544896638990476,8.737731231333333,30.44285562095238
2.156175542,15.174133173714287,-4.442508533180952,6.803778408952381,29.79429275952381
2.166120542,13.423445232190474,-5.212128955752381,4.9125484627619045,29.13883272142857
2.176065542,11.543208552666666,-5.8812099438,3.0695996441904763,28.336875998571426
2.186011542,9.551533799571429,-6.464136079495238,1.2383899746666667,27.322546107142855
2.195956542,7.488994858142857,-6.967155990066668,-0.5750512320000001,26.195567082380958
2.205901542,5.355498785380952,-7.3631773949238095,-2.3971592367619046,24.941833605714287
2.215846542,3.286080539095238,-7.697167680161904,-4.308093798380952,23.55045396
2.225791542,1.4100929479047617,-8.020784225019046,-6.273877999523809,22.05846538
2.235736542,-0.383306926904762,-8.393493602685714,-8.12686403652381,20.58031201952381
2.245681542,-2.1296056697619052,-8.842716442342859,-9.679050561619047,19.29874162142857
2.255626542,-3.726480069714286,-9.335195702761904,-10.794671297095238,18.371352585714288
2.265571542,-5.124127775714286,-9.848170693,-11.407228087,17.843644578095237
2.275516542,-6.269458158333334,-10.300725986238096,-11.455051196904762,17.62099532857143
2.285461542,-7.056977423190476,-10.634003440095237,-11.034095245619048,17.462694664761905
2.295407542,-7.476055499428572,-10.837138635714286,-10.410971367761904,17.215072174761904
2.305352542,-7.653914183952382,-10.950519933761905,-9.847207726809524,16.976880715238096
2.315297542,-7.716204516619047,-10.980107958571429,-9.451231554333333,16.791441883333334
2.325242542,-7.726190391523811,-10.925586403809525,-9.152123084904762,16.593228700476192
2.335187542,-7.693444730904761,-10.831702562380952,-8.794333908333332,16.31514607
2.345132542,-7.558890971047619,-10.730334229523809,-8.332053762571428,15.912900854761904
2.355077542,-7.402438163428572,-10.643063589523809,-7.841997700047618,15.47669153095238
2.365022542,-7.256150322571428,-10.566618428571427,-7.381234684,15.058492738571427
2.374967542,-7.0225379356666675,-10.467956632666667,-6.997951730571428,14.641882287619048
2.384912542,-6.742111375666665,-10.356195653761906,-6.709670048904762,14.263805794285712
2.394858542,-6.453207578285715,-10.233480166904762,-6.470967382190476,13.911537048095237
2.404803542,-6.121238146761905,-10.08686120657143,-6.202456835238094,13.511108198095238
2.414748542,-5.808640512714286,-9.944547217238096,-5.838900327142857,13.077439067190477
2.424693542,-5.5499600541904766,-9.772218606380953,-5.425230104,12.638490469238093
2.434638542,-5.359846496714286,-9.526675198666666,-5.060249269714285,12.203538563190477
2.444583542,-5.238034627238095,-9.14819436852381,-4.8064999352380955,11.773645378761904
2.454528542,-5.181165610190476,-8.600016091238095,-4.615157822047619,11.430437673285715
2.464473542,-5.221395679,-7.8255535473333335,-4.337949569747619,11.274840388571429
2.474418542,-5.230407491285714,-6.77521942447619,-3.852277721509524,11.338343113333334
2.484363542,-4.823248713571428,-5.440725434,-3.0593484179857144,11.744600812857144
2.494309542,-3.6584769515714286,-3.865326158761905,-1.9237604154619046,12.809499336666667
2.504254542,-1.8439696584761904,-1.975076595428572,-0.30064048189047604,14.75202940904762
2.514199542,0.28549189152380994,-0.0009514530476192276,1.6332279176333337,17.133816238571427
2.524144542,2.3779234143809527,1.8861514169523808,3.614756638014286,19.439392459047617
2.534089542,4.233229487380953,3.5809219893333326,5.490116962395239,21.389192064761904
2.544034542,5.896408054904762,5.065711529809524,7.128341729633335,22.947832483333332
2.553979542,7.499883042285714,6.401535288380953,8.422976921490477,24.156019236666666
2.563924542,8.946664595285714,7.574320743142858,9.349641514204762,24.938499703809526
2.573869542,10.028726127428573,8.480032868714286,9.892534771728572,25.20886014857143
2.583814542,10.752524970142858,9.11371623342857,10.064625901919047,25.13497241809524
2.593760542,11.173226010714286,9.51938525197619,9.97979357834762,25.03982693095238
2.603705542,11.298744068190476,9.70625909002381,9.744472551633335,25.100974728571426
2.613650542,11.186538895571429,9.679513118119047,9.372114563728573,25.41096127952381
2.623595542,10.938473026857142,9.488738129261904,8.869859705633335,25.930119182333335
2.633540542,10.564553387,9.149463604119047,8.263276306014287,26.646485424095236
2.643485542,10.042769719761905,8.662984366976191,7.5625299443000005,27.60145884538095
2.653430542,9.439140403190477,8.02563886345238,6.807550211585713,28.74154047838095
2.663375542,8.873861442333334,7.244117227071429,6.006097393966668,29.858150991952378
2.673320542,8.491416200142858,6.281212287928572,5.111744375714286,30.70434074857143
2.68326525,8.211854443666667,5.127474722690476,4.100872916714286,31.13990708095238
2.69321125,7.622826710476191,3.763561608404762,2.905502007190477,31.045569875238098
2.70315625,6.333890549238095,2.2015188217380954,1.513466291571429,30.143277827619052
2.71310125,4.419264166952381,0.35096464135714295,-0.21914773914285673,28.258186086666665
2.72304625,2.2579036331904767,-1.5372371986428568,-2.1177760419523803,25.81207654619048
2.73299125,0.2136506335238098,-3.2676995934047617,-3.9244307334,23.31277081252381
2.74293625,-1.5580015526190476,-4.756964926738096,-5.554990302119047,21.09537805457143
2.75288125,-3.142564862571428,-6.019580487119048,-6.959104068080953,19.25833264947619
2.76282625,-4.68616956847619,-7.124790979261904,-8.01955959562381,17.768785688047622
2.77277125,-6.069892464714285,-8.054998761785715,-8.682088695290476,16.67655811152381
2.78271725,-7.1144232812380945,-8.733367161119048,-8.920125336195238,16.097495876761904
2.79266225,-7.827035815666666,-9.161105409214285,-8.721392314580951,15.85946942942857
2.80260725,-8.232976701904763,-9.35330477990476,-8.202947866728572,15.61933688704762
2.81255225,-8.363840172571429,-9.321098483190477,-7.528667986966665,15.254472465095237
2.82249725,-8.314661218619047,-9.105494211809523,-6.7927748471095235,14.750505871190477
2.83244225,-8.145820889761904,-8.74960649404762,-6.048170107728572,14.132990154761908
2.84238725,-7.890006068190476,-8.29045825647619,-5.287169552919047,13.413517486666668
2.85233225,-7.532917555142857,-7.7706266404761895,-4.464579482252381,12.565765330238097
2.86227725,-7.066695773809525,-7.2328992590476195,-3.556308698490476,11.579659238761904
2.87222325,-6.524134637952381,-6.683917129047619,-2.6192702336333333,10.494401548238095
2.88216825,-5.996295204380952,-6.118171866857143,-1.7706670209699995,9.418978512999999
2.89211325,-5.580363097333334,-5.581406268571429,-1.0824180801604757,8.49525320404762
2.90205825,-5.2750508713809525,-5.102262892380952,-0.5846190511128567,7.774852453142857
2.91200325,-5.063176705904762,-4.667905902476191,-0.26801395125571376,7.2462071947619044
2.92194825,-4.943933963761905,-4.2647938713333335,-0.09452419492238046,6.871094718476191
2.93189325,-4.89243558647619,-3.905764555904762,-0.04943721296999949,6.606843209999999
2.94183825,-4.853138343476191,-3.577544748752381,-0.10171284533190426,6.387099301095238
2.95178325,-4.722893480380953,-3.244002833776191,-0.18780733213666617,6.142186132571429
2.96172825,-4.480581689547619,-2.8585171785380954,-0.276473354793809,5.943284721190476
2.97167425,-4.13438940702381,-2.380133216347619,-0.3536542485842852,5.844914592714286
2.98161925,-3.6385718043095236,-1.7654767749190479,-0.3517640386795233,5.926510248047618
2.99156425,-2.950814614357143,-0.9840347440142858,-0.21295780767952333,6.2760659856666665
3.00150925,-2.043891418976191,-0.08699902320476212,0.050504113944286215,6.919413621095238
3.01145425,-0.9192133461666666,0.8671669181285712,0.4360975667585719,7.878220214904762
3.02139925,0.34786859607142845,1.8935066569857142,0.918018488901429,9.061046360190476
3.03134425,1.7611159775,2.9606623838428567,1.4718030485680957,10.362448272666668
3.04128925,3.4240893636904763,4.048556959414285,2.1577104301395242,11.87483657909524
3.05123425,5.361796237357143,5.1110803827952385,2.927500686758572,13.575205713380953
3.06118025,7.3067066305,6.053146012509524,3.653545514663334,15.171050561714285
3.07112525,8.986606230119047,6.823397447271429,4.277110133282382,16.43814651747619
3.08107025,10.341934963309523,7.383448830033333,4.8293846703300005,17.415927325142857
3.09101525,11.366403426404762,7.751116459890476,5.33995816004762,18.168481730857145
3.10096025,12.139057788404761,7.969248051033333,5.784129617952381,18.687850481238097
3.11090525,12.755809732738095,8.080094121890475,6.089064851761906,18.955444920714285
3.12085025,13.254518867071427,8.115535808338095,6.150573669228571,18.988282142095237
3.13079525,13.585561988357142,8.076206085433334,5.938663083990477,19.03465839057143
3.14074025,13.67862827745238,7.9376415254333335,5.515195106276191,19.33519396714286
3.15068625,13.503958413785714,7.67443972137619,4.966377233895238,19.915979720190478
3.16063125,13.054347179690478,7.285653090161905,4.363973437990476,20.730576366666668
3.17057625,12.383947087380953,6.78653543035238,3.765237488990477,21.606614459809528
3.18052125,11.54262775838095,6.180193785209523,3.190468246514287,22.429468514
3.19046625,10.520632055238096,5.429971792828572,2.584824536276191,23.079929211380954
3.20041125,9.314757736095238,4.527802773685714,1.904649361180953,23.413520696142857
3.21035625,7.926626790857142,3.5500944664,1.1647207795619052,23.35882784852381
3.22030125,6.363018175142857,2.535073990114286,0.35414218441904816,22.90012691614286
3.23024625,4.719723147999999,1.4574031600190476,-0.512573105866666,22.124347891857145
3.24019225,3.0089885627619046,0.3787811268285715,-1.3988011114380947,21.116182516619045
3.25013725,1.1360061337142855,-0.6792305152666667,-2.3669173955333327,19.789337824238096
3.26008225,-0.9151162862380954,-1.6823590357904759,-3.389123306342857,18.17858924609524
3.27002725,-2.9031804673809525,-2.5395398840761905,-4.3428995169619045,16.60717145147619
3.27997225,-4.595101441190476,-3.195151838980953,-5.164287636723809,15.331809357190474
3.28991725,-5.971725343952381,-3.6341506132190475,-5.87286431115238,14.359648256666668
3.29986225,-7.050305527761904,-3.8982293464785713,-6.475394866200001,13.654726551428572
3.30980725,-7.878863336619046,-4.029744016016666,-6.941319692628571,13.183589538047618
3.31975225,-8.514056174,-4.037997917778571,-7.202154460261903,12.915505013809522
3.32969725,-8.953857060904763,-3.9365953368452384,-7.183758075671428,12.812846394333334
3.33964325,-9.15702065704762,-3.7407808276547625,-6.873119453799999,12.646912902
3.34958825,-9.13058834652381,-3.4505163136071437,-6.319957399799999,12.248596590380952
3.35953325,-8.922458710142857,-3.0717334191309527,-5.610925212942856,11.666128940000002
3.36947825,-8.582513509190477,-2.644144247178571,-4.849546399038094,10.946161424333335
3.37942325,-8.13880671,-2.2150272813261904,-4.108523496857143,10.126781424
3.38936825,-7.62919056942857,-1.8206559465758094,-3.420930432452381,9.267982707666667
3.39931325,-7.101600951142858,-1.4658484878710478,-2.8036633345571422,8.429536204857143
3.40925825,-6.605806653619047,-1.1554309185853335,-2.291315458271428,7.677837520190475
3.41920325,-6.174927837952381,-0.9073381805377144,-1.9134617004619043,7.063268951142856
3.42914925,-5.814003634714286,-0.716788699156762,-1.6709236780333327,6.590077727666666
3.43909425,-5.497604642333333,-0.5579605298234287,-1.5246899656999997,6.21016771704762
3.44903925,-5.176565939761905,-0.42757313387104773,-1.4349119696999995,5.863057255190476
3.45898425,-4.849381563142857,-0.33670974153771444,-1.37588173817619,5.5407625114285715
3.46892925,-4.524487540857143,-0.2910571320139049,-1.3169796024619043,5.2440376845714285
3.47887425,-4.189279002342857,-0.2988984709662858,-1.231831000223809,4.969515488666666
3.48881925,-3.8492165787428574,-0.3640525470615239,-1.114558755833333,4.737138504666667
3.49876425,-3.542368010695238,-0.4443323816329525,-0.9814255352619043,4.522619113047619
3.50870925,-3.2824219363142855,-0.4976985684686668,-0.8277146541190473,4.314879135333333
3.51865525,-3.027085556147619,-0.44673601883533337,-0.60604274097619,4.229437372380953
3.52860025,-2.701826918195238,-0.24110126407342863,-0.2774786302952376,4.410476185952381
3.53854525,-2.1570920941000002,0.11396095221228565,0.1776286244095243,4.953336573857142
3.54849025,-1.2066151610047617,0.6589726418313333,0.7785429116809529,6.000701415904762
3.55843525,0.1860310872809524,1.4146896109265712,1.5026055472047624,7.5555292684761906
3.56838025,1.8986429902809523,2.2912672743075237,2.325408094633334,9.430339536
3.57832525,3.8770540864714285,3.2419082633551426,3.2972111593,11.55876783595238
3.58827025,6.072355980614286,4.252114726740857,4.431296872833333,13.89324695438095
3.59821525,8.29113486337619,5.266605306133333,5.62374847652381,16.193727920238096
3.60816125,10.279628647471428,6.211023103761905,6.679269093390476,18.14869524352381
3.61810625,11.848945843757141,6.959157222666666,7.44764031424762,19.49412056961905
3.62805125,12.908802908566667,7.441525059952381,7.8879990534380955,20.130120772
3.63799625,13.512025676709522,7.668294533904761,8.036509810771427,20.166760783380955
3.64794125,13.789297830719049,7.658062045761905,7.941331396009524,20.139756725
3.65788625,13.861903013719049,7.451939313,7.640420745057144,20.435869806380953
3.66783125,13.766427449052381,7.0869260545238095,7.163722312390477,21.023389008238095
3.67777625,13.485662363290476,6.5972542374285705,6.535237289390476,21.86604486228571
3.687720917,13.003432604014288,6.012012910380951,5.778979801104762,22.92465304804762
3.697666917,12.330824937080953,5.385541195190476,4.913917560761906,24.13136495585714
3.707611917,11.550890847509523,4.73435527647619,4.006754156047619,25.425751186095244
3.717556917,10.760883146938095,4.059220721666667,3.161943579952381,26.684645682857145
3.727501917,10.011028470866668,3.2970730264285715,2.435426603571429,27.681362880619048
3.737446917,9.243831231914285,2.3811427801904754,1.787337954857143,28.283671517
3.747391917,8.264257440438096,1.3096099670952375,1.152745222809524,28.458442026523805
3.757336917,6.841850172819048,0.03961722566666618,0.43591486928571477,28.13041614271428
3.767281917,4.934400273295239,-1.427321322428572,-0.40253665114285664,27.302072401285717
3.777226917,2.6958280647238104,-2.9803520462380955,-1.3643847477619044,26.124465121761908
3.787172917,0.2489955761523814,-4.5444674205238105,-2.4798276720476187,24.63094694795238
3.797117917,-2.2951635386095237,-6.07702810052381,-3.73199651347619,22.823342423666666
3.807062917,-4.713523484180952,-7.515391166714287,-5.006049074428571,20.902995729380955
3.817007917,-6.7869210670380955,-8.787523070857143,-6.108056378333332,19.194306193190478
3.826952917,-8.375734745847618,-9.794007280571428,-6.895266993857142,18.00429740642857
3.836897917,-9.437136394419047,-10.49809454657143,-7.3387716464285715,17.487157858238096
3.846842917,-10.062963300990477,-10.921089477666666,-7.473434916285713,17.562430874333334
3.856787917,-10.394225163857143,-11.10568674409524,-7.349326538904762,17.717282575333336
3.866732917,-10.580624681333333,-11.096949138380953,-7.013122330952381,17.59654287095238
3.876678917,-10.667579098666668,-10.93253055752381,-6.489489384190476,17.24020682152381
3.886623917,-10.615952500238095,-10.646179014095239,-5.802131670409524,16.669380053714285
3.896568917,-10.396286558142858,-10.246541899666667,-5.003101535123809,15.895766758333334
3.906513917,-9.99608524295238,-9.787609118095238,-4.142525849428571,14.955519520333334
3.916458917,-9.444690635238095,-9.314075087333332,-3.2824533718666666,13.914759843142857
3.926403917,-8.840337711809523,-8.850872947380953,-2.5539954541047614,12.911188896190476
3.936348917,-8.293530439333333,-8.413824929333334,-2.0830543571047615,12.083145452761904
3.946293917,-7.8551293202380945,-8.002448081666667,-1.862367393533333,11.444771448857143
3.956238917,-7.509229760666666,-7.620919877619048,-1.8324211570095235,10.945484638285714
3.966184917,-7.179375461857143,-7.250430687952381,-1.9061367541523806,10.483872930238096
3.976129917,-6.813023232666666,-6.884780152619048,-1.9937027345333331,9.994111201380953
3.986074917,-6.403572652809523,-6.536770471809524,-2.0547215762,9.474377041904763
3.996019917,-5.979935391380953,-6.19325306752381,-2.0863315683428567,8.942486900761903
4.005964917,-5.56906778052381,-5.850128317666667,-2.0846356252,8.41768288152381
4.015909917,-5.194805438047619,-5.501709081285715,-2.047982409580952,7.914967868476191
4.025854917,-4.900447831290476,-5.082478392761905,-1.9658910658190474,7.484280556857143
4.035799917,-4.596971686614286,-4.527066051666667,-1.8110994521999997,7.290262449571427
4.045744917,-4.051041858709524,-3.698760703238095,-1.508968668295238,7.484053349190477
4.055689917,-3.012507473042857,-2.5317103926190483,-0.9387016429142854,8.277332872809524
4.065635917,-1.2849904322809524,-1.0989591501428575,0.03576521860952399,9.848584845095237
4.075580917,1.0954391262904761,0.5431268679523805,1.3965382668952384,12.192914352333332
4.085525917,3.7710172250047616,2.32862523295238,2.9771566834666667,14.944287621761905
4.095470917,6.442877302385715,4.104423485238095,4.569572219209523,17.719972509095236
4.105415917,9.012212829338095,5.746351517,6.072420760114285,20.35027666590476
4.115360917,11.331379661766666,7.230244401142857,7.452733170133333,22.69170769533333
4.125305917,13.287484298338097,8.487740696571429,8.642398798285715,24.63041278157143
4.135250917,14.82158878252857,9.466714369,9.571203402428571,26.046537956619048
4.145195917,15.957318148147616,10.18082423595238,10.187406766380953,26.880323921000002
4.155141917,16.797497660004762,10.653333723333333,10.493638508857142,27.206421902523815
4.165086917,17.432289573290475,10.885001799666666,10.480816135714287,27.235091050190476
4.175031917,17.856151395861904,10.872472135333332,10.178199448285714,27.392497528714287
4.184976917,18.052268679480953,10.604659885238094,9.613275246714286,27.88266371995238
4.194921917,18.01945599862381,10.098657156809523,8.870735019761906,28.688082283238096
4.204866917,17.762468503957145,9.378752699190475,8.04700534047619,29.763357308190475
4.214811917,17.25321057500476,8.494301523142857,7.1498159773333345,31.10654203266667
4.224756917,16.483786493338094,7.505189975809523,6.168602389809523,32.69689691666667
4.234701917,15.596330739438097,6.40546910047619,5.105002271380953,34.387842107333334
4.244647917,14.676436498809524,5.175778097666666,4.0250886718571435,35.832794778047614
4.254592917,13.626088064714287,3.7099959614761904,2.9884960349523815,36.70511248757143
4.264537917,12.219958999952379,1.9386709686190473,1.9131465770000002,36.762387337571425
4.274482917,10.195268918047619,-0.044849814238095545,0.6204693669523814,35.87956497995238
4.284427917,7.5718770799523805,-2.177763281857143,-0.9467742677142853,34.106165408047616
4.294372917,4.749497476428571,-4.384986840904762,-2.6990143387142855,31.80540553566667
4.304317917,2.0229011399999997,-6.486403641380953,-4.473841771857143,29.35486279185714
4.314262917,-0.5407772058095243,-8.372061803761905,-6.187952706333332,26.961672513285716
4.324207917,-2.8154752392380957,-10.019355658333334,-7.782521019809524,24.78417854042857
4.334153917,-4.737659648761905,-11.380737847142857,-9.165419207714285,22.970194819476188
4.344098917,-6.267689876571429,-12.44733446852381,-10.243987335190477,21.671878847333332
4.354043917,-7.39349058647619,-13.21931971404762,-10.934040169666666,20.9060578042381
4.363988917,-8.177827211952382,-13.709870395523811,-11.236670486714287,20.56322457357143
4.373933917,-8.700703417666668,-13.924934829666668,-11.155123351666665,20.43312435552381
4.383878917,-8.991383515619049,-13.853965474809524,-10.750570761571428,20.116087681714287
4.393823917,-9.057873819714287,-13.512582193047619,-10.095651312095237,19.46194884004762
4.403768917,-8.902184185095239,-12.91689879695238,-9.277798209690477,18.491309411809524
4.413713917,-8.571650049952382,-12.116236327809524,-8.397250787857143,17.29621451742857
4.423658917,-8.087648612095238,-11.186294844190476,-7.488870104571428,15.941858539333333
4.433604917,-7.449172033952382,-10.198942167142857,-6.5575136783809524,14.469989162380951
4.443549917,-6.732707743904761,-9.218326178857144,-5.612373387761904,12.963116457238094
4.453494917,-6.058943720857143,-8.285268463428572,-4.741043586190476,11.555340224952381
4.463439917,-5.492409363190476,-7.388920458728571,-4.067964271714285,10.347038772238095
4.473384917,-5.0375596642380955,-6.527755818942857,-3.638121875,9.35917986047619
4.483329917,-4.662060357190477,-5.727077395314287,-3.423102687142857,8.560660209761904
4.493274917,-4.363914255999999,-4.981717502066668,-3.336100545428571,7.899126441523809
4.503219917,-4.152511933,-4.304285632019048,-3.2804759690000003,7.332432837380951
4.513164917,-4.001231711571429,-3.7175251424476197,-3.200715144428571,6.834862331761904
4.523110917,-3.8819059946190477,-3.1960353671047623,-3.0509168858571423,6.367593938285714
4.533055917,-3.7652109678571426,-2.698496065671429,-2.843669107028571,5.920002435095237
4.543000917,-3.589716841690476,-2.1758125675285718,-2.6029262355428564,5.568028574619047
4.552945917,-3.313528427357143,-1.5594819847190482,-2.35755189587619,5.397156866428572
4.562890917,-2.9800426735,-0.8285239505761908,-2.1119531623523806,5.442887636
4.572835917,-2.6263257762142858,0.018529074423809227,-1.7635000399714282,5.741533283333333
4.582780917,-2.1988867385,0.9997110729476187,-1.1971079922095236,6.364919238095237
4.592725917,-1.5585914814523811,2.1158340284714283,-0.3514344923047615,7.402547556666667
4.602670917,-0.6005986492142857,3.355910855757142,0.7645173067904766,8.875665942619047
4.612616917,0.6354890128809523,4.707495895376191,2.0174699953380957,10.714062323714286
4.622561917,2.1389215371666666,6.097712848614285,3.315497727790477,12.78099977809524
4.632506917,3.885174003595238,7.439950584995238,4.710038139742858,14.997412748095238
4.642451917,5.799604142119048,8.67203256985238,6.25248451212381,17.303046071714284
4.652396917,7.769415877309523,9.743193082519047,7.876288235790477,19.57008129304762
4.662341917,9.616287007595238,10.62206749042381,9.439683344219048,21.58709339247619
4.672286917,11.145376307071428,11.27079632572381,10.747405802123811,23.139281142809523
4.682232292,12.335602752880954,11.693924322747618,11.70170588112381,24.13385028409524
4.692177292,13.256633358214287,11.91034032688095,12.266580910552383,24.59549991338095
4.702123292,13.95167275407143,11.903545639542855,12.42834911564762,24.711643075857143
4.712068292,14.426504031499999,11.696922524352381,12.238361649171427,24.908394916190478
4.722013292,14.699219714833335,11.306053755304761,11.7659897106,25.406173449904763
4.731958292,14.784731289928573,10.738483577104763,11.06283791555238,26.203948384809525
4.741903292,14.674981446690477,9.994063025004763,10.200951325438094,27.24682618847619
4.751848292,14.353507098904762,9.070790318528571,9.229566503761905,28.395711043714282
4.761793292,13.84363621457143,7.972685864242857,8.197107570142858,29.481458948809525
4.771738292,13.224501529857141,6.710030626338096,7.120979485857144,30.428481224238094
4.781683292,12.542942583285713,5.291840371099999,5.9329313506190475,31.16616994042857
4.791628292,11.771199496047618,3.6992740049095234,4.596656660238096,31.55776655280952
4.801574292,10.797879384952381,1.9311621406238093,3.1012463483333343,31.47966096852381
4.811519292,9.525236907952381,0.014547092528571358,1.4737490502380959,30.897039417095236
4.821464292,7.969770902095239,-2.0490136079476193,-0.1911856310952376,29.927931587095237
4.831409292,6.146080223,-4.169253542233333,-1.8240933024761903,28.707514351380958
4.841354292,4.098843723047619,-6.235731613661905,-3.474020130047619,27.285644664714283
4.851299292,1.930734193857143,-8.170758262709523,-5.203037092714285,25.69551092804762
4.861244292,-0.21054530261904764,-9.911117849376192,-6.968523167428572,24.042735482809526
4.871189292,-2.1524424302380956,-11.405012952233331,-8.630023055,22.53396132519048
4.881134292,-3.7573362863809527,-12.62529266651905,-9.989994032285713,21.41787512995238
4.891080292,-5.0156451774285715,-13.579725157138094,-10.953933315904761,20.792884347571427
4.901025292,-5.97577313452381,-14.276873977757143,-11.490231095142857,20.62235567995238
4.910970292,-6.67082052157143,-14.715241907000001,-11.611806375142857,20.73702935714286
4.920915292,-7.13168079604762,-14.90807957090476,-11.39019287847619,20.74313173047619
4.930860292,-7.417104678666667,-14.873262520190476,-10.901127473333334,20.45759200357143
4.940805292,-7.560545092571428,-14.645156261285715,-10.211168918047619,19.906837321190476
4.950750292,-7.558507978333332,-14.257831601000001,-9.402105698238095,19.141159004285715
4.960695292,-7.4057315100952374,-13.742932612238095,-8.51657706147619,18.19338596447619
4.970640292,-7.139698567714286,-13.137962362,-7.58496901004762,17.112625586666667
4.980586292,-6.809032452619048,-12.478054736333334,-6.664116020619046,15.96228692504762
4.990531292,-6.449736559714285,-11.754774068571429,-5.808653307285714,14.794573396666667
5.000476292,-6.0967466105714285,-10.971606440571428,-5.110932350333333,13.710696054761906
5.010421292,-5.754579829761905,-10.153662943061907,-4.610944443571428,12.756789842476191
5.020366292,-5.414461356428571,-9.283922581914286,-4.29498343547619,11.914252425761905
5.030311292,-5.061142849428571,-8.360392459057143,-4.108087545047619,11.137805320428573
5.040256292,-4.683377217333334,-7.409600458533333,-3.973153131428571,10.382266699904761
5.050201292,-4.283105624333333,-6.437331120104762,-3.8311258085714277,9.632079873523809
5.060146292,-3.879581030357143,-5.444418590628572,-3.637479001428571,8.927691832666667
5.070092292,-3.491843250404762,-4.438343213009524,-3.339139357290476,8.336389896238096
5.080037292,-3.1362518749904758,-3.423340000295238,-2.9311948390999993,7.922104362904762
5.089982292,-2.819717616966667,-2.3632690386285717,-2.396220159480952,7.738185729095237
5.099927292,-2.452479896633333,-1.1810452872000003,-1.6948974849095233,7.854469563857143
5.109872292,-1.906597291919048,0.17812907613333306,-0.7930856886238092,8.355342307190476
5.119817292,-0.9900059762047619,1.7360328137523804,0.361837830661905,9.375394783380951
5.129762292,0.4751578861285714,3.448144752323809,1.6768398074238096,10.980897838619047
5.139707292,2.488179375652381,5.2449829567999995,2.9731897370428575,13.083371928857142
5.149652292,4.916624209033333,7.03712128075238,4.236629559852382,15.541517033142858
5.159598292,7.5288599775571425,8.662174136657143,5.5660979238523804,18.159534040523813
5.169543292,10.011165658080952,10.015043725990475,6.950034396614287,20.684346693190477
5.179488292,12.125816878747619,11.04834613432381,8.315188262328572,22.882234735285714
5.189433292,13.75756916822381,11.743037843419048,9.591325091471427,24.61452889642857
5.199378292,14.914034960557144,12.11096614775238,10.675296268614286,25.83504488052381
5.209323292,15.722652649985713,12.21227141430476,11.45523035832857,26.518277216238094
5.219268292,16.2960750557,12.09348550674762,11.880923765519048,26.766979842809526
5.229213292,16.71507477922381,11.751277433457142,11.917755599661906,26.98428956
5.239158292,17.014913649461903,11.183542697742856,11.5634955239,27.515456404857144
5.249104292,17.119619378190478,10.41785862055238,10.846069589757143,28.40144964538095
5.259049292,16.929825830428573,9.46239596164762,9.828393377804762,29.619144858428566
5.268994292,16.430011349452382,8.353614561219048,8.598226105233334,31.069759629761908
5.278939292,15.67855297740476,7.144684347885713,7.234985699142857,32.5856260047619
5.288884292,14.80689837722857,5.864835622790475,5.881836292809525,33.94969244333333
5.298829292,13.989611132490475,4.498319606361904,4.649792704285714,34.94494857666667
5.308774292,13.224216116538095,3.005157855409523,3.517381828095239,35.44526793047619
5.318719292,12.356696277490476,1.3412158087428565,2.386426435142858,35.42683178285714
5.328664292,11.133956166061905,-0.5219654893523817,1.1346522530952385,34.83652924095238
5.338610292,9.321613345109524,-2.546493074114286,-0.2086617330476186,33.67614115904762
5.348555292,6.927501078919048,-4.647216951257143,-1.5417228770952378,32.040706916666664
5.358500292,4.146093416538095,-6.709508082209525,-2.897036184809523,30.022523781428575
5.368445292,1.2386002941571428,-8.569702956495238,-4.36962762595238,27.79670963666667
5.378390292,-1.4792990048904764,-10.13344243792381,-5.951393878666666,25.62921796809524
5.388335292,-3.783135718557143,-11.366035580876192,-7.547752609857143,23.771325369523808
5.398280292,-5.58654931217619,-12.261507449638097,-9.03528310252381,22.370157765238098
5.408225292,-6.910559968842857,-12.87229356335238,-10.281975692285714,21.484106554761905
5.418170292,-7.868017892271429,-13.25390894657143,-11.150237515333334,21.091807348095237
5.428116292,-8.573086571652382,-13.432669772904763,-11.564529339285714,21.055707623285713
5.438061292,-9.11322058374762,-13.424846365428571,-11.50597660257143,20.984301333
5.448006292,-9.527300710604763,-13.224194426666667,-11.003299533761904,20.54641341895238
5.457951292,-9.74838722,-12.854340160761906,-10.129249607809523,19.744810199476188
5.467896292,-9.675092845142856,-12.323156008142856,-8.990325239714284,18.613596653619048
5.477841292,-9.309340094761904,-11.676026859761905,-7.70814066335238,17.231018304142857
5.487786292,-8.763614167761906,-10.986056164333334,-6.4095478253,15.755329355380953
5.497731292,-8.163605697761906,-10.28201673404762,-5.262468220490476,14.353801817809524
5.507676292,-7.643527468428571,-9.58550832252381,-4.408678311680951,13.181024527380952
5.517622292,-7.243548375333332,-8.910883366285715,-3.8543503087761897,12.249235640857142
5.527567292,-6.9262578775714285,-8.266209714190476,-3.5255737910142853,11.486313096571429
5.537512292,-6.63113258695238,-7.637538359952381,-3.3272722660619043,10.798211306238096
5.547457292,-6.289372716428571,-7.017466826190476,-3.218920881919048,10.115375322285715
5.557402292,-5.886184643571428,-6.412715442619048,-3.1482665527761897,9.418083806952382
5.567347292,-5.461013406904762,-5.824860939228572,-3.060874011966666,8.730546174857144
5.577292292,-5.050707073190476,-5.248626022961905,-2.9397019532047617,8.09004448042857
5.587237292,-4.6477347905,-4.689352793390476,-2.7716355729190476,7.521686521428571
5.597182292,-4.226018088595238,-4.1113766874857145,-2.561996157633333,7.084332974571429
5.607128292,-3.816420186642857,-3.4801266833428577,-2.3410583902999997,6.783833381714286
5.617073292,-3.364785843880953,-2.7531383796285716,-2.0730884045999995,6.634565296761904
5.627018292,-2.7488442401190474,-1.8832510862000005,-1.632370395838095,6.760674669619048
5.636963292,-1.8231874847380949,-0.8576905302952386,-0.8208543529809521,7.4144008410952384
5.646908292,-0.4174260153571425,0.3084357253238091,0.4498104566380956,8.80928279852381
5.656853292,1.4602810748809527,1.5502407670380944,2.0305572473523816,10.834289280666667
5.666798292,3.508311208738095,2.8343082025619046,3.651843911876191,13.07670229395238
5.676743292,5.4370674990714285,4.0979497266095235,5.112459754257143,15.199599249809523
5.686687292,7.227640244880953,5.294359909657142,6.4354868536095235,17.169076387857142
5.696632292,8.986236183595238,6.410912162323809,7.769994459366667,19.061204772809525
5.706578292,10.707587084547619,7.412888613942856,9.195260054557142,20.886379836095237
5.716523292,12.322059765690478,8.246382641942857,10.576661773366668,22.498612433190477
5.726468292,13.687937349261905,8.86031241375238,11.719366380461905,23.712980017809524
5.736413292,14.708307248166667,9.265401137895239,12.460101376604763,24.380668701619047
5.746358292,15.422918165833334,9.48691560775238,12.70693679622381,24.554422225761908
5.756303292,15.926959487499998,9.553252589514285,12.515318889366668,24.666579313523805
5.766248292,16.285017469071427,9.450809051085715,11.9973973357,25.091461530285716
5.776193292,16.4828130985,9.137284020838095,11.247728211652381,25.828814319523808
5.786138292,16.46767479640476,8.624400623142858,10.331802852128572,26.823328147761906
5.796084292,16.202350675809523,7.946284962619048,9.281209057414287,28.027594158666666
5.806029292,15.678250898428573,7.126312843476189,8.144454980938097,29.30431869885714
5.815974292,14.99898506295238,6.180751692857141,6.976208859128573,30.56950063695238
5.825919292,14.199974766380954,5.107824263142857,5.809839080809525,31.693322540000004
5.835864292,13.239031596047617,3.8518320945714284,4.611755257952382,32.45219602380953
5.845809292,11.99300742652381,2.402033851714285,3.1658954770000003,32.601476572857145
5.855754292,10.253954330809524,0.8007046255238089,1.3548728460476194,31.955477363809525
5.865699292,8.008587768904764,-0.8774272216190481,-0.6845574539523804,30.6450794352381
5.875644292,5.58156926652381,-2.5850318201904767,-2.7097165939523804,29.080943462857142
5.885590292,3.2826996789047618,-4.269910685904763,-4.538232367761904,27.60858372047619
5.895535292,1.1921979043333333,-5.864768938285715,-6.180702074523809,26.212778560952376
5.905480292,-0.7263715619047618,-7.320564308285715,-7.80282104804762,24.762009693809524
5.915425292,-2.4805739023809523,-8.610158977333334,-9.488822885285714,23.26636362761905
5.925370292,-4.070483210190476,-9.69560401447619,-11.105115136666665,21.91805709190476
5.935315292,-5.404821859238095,-10.540858742428572,-12.465036885999998,20.94052675952381
5.945260292,-6.384103735761904,-11.161074048285716,-13.412686717714285,20.48934420047619
5.955205292,-7.06356322552381,-11.594476884,-13.856483369095239,20.519651304285713
5.965151292,-7.554998924809524,-11.873344325476191,-13.815002051809524,20.59555878452381
5.975096292,-7.931616915571429,-11.98823337004762,-13.385015382142857,20.35149133009524
5.985041292,-8.18018480952381,-11.912621242476192,-12.678479218904762,19.800881654238097
5.994986292,-8.23868024352381,-11.65996940252381,-11.77573972047619,18.978250069428572
6.004931292,-8.108378606761907,-11.257182476428572,-10.73544607457143,17.922396722380956
6.014876292,-7.7904593939047615,-10.759895176190478,-9.632947437619046,16.705844799142856
6.024821292,-7.339501184238096,-10.198930653428572,-8.51398465642857,15.391130522238095
6.034766292,-6.8558854398571425,-9.606767726571428,-7.449499408809523,14.098066719714287
6.044711292,-6.4233184776190475,-8.97182466295238,-6.533234451285714,12.934016236571429
6.054656292,-6.023262897476191,-8.287647556285716,-5.770278559761904,11.869285673619048
6.064602292,-5.606226501857143,-7.562096261595239,-5.148643048666666,10.866121634190476
6.074547292,-5.14708088152381,-6.816390491614287,-4.659738984904761,9.915324998000001
6.084492292,-4.666529551333333,-6.058515635371428,-4.251654801761904,9.010981680238094
6.094437292,-4.1940651155238085,-5.284409242704762,-3.8839513368095235,8.157432184857143
6.104382292,-3.755403349709524,-4.498070711466667,-3.5693026387619047,7.430216049476191
6.114327292,-3.349612291423809,-3.7016665745142863,-3.302085496047619,6.898484536428571
6.124272292,-2.9410243985190476,-2.8510235816095246,-3.0386466848571425,6.591989249095239
6.134217292,-2.4375451613285715,-1.9202831736095245,-2.713038244228571,6.4944019609999994
6.144163292,-1.7417194263285711,-0.890085998466667,-2.171778838038095,6.688627083857144
6.154108292,-0.6734684326619047,0.28248608829523764,-1.198893592990476,7.451815341952381
6.164053292,0.9973099283380955,1.5903768903904758,0.1707960968190478,8.970938743857143
6.173998292,3.1843799173380956,2.9886074801523805,1.646193561247619,11.062139987428571
6.183943292,5.524791466528572,4.426183037676189,2.9173620668190474,13.294322689476193
6.193888292,7.71070367914762,5.801540044104762,3.914794758819048,15.357844579619046
6.203833292,9.709279705814286,7.0308583289142845,4.741948609438095,17.24570015204762
6.213778292,11.566158930766667,8.097328956628571,5.65303711067619,19.04775189195238
6.223723292,13.248112323242857,8.983492935438095,6.779172420866667,20.78031235519048
6.233669292,14.65544012262381,9.639513805533332,7.926987591580953,22.27153089257143
6.243614292,15.711537316814288,10.027641037914284,8.86665165824762,23.291956339857144
6.253559292,16.373458584385713,10.158902355923809,9.484829905485714,23.75113984347619
6.263504292,16.678602243576194,10.071159023923808,9.724179831009524,23.793012222380952
6.273449292,16.770240865338092,9.78802466032857,9.571586408485715,24.013434118809524
6.283394292,16.710818731147622,9.340565257395237,9.059191239485713,24.628841786428573
6.293339292,16.501641357242857,8.708496197342855,8.2709805692,25.585441074190477
6.303284292,16.11767801067143,7.904383341819048,7.314830918533334,26.784912716238097
6.313230292,15.507054755619048,6.956199784390476,6.286182030580952,28.125760181142862
6.323175292,14.635335445952384,5.892910236961905,5.2943389428190475,29.482198043714284
6.333120292,13.59121240304762,4.723939812152381,4.428443822199999,30.660147716285717
6.343065292,12.480663291761905,3.4674800331999998,3.724314873904762,31.495226138190475
6.353010292,11.307240685333333,2.1294790498666663,3.0380323239047615,31.842343071523807
6.362955292,9.868234787714286,0.6715632570095235,2.094186969142857,31.472824846285715
6.372900292,7.853269572000001,-0.9053646477523811,0.8314415589047618,30.306444395809525
6.382845292,5.305593384857143,-2.5577991510857143,-0.5345012492380953,28.588334672000002
6.392791292,2.6028091658095236,-4.2290263834666675,-1.7405765175714285,26.740199855333334
6.402736292,0.10734505009523831,-5.799520457419048,-2.7252389462380955,25.013676567238093
6.412681292,-2.115244936285714,-7.175465665895238,-3.5727273942380955,23.378152507238095
6.422626292,-4.113298667666666,-8.353378460228571,-4.511011462523809,21.750558248857143
6.432571292,-5.902663685380952,-9.334228086657143,-5.637529208476191,20.148284328952382
6.442516292,-7.431797701952381,-10.10137250584762,-6.752571570809525,18.794836377904762
6.452461292,-8.594058809047619,-10.617781162038094,-7.6572939575714285,17.914518045190476
6.462407292,-9.297454822761905,-10.874203787809524,-8.272534869952382,17.555577758047622
6.472352292,-9.613604723857142,-10.916766241333333,-8.524154801619048,17.59755958090476
6.482297292,-9.724708030428571,-10.798064672904761,-8.37587943647619,17.474732325142856
6.492242292,-9.712094973666666,-10.540969255380952,-7.854335449333333,16.968331280619047
6.502187292,-9.575163568857144,-10.128205475761904,-7.0717156221428565,16.134686813238098
6.512132292,-9.278532703857142,-9.577402884476191,-6.159886167619048,15.066561662904762
6.522077292,-8.801341768380953,-8.932597558714285,-5.200258620714286,13.835003438000001
6.532022292,-8.154728260619047,-8.241034583380953,-4.277776109952381,12.522405661571426
6.541968292,-7.45310954995238,-7.561338504238096,-3.498167946952381,11.277370357761905
6.551913292,-6.82925850104762,-6.920100564666667,-2.9496292445238095,10.231081146523811
6.561858292,-6.352367945380952,-6.339695469714288,-2.6371208501428574,9.426133186761904
6.571803292,-5.996317869952381,-5.810621716666667,-2.5034907832857143,8.799553625904762
6.581748292,-5.650214966190476,-5.308028972904762,-2.484405262571429,8.233791599142858
6.591693292,-5.289682275904762,-4.835854976666668,-2.5416966295714287,7.704602955523809
6.601638292,-4.939611312428571,-4.392889827,-2.6209257612380954,7.219158610666667
6.611583292,-4.636744141142858,-3.9882279774285716,-2.6866018823809523,6.803971220047619
6.621529292,-4.391882045428572,-3.624428698366667,-2.7470371997619045,6.484883467571429
6.631474292,-4.227848963142857,-3.2775460267619048,-2.8224541417619045,6.286480248095238
6.641419292,-4.1499535813333335,-2.9019119831904767,-2.9089544253333335,6.191983415619047
6.651364292,-4.102547670238095,-2.431499585809524,-2.905816127238095,6.1370149067142865
6.661309292,-3.944178256714286,-1.8125300988571433,-2.6489860897142856,6.191376283333333
6.671254292,-3.49051067,-1.016937889476191,-2.025147375904762,6.655895297142858
6.681199292,-2.5584632696666665,-0.05970664300000051,-1.0981657389047619,7.699687794999999
6.691146375,-1.139796967142857,1.0579738993809518,-0.06288903214285704,9.250668735666666
6.701091375,0.5470500990000001,2.3139561833809514,0.9273936007142858,11.067029185428572
6.711036375,2.334713576952381,3.634101078523809,1.8952538882857144,12.980505583285714
6.720981375,4.224001607000001,4.92657742247619,2.9864102075714283,15.005096470285716
6.730926375,6.23936588104762,6.14693209242857,4.286943680666667,17.184192434714287
6.740871375,8.31573849947619,7.258031064714285,5.743065172285714,19.41997403352381
6.750816375,10.261219970238095,8.224241601761904,7.193035810714285,21.452475851142857
6.760761375,11.852549873238095,9.021025278857142,8.425400675904763,22.997899318571427
6.770707375,13.048501829000001,9.649345521714285,9.264758403238094,23.940102141190476
6.780652375,13.872055228809524,10.090470580238096,9.654393883095238,24.309121059190474
6.790597375,14.348025878000001,10.336188012238095,9.644099999142858,24.334394110571427
6.800542375,14.580892717100001,10.40463849795238,9.353264226047619,24.499348022
6.810487375,14.6376807641,10.282316779095238,8.888760273190476,24.899709119238093
6.820432375,14.518433372004763,9.96257565742857,8.332023621095239,25.513738234142856
6.830377375,14.193713067766666,9.448909651604762,7.771388379809524,26.3071682042381
6.840322375,13.723011010671428,8.756263521,7.236619160095239,27.218909125904762
6.850268375,13.186870647052379,7.9311111029047625,6.651299898190477,28.210876686380953
6.860213375,12.590630066814285,6.980013669,5.862991133857143,29.294974613476192
6.870158375,11.827988699909524,5.889126321380952,4.7683154311904765,30.326633056714286
6.880103375,10.78472845519524,4.607409578047618,3.3923284849999997,30.904390979571428
6.890048375,9.33416695567143,3.1602781666190474,1.8716829269047621,30.77403948909524
6.899993375,7.487085325195238,1.5709010389999996,0.4158254650000001,29.979562718619054
6.909938375,5.471835155671429,-0.1361663948095242,-0.8115264565238094,28.76763976195238
6.919884375,3.4538997772904763,-1.8733416433809527,-1.8618927668095235,27.32956104338095
6.929829375,1.399736109004762,-3.5370186162380954,-2.928147465285714,25.686002036238094
6.939774375,-0.7465679001380952,-5.081182288142857,-4.173072358238095,23.820751882904762
6.949719375,-2.937198230947619,-6.474604740476191,-5.607151879428571,21.85403178957143
6.959664375,-4.970118157090476,-7.67279072247619,-7.064986006619047,20.038200842904764
6.969609375,-6.603220735804761,-8.65685801604762,-8.309857940761905,18.64687248552381
6.979554375,-7.771141585233333,-9.43199925447619,-9.142040438428571,17.779679275809524
6.989499375,-8.480572371185714,-9.973165328,-9.473614626142856,17.38591415847619
6.999445375,-8.820195334757143,-10.286281804952381,-9.347487650714285,17.278636742
7.009390375,-8.923016895666667,-10.408299218,-8.888869727704762,16.99997192442857
7.019335375,-8.85650428857143,-10.323614717619048,-8.232409300302763,16.45673428485714
7.029280375,-8.670064063333333,-10.049686391380952,-7.486344162941809,15.731573029047619
7.039225375,-8.372679715,-9.614576224285717,-6.759121357917999,14.894516360666666
7.049170375,-7.976324559428571,-9.037049462857143,-6.078761146203714,13.959119133476193
7.059115375,-7.477974694857142,-8.388714340142858,-5.387057141537047,12.916694442904761
7.069061375,-6.860810521666666,-7.70302695304762,-4.639812927203715,11.749784723238095
7.079006375,-6.172654885904761,-7.014837486619047,-3.8739101086799055,10.533399710095237
7.088951375,-5.557040002095238,-6.334919213342857,-3.1921207261560958,9.420968921047619
7.098896375,-5.082357494571428,-5.687314045628573,-2.6708510289180003,8.504721809238095
7.108841375,-4.725225043619047,-5.079506809771429,-2.326204429822762,7.772993775238096
7.118786375,-4.467981106857143,-4.502406310676191,-2.1474032020132383,7.190353259904762
7.128731375,-4.29747237247619,-3.962766778152382,-2.0943681903465716,6.7195415351904755
7.138677375,-4.167791180952381,-3.4483551411190483,-2.1160572812989527,6.305077088428572
7.148622375,-4.0297065381428565,-2.961486451192382,-2.148375399108476,5.913965005857143
7.158567375,-3.8467630313809518,-2.4907645968971432,-2.1034603183465714,5.502834976238095
7.168512375,-3.6297048916190473,-2.0244872390400004,-1.9331184384180002,5.0987391049047615
7.178457375,-3.4089291478,-1.5501354889447625,-1.678046032179905,4.795622268333334
7.188402375,-3.2275161079999997,-1.0416441298495245,-1.4061406197513335,4.633529380666666
7.198347375,-3.112825089109524,-0.49525966694476237,-1.1246687727037146,4.679644105095238
7.208292375,-3.0007459936,0.114709618579047,-0.793929400322762,4.953843868380953
7.218238375,-2.816050493980952,0.8338389582457136,-0.37948435147514303,5.4430424167142855
7.228183375,-2.4702335191714284,1.6531096622933326,0.16095765588476166,6.179959764380952
7.238128375,-1.938376157266666,2.550734921626666,0.8486428832857139,7.118869690666666
7.248073375,-1.3044885019809522,3.520425498817142,1.7195617925476188,8.211644703809522
7.258018375,-0.5639433451714283,4.540043863579047,2.7516761860714283,9.435915442904761
7.267963375,0.338203482161905,5.581179508483809,3.8756121075952374,10.779530745857144
7.277908375,1.3731223118285716,6.604372526626666,5.010688910404761,12.193586152190475
7.287853375,2.489697034638095,7.597450184483809,6.102513775214285,13.594489638666667
7.297799375,3.685606751304762,8.547161716921904,7.186660926023809,14.954142366285716
7.307744375,4.9372382056857145,9.420084272064761,8.302878523071428,16.273833725714287
7.317689375,6.156759229971429,10.166832879064762,9.427096155404762,17.515193158761907
7.327634375,7.23622498844762,10.736254759017143,10.483833062452382,18.585263752666666
7.337579375,8.11448343435238,11.116613770493332,11.350554492023809,19.370102662619047
7.347524375,8.760023309638095,11.300918230602857,11.894205701833332,19.79472199938095
7.357469375,9.17078491887619,11.297205805542857,12.065041267738096,19.878436085190476
7.367415375,9.388210486542857,11.111847816390476,11.86327224645238,20.07462940085714
7.377360375,9.469425179519048,10.746081060580952,11.305168501809524,20.57749652457143
7.387305375,9.426076832366666,10.2128456492,10.481258519238096,21.253053982333334
7.397250375,9.273807874614286,9.512199218819047,9.515018049714286,22.008080551142857
7.407195375,9.016067481342859,8.648805091199998,8.44521531652381,22.751198718333335
7.417140375,8.655245604500001,7.64065771067619,7.235531703619047,23.407265649285712
7.427085375,8.195534335690477,6.5046773602,5.857927083333332,23.919943226428572
7.437030375,7.570511532642857,5.268770098771428,4.307657692857143,24.225928247857144
7.446976375,6.827013142166668,3.9763322906761895,2.598961837142857,24.304147162619046
7.456921375,6.0621178126904764,2.6129085049619043,0.7868015609523809,24.139741468809525
7.466866375,5.169768301166667,1.1523640263904755,-0.9506860961904764,23.686373538333335
7.476811375,4.083275220023809,-0.38679843837142913,-2.519224081428572,22.983963973571427
7.486756375,2.893924631071429,-1.9659604245619053,-3.8896953215238095,22.12338178547619
7.496701375,1.7321122561190476,-3.5468655493238104,-5.03736007952381,21.174756368333334
7.506646375,0.6125541031666669,-5.090966294085715,-6.052037101571429,20.194111349761904
7.516592375,-0.4714088391666664,-6.558990976466667,-7.058117491285714,19.22865470738095
7.526537375,-1.4585852085714284,-7.894910072180953,-8.089363044333334,18.34131065214286
7.536482375,-2.270062534785714,-9.035546421228572,-9.107148111761905,17.625856188333334
7.546427375,-2.890578749704762,-9.98749114427619,-10.003082578761905,17.21823906785714
7.556372375,-3.331162926862381,-10.772650361419048,-10.61479088195238,17.21868230595238
7.566317375,-3.611062527229047,-11.394773836285715,-10.840302536285716,17.597456881285716
7.576262375,-3.7920206536576186,-11.862999458619049,-10.678176091809524,17.909309588095237
7.586207375,-3.924165499871905,-12.185628297238097,-10.212472624476192,17.932230149523807
7.596153375,-4.0100612927290475,-12.372991658571427,-9.53065330962381,17.715377384285713
7.606098375,-4.05623472211,-12.435558258095238,-8.752675948719048,17.33263836142857
7.616043375,-4.045581819157619,-12.379188815714285,-7.9842529663380954,16.831019866190477
7.625988375,-3.966521727729048,-12.24062890557143,-7.260806376861904,16.241551964285716
7.635933375,-3.8460888823004766,-12.037969645904761,-6.567752277814286,15.582584498571428
7.645878375,-3.7349562839195234,-11.802852324952383,-5.910830964147619,14.916078381904763
7.655823375,-3.6801433706814284,-11.551755788809524,-5.295909922338096,14.28647475809524
7.665769375,-3.6323608153480946,-11.249861566619048,-4.750101410385715,13.688059612857144
7.675714375,-3.470574456014762,-10.81894070704762,-4.387887784814286,13.15276763995238
7.6856585,-3.216707341919524,-10.259925840833333,-4.260216169766666,12.715191824428572
7.6956035,-2.970102915157619,-9.586676539738095,-4.276568075385714,12.334871943285716
7.7055485,-2.8320706745385715,-8.839668149309524,-4.333267690242858,11.954945037190477
7.7154935,-2.787572013014762,-8.026808026357143,-4.350458977623809,11.542206260666667
7.7254385,-2.7510023499195237,-7.12056525202381,-4.242326529923809,11.162597549857143
7.7353835,-2.766001878105238,-6.1254791871666665,-3.9552560295428574,10.926324523238096
7.7453295,-2.8769747778433334,-5.04707283302381,-3.509697946209524,10.86895715847619
7.7552745,-2.9875211232099996,-3.8369485630238094,-2.9772706757333336,10.939960811809524
7.7652195,-2.924629849909524,-2.4817093201666673,-2.358988487209524,11.149186905619047
7.7751645,-2.6001665864476187,-0.9817681406428576,-1.5384372432571431,11.646472069428572
7.7851095,-1.8706351893523812,0.6183577845952376,-0.4551585712571431,12.543990989428572
7.7950545,-0.613421718304762,2.2831524112619044,0.9132484623619045,13.931915476095238
7.8049995,1.0628516189809523,3.9948281193571424,2.497579498461904,15.732159230380953
7.8149455,2.888510081457143,5.699642482214285,4.172755188033333,17.66361330990476
7.8248905,4.624293971219048,7.3391011231666665,5.841657066128572,19.497340757523812
7.8348355,6.1915490217428575,8.859711987785712,7.4271364399857145,21.114986610380953
7.8447805,7.617268597504763,10.24289022954762,8.853801259985714,22.498457780857144
7.8547255,8.927734652171429,11.472735431928571,10.041743421557143,23.569769333238096
7.8646705,10.101119279266666,12.515189011499999,10.900950162938095,24.269447114190477
7.8746155,11.037189452314285,13.302656570261904,11.373511036185713,24.642211538952385
7.8845605,11.648309191457143,13.730994909738094,11.471378529709526,24.804374768047616
7.8945065,11.921643635552382,13.780090192804762,11.333477071804761,24.94218133214286
7.9044515,11.87765274902857,13.464783209614284,11.026552740376191,25.286713534714284
7.9143965,11.581340974933333,12.83134545585238,10.533228390376191,25.966751190333337
7.9243415,11.075710964933334,11.924273045280952,9.866190196471429,26.95011436638095
7.9342865,10.349803672266667,10.781119692376189,9.020945158009525,28.089042632904757
7.9442315,9.511076553190478,9.457946858471429,7.970618358295239,29.219678949523807
7.9541765,8.704210132476192,7.993780030042857,6.783887544771429,30.228661594761906
7.9641215,7.974089475142858,6.387745911471429,5.610154729866666,31.039525122857142
7.9740675,7.194474504285714,4.6522443029,4.4832472532,31.58736063619048
7.9840125,6.301664733523809,2.8040187348047616,3.262745790342858,31.711914058095243
7.9939575,5.157176795428572,0.9014498124238088,1.8712736628666666,31.30188355238095
8.0039025,3.6049039542380954,-1.0386395794809529,0.2924581658666669,30.305296495714288
8.0138475,1.7317142834761907,-2.997930001861905,-1.4109593664190474,28.81868071666667
8.0237925,-0.18856460233333316,-4.921406228528572,-3.100702085133333,27.125748126666664
8.0337375,-1.9422122092380951,-6.761653521861906,-4.650997648729381,25.471053225714286
8.0436835,-3.4884707715238092,-8.458044887100002,-5.991757612834142,23.968187466666667
8.0536285,-4.863945752190476,-10.015367578528572,-7.089028643991285,22.642060133809522
8.0635735,-6.051857146095238,-11.403604608766667,-7.881462646810333,21.523832877619046
8.0735185,-7.043785519619048,-12.578904811861905,-8.299282861648427,20.665125726809524
8.0834635,-7.806248128857143,-13.478790159147618,-8.319714954367477,20.075569950238098
8.0934085,-8.279974672380952,-14.028532343861903,-7.994749331562714,19.671186335619048
8.1033535,-8.446723034576191,-14.18622740638095,-7.460699375162714,19.216413332523807
8.1132985,-8.344107379185713,-13.981114668733333,-6.825475408162715,18.54555588361905
8.1232445,-8.017869861661906,-13.456607256990477,-6.136927507543667,17.648984364
8.1331895,-7.48664514085238,-12.653205255990475,-5.420544702496048,16.552210459619047
8.1431345,-6.792607206090476,-11.637331378609524,-4.688102394257952,15.307534432
8.1530795,-6.0126978139952385,-10.499366984371429,-3.9124355467341423,13.955703804476192
8.1630245,-5.213044073042857,-9.294149043419047,-3.1128339572484287,12.586599319095237
8.1729695,-4.496016417471428,-8.062029692038095,-2.3860494011531905,11.307483601095239
8.1829145,-3.905500010995238,-6.82884983632381,-1.8156530131055715,10.176322433857143
8.1928595,-3.4575521707571433,-5.6262095428,-1.4146254586293807,9.21738040347619
8.2028055,-3.1198991619476186,-4.478082186514287,-1.1799575657722379,8.413022924142856
8.2127505,-2.8235160796619048,-3.3694188438000006,-1.0689080674865237,7.690574780809523
8.2226955,-2.511603572233333,-2.31131526132381,-1.006172232677,6.999545086761905
8.2326405,-2.181844499490476,-1.32839686232381,-0.9729029817436666,6.355167421666667
8.2425855,-1.8515307487285715,-0.42337706080000054,-1.019598845942857,5.793310199714286
8.2525305,-1.54521115877619,0.3967934601523804,-1.1526550642666666,5.333452651571428
8.2624755,-1.2629559797761905,1.1492194910095233,-1.3043573850619046,4.972779264047619
8.2724215,-0.9932782729666668,1.8650964422476186,-1.3995541350047618,4.749886358238095
8.2823665,-0.6543103646333334,2.5921182700571426,-1.3399253435476188,4.763238179428571
8.2923115,-0.06757551968095238,3.3858062640095232,-1.0616969052666665,5.213789830761904
8.3022565,0.8871975573666666,4.230627518247618,-0.5844746871666665,6.1999716472857145
8.3122015,2.1380518891809523,5.07679975767619,0.053782787385714466,7.635570267047618
8.3221465,3.5111497539333336,5.9203349168857144,0.818914957052381,9.28233181595238
8.3320915,4.965295401504762,6.726469962285713,1.6239207378619047,10.971539611285714
8.3420365,6.509139926885713,7.468353296047618,2.3984770737666667,12.687163403761904
8.3519815,8.094246972123809,8.143150981523808,3.1423983569571425,14.37649191804762
8.3619275,9.682819606695238,8.769308311571429,3.806784727052381,15.990940083666667
8.3718725,11.197400154314286,9.324655929666665,4.3084706789,17.451349983809525
8.3818175,12.533938581600001,9.781596704,4.6336180387571435,18.645203233714284
8.3917625,13.629784952742858,10.091331722095237,4.824041568280952,19.48369148809524
8.4017075,14.444141043933335,10.185616891142857,4.89182316037619,19.922002426095236
8.4116525,14.928846430933334,10.040478585047618,4.839414900614285,20.014803963000002
8.4215975,15.079051572157145,9.665786263380951,4.655779932757143,20.099589122809522
8.4315435,14.927235717919048,9.083273094,4.3093292729,20.471954139238097
8.4414885,14.529156524509526,8.331172474523807,3.8151250421095235,21.12949950004762
8.4514335,13.92344690779524,7.448528018238094,3.235165282285714,22.009532425333333
8.4613785,13.13116079774762,6.482673061571428,2.609599049952381,23.07244138157143
8.4713235,12.162202626080951,5.46505675595238,1.9269207652380953,24.27996393957143
8.4812685,11.042043699366667,4.387720247333332,1.1967390465714287,25.52368131157143
8.4912135,9.821169016938095,3.211231138333333,0.4327043853333335,26.568352445000002
8.5011585,8.41699938217619,1.911280604523809,-0.3575378444761904,27.10701405214286
8.5111045,6.70279116122381,0.5179245321428568,-1.1306370961904761,27.049941796428566
8.5210495,4.722903893604761,-0.9111407645238098,-1.8486141167619048,26.52598060119048
8.5309945,2.6578498697952386,-2.3567218283333338,-2.502141428,25.770937742619047
8.5409395,0.5955206483666667,-3.767447305476191,-3.0701485322380955,24.885745193571427
8.5508845,-1.4669160506809522,-5.1013565183333345,-3.5569257966666665,23.84952647404762
8.5608295,-3.489263793538095,-6.344974419238096,-3.998373482047619,22.69912631452381
8.5707745,-5.4514674104904755,-7.506719523380953,-4.393257353,21.518941137857144
8.5807205,-7.294553777633333,-8.581689942428572,-4.691000066047619,20.39542536309524
8.5906655,-8.894336805061904,-9.53846555152381,-4.830273517428572,19.436311649285717
8.6006105,-10.164821019442858,-10.31721279552381,-4.815213261714286,18.719765222666666
8.6105555,-11.073011083442857,-10.846805419380953,-4.657089299,18.30111516309524
8.6205005,-11.582483828061905,-11.09432510247619,-4.373937797523809,18.139633591666666
8.6304455,-11.719581600095237,-11.078819567380952,-3.9933829600238093,17.935534706809523
8.6403905,-11.587274368333333,-10.837226789142857,-3.523500932942857,17.468270683761904
8.6503355,-11.266442128333333,-10.408593415619046,-2.9741451376285717,16.747541034619047
8.6602815,-10.783534927285714,-9.825256582190477,-2.330853628195238,15.792599006142856
8.6702265,-10.151482490142858,-9.146979288285715,-1.5969787590428572,14.646404124285715
8.6801715,-9.388606956047619,-8.436774164285715,-0.7977600228857142,13.370423729238095
8.690116667,-8.527776192285714,-7.724842413095238,-0.014323903629047528,12.036375486761905
8.700061667,-7.6774649036666665,-7.019661912571429,0.6388741745614287,10.769584694857143
8.710006667,-6.930581392809524,-6.355782523666668,1.0930872021804763,9.679077050047619
8.719951667,-6.294596870190476,-5.751952480476191,1.328432696894762,8.771486315333334
8.729896667,-5.728651159952381,-5.214604722428572,1.363507380085238,7.994964738238095
8.739842667,-5.1700175877619055,-4.731484766190477,1.231110894751905,7.2678544304761905
8.749787667,-4.594617932,-4.289419085714286,0.9800749328471429,6.558680361666667
8.759732667,-4.0220021356428575,-3.892399324380953,0.6701220501804763,5.902108253190476
8.769677667,-3.4573194794999997,-3.518810831761906,0.3265212814661905,5.337020807761904
8.779622667,-2.902958328547619,-3.159096417519048,-0.046588017914761824,4.897970546380952
8.789567667,-2.3995455546428572,-2.772711822519048,-0.38799115234333326,4.551220564714286
8.799512667,-1.8700522220238096,-2.318498412185715,-0.6049385012957142,4.330354951095238
8.809457667,-1.1416476947857144,-1.7595656017571433,-0.589519839152857,4.479601324380953
8.819403667,-0.03774653364285725,-1.083149838376191,-0.2862246727719048,5.207040240142858
8.829348667,1.4051077508809524,-0.3033991564238101,0.25840696203761904,6.48711463542857
8.839293667,2.9701823191666668,0.5475390093380946,0.9526342630138096,8.080228392380953
8.849238667,4.498749573547618,1.4620474632428564,1.675306903742381,9.740624747809523
8.859183667,5.973843678595237,2.447888801623809,2.367732426999524,11.392768000285715
8.869128667,7.4704676218333335,3.481030996290476,3.011408293280476,13.089981865428573
8.879073667,9.100202510404761,4.569817856671428,3.659735236985238,14.902666578714289
8.889018667,10.88889774345238,5.716747564099999,4.3307673574947625,16.813477295666665
8.898964667,12.687732939214285,6.842360857195238,4.949555197761905,18.664383984333334
8.908909667,14.258405381071427,7.8330335552428565,5.465792843857143,20.20610756861905
8.918854667,15.443523225928569,8.625852847766666,5.842331277666666,21.257282418666666
8.928799667,16.266769173309523,9.197495806528572,6.079153305666667,21.807761226238096
8.938744667,16.783690574595237,9.547874333480953,6.192726984285715,21.936006310761904
8.948689667,17.00060698902381,9.697412196028571,6.186126299238095,21.79851089352381
8.958634667,16.92568355202381,9.674926700409523,6.069134554142857,21.91876517590476
8.968579667,16.634696948619048,9.501786329171429,5.824950443047619,22.304888587238096
8.978525667,16.184968129904764,9.194283513361905,5.470727622380952,22.870988312666665
8.988470667,15.58409065209524,8.77689608992857,5.031814496047619,23.575218629285715
8.998415667,14.845391154857143,8.230802456357143,4.489653101238095,24.453541599047618
9.008360667,13.93154928347619,7.542321743214284,3.855553818476191,25.358146802666667
9.018305667,12.784141552047618,6.693582854404762,3.1820152330476192,25.8633675812381
9.028250667,11.286613267285713,5.676988502785714,2.502718964142857,25.697475757428574
9.038195667,9.438046778238096,4.5171819737380945,1.835872920857143,24.969431781714288
9.048140667,7.394161846333333,3.2401212289761903,1.1971077829047618,24.016816486952383
9.058086667,5.312264611571429,1.8751106761190472,0.6205665282380952,23.077897140285714
9.068031667,3.2188438510952375,0.4442165375476187,0.07871516119047614,22.190848316476192
9.077976667,1.063712857285714,-1.040225678166667,-0.5038429340952382,21.28437806647619
9.087921667,-1.1716698903333334,-2.556052072452381,-1.1861918394238096,20.20791730361905
9.097866667,-3.4567313617619044,-4.089231276261905,-1.9867444644238097,18.93359885409524
9.107811667,-5.653262758428571,-5.574441593880953,-2.8283456151857145,17.65224061219048
9.117756667,-7.540627555904761,-6.911405058166668,-3.6132530960428575,16.637711310285717
9.127702667,-8.974572047904761,-8.049745567690476,-4.2654870309,16.077637438380954
9.137647667,-9.997444777761904,-8.992440357738095,-4.758540000423809,16.002539196476192
9.147592667,-10.698959352380953,-9.755460346071429,-5.100229899042857,16.363127648571428
9.157537667,-11.173751035857142,-10.386520761047619,-5.2527718382333335,17.06248630642857
9.167482667,-11.462154701380953,-10.931464915428572,-5.226369432042857,17.61282377904762
9.177427667,-11.578692271,-11.399635740761905,-5.006895417661905,17.949494205714284
9.187372667,-11.536561383714286,-11.803493681904762,-4.608344562757143,18.091478714285717
9.197317667,-11.303864865619047,-12.160945613333334,-4.087661731328571,18.035408005714288
9.207263667,-10.879962571809523,-12.48563604095238,-3.486698745090476,17.800186304285713
9.217208667,-10.32531880552381,-12.800934225714286,-2.907044126328571,17.508257212857142
9.227153667,-9.726587353142857,-13.118640126666666,-2.483333189566667,17.326274074761905
9.237098667,-9.13120681474762,-13.436897392380953,-2.2725846131380956,17.30896237238095
9.247043667,-8.487914414128571,-13.756743986666669,-2.2697449128523806,17.38178369047619
9.256988667,-7.701905958128572,-14.020429912380953,-2.43226246642381,17.41820175952381
9.266933667,-6.726926128985714,-14.200394624761906,-2.730317921947619,17.38788048761905
9.276878667,-5.614117820414286,-14.304935155714288,-3.101557086852381,17.303133512380953
9.286824667,-4.4643325277,-14.306390388571428,-3.4201277630428573,17.128214282380956
9.296769667,-3.4257869766999995,-14.226109955142855,-3.6361800981904757,16.87217601
9.306714667,-2.5907638182714288,-14.041052178857145,-3.742388909380953,16.515145182142856
9.316659667,-1.9037312095571426,-13.649171368047622,-3.70511846447619,16.015870098619047
9.326604667,-1.1709601766047621,-12.920563469238097,-3.4955212326190472,15.670094526761906
9.336549667,-0.1254194903190476,-11.797079676380953,-3.101136198666667,15.87061087009524
9.346494667,1.3318597081095238,-10.267923301142858,-2.5086883454285713,16.655880141047618
9.356439667,3.0568048926333335,-8.422485462095237,-1.709896121857143,17.836260546761906
9.366385667,4.808149309014286,-6.348269018285715,-0.7623913567619047,19.11922106628571
9.376330667,6.447120459585714,-4.055662856857143,0.25948999161904784,20.41194119914286
9.386275667,8.05271887720476,-1.6333738611428572,1.2532791440000002,21.774050685333332
9.396220667,9.720345338204762,0.8383810202857143,2.150659613857143,23.240397485333332
9.406165667,11.420885107728571,3.3279690736190473,2.995337332904762,24.757771112476192
9.416110667,13.070957461538095,5.742548599333334,3.821594373809524,26.16642507104762
9.426055667,14.533248475728572,7.986468616000001,4.612706084571429,27.3045019572381
9.436000667,15.691519846204764,9.992763636,5.263702191619048,28.073188476285715
9.445946667,16.472035037809526,11.712588581238094,5.629889612809524,28.367082694380947
9.455891667,16.83732507842857,13.104534360761905,5.679465216776191,28.16694128057143
9.465836667,16.791428834857143,14.141963316523809,5.468935075585715,27.694235833000004
9.475781667,16.370660300714285,14.823628153190477,5.1069940833952385,27.357455587761905
9.485726667,15.71947535638095,15.178553864666666,4.734227375347619,27.234329349190478
9.495671667,14.991969991714287,15.227650762761904,4.41513991682381,27.307332889666668
9.505616667,14.266834754142858,15.008811700285714,4.126763203966667,27.621420378238092
9.515561667,13.477285837142858,14.530488938761906,3.808161189680953,28.294446624666666
9.525507667,12.484991483666667,13.731378014142857,3.4021408650619045,29.39870261390476
9.535452667,11.204446578190476,12.537413276285712,2.896679115490476,30.520110711952384
9.545397667,9.600891010571429,10.95634298152381,2.3273619006809527,31.047883875761904
9.555342667,7.741282583904761,9.065891884857143,1.7297335814428572,30.768052062904765
9.565287667,5.81377406152381,6.976432752000001,1.1084690064428573,29.849507636238098
9.575232667,4.057044415238094,4.787627699142856,0.46723969872857163,28.634642595761903
9.585177667,2.504713797904761,2.5096227591428564,-0.14964408636666662,27.299052866238092
9.595122667,0.9663584995238091,0.21292577390476097,-0.7355839048428572,25.84396238719048
9.605068667,-0.7115185481904766,-2.052921078952382,-1.302196893938095,24.250087136714285
9.615013667,-2.543027845761905,-4.266610990380953,-1.8688858687476189,22.577164359095235
9.624958667,-4.378450183619048,-6.324773179809525,-2.457310837795238,20.94372842195238
9.634903667,-6.027315491333334,-8.127658741809524,-3.020042486890476,19.488384700047618
9.644848667,-7.393082618285715,-9.620412997809526,-3.4741134200333326,18.322761779190476
9.654793667,-8.392417325952382,-10.74913522761905,-3.729733501547619,17.53479071680952
9.664738667,-9.032083088380952,-11.49304473295238,-3.7326927495476188,17.166775420476192
9.674683667,-9.421708767190475,-11.908863877476191,-3.5194809708809522,17.106811494571428
9.684629667,-9.62971366295238,-12.047929627380954,-3.138248225309524,16.976222183571426
9.694575042,-9.663735380952382,-11.930211672000002,-2.667898372404762,16.623186382190475
9.704520042,-9.565852016428572,-11.59452098895238,-2.206131786547619,16.09365809547619
9.714465042,-9.398505122095239,-11.097066416428573,-1.7465419795,15.442935953571428
9.724410042,-9.079451076047619,-10.489035065000001,-1.2451050704761906,14.639801871714289
9.734355042,-8.483070190857141,-9.775174150047619,-0.693494811947619,13.584211103238095
9.744300042,-7.70558469252381,-9.003199568857143,-0.1380482089999999,12.37428521004762
9.754245042,-6.966518463428571,-8.210463724619048,0.32821011752857154,11.212326026809524
9.764191042,-6.4224700466666675,-7.457541460428572,0.6376535406640477,10.261429176809523
9.774136042,-6.074437422476191,-6.7801486272857145,0.7481559344545239,9.521400484761903
9.784081042,-5.830661321761904,-6.146606598333333,0.6767122033530953,8.870145170190476
9.794026042,-5.614750015904762,-5.562905093857144,0.4461784868307145,8.23849174095238
9.803971042,-5.410679238190476,-5.048373059571429,0.10407983997357155,7.652499303809525
9.813916042,-5.246505767047618,-4.580971950190477,-0.26959062502642844,7.17172482152381
9.823861042,-5.09112199752381,-4.128599605476191,-0.5962756773121428,6.774204909809524
9.833807042,-4.882964572952382,-3.618766616666668,-0.772929626550238,6.368995566761904
9.843752042,-4.562679242571428,-2.974859339666667,-0.8029388876930952,6.079564146666667
9.853697042,-4.010228098523809,-2.1295096917619056,-0.6717409005978571,6.195619813714286
9.863642042,-3.1077211103809526,-1.052557595761905,-0.32943437132166653,6.9109652532380945
9.873587042,-1.8242094110952383,0.2541335524285708,0.22967207333071438,8.222735703380952
9.883532042,-0.1735224175714287,1.7945826273809518,0.995479324997381,9.958107188285714
9.893477042,1.7868897236666665,3.553774285857142,1.939002227045,12.010150766904761
9.903422042,3.8544617812380957,5.43191445995238,2.9729089103307142,14.297959889238095
9.913367042,5.865080232,7.301687268809523,4.038042398283094,16.666895556904763
9.923313042,7.817700735666667,9.107212375333333,5.052256661711666,18.958377916904762
9.933258042,9.670865976285715,10.79397237390476,5.946745481259287,20.996612085428573
9.943203042,11.277031991571429,12.256616754666666,6.640024586540237,22.676256096285712
9.953148042,12.561688380857143,13.447452563952382,7.023153688592619,23.89556193519048
9.963093042,13.513556617,14.309575311619048,7.073178052459285,24.640149573190477
9.973038042,14.20936987795238,14.799723760285712,6.8399530018,24.996219757952378
9.982983042,14.701828450190476,14.9283836103,6.4287897584380955,25.225578266190475
9.992928042,14.956928240857142,14.69330243063333,5.913538878682381,25.640109062666667
10.00287404,14.960134464095239,14.136851345680952,5.352174406014286,26.34275609095238
10.01281904,14.74458373652381,13.328816707109524,4.8232555203952385,27.29983628
10.02276404,14.388303642619048,12.32073403582381,4.324079722585715,28.435122202761903
10.03270904,13.912175230190476,11.165720163014285,3.796480498252381,29.708668903523808
10.04265404,13.238167628714285,9.850114990299998,3.1403406374904765,31.18213103657143
10.05259904,12.357104524142855,8.336664570538094,2.3486867505857143,32.657336977619046
10.06254404,11.290653275619048,6.60688376625238,1.478734107585714,33.696909742857144
10.07249004,9.972079248952381,4.630695169109523,0.5419573402047619,34.07295938761905
10.08243504,8.335030384666666,2.43329203625238,-0.4475805522238095,33.77979269428572
10.09238004,6.419348329428573,0.06148249863333262,-1.4528128173666668,32.91682396761905
10.10232504,4.303645500761905,-2.4490435989857153,-2.4692837789857145,31.568148439047615
10.11227004,2.136542054809524,-5.001219301842858,-3.459878917747619,29.881731370952377
10.12221504,0.06990390900000024,-7.464649140414288,-4.424728835699047,28.038412724285713
10.13216004,-1.8441498220476191,-9.766211732795238,-5.354279906322857,26.158185113333335
10.14210504,-3.5912692496190473,-11.843095788033335,-6.189018848313333,24.39964863333333
10.15205104,-5.131457204714286,-13.639726305176193,-6.833293232760951,22.956697161428572
10.16199604,-6.381229021857143,-15.1136562297,-7.1853678281699995,21.943507030952382
10.17194104,-7.28172108747619,-16.211039610842857,-7.223184124601905,21.353928473190475
10.18188604,-7.8895318594761905,-16.894484256461904,-7.012052666911429,21.088591756904762
10.19183104,-8.287210212333335,-17.161896946809527,-6.643985672197142,20.905780671380953
10.20177604,-8.461353269714285,-17.03778213752381,-6.200486978101904,20.536743159952383
10.21172104,-8.376639672476191,-16.550175891238098,-5.70864076234,19.85330270495238
10.22166604,-8.08579387557143,-15.77625285071429,-5.200932428720952,18.88477873142857
10.23161204,-7.639885432619048,-14.801292790571429,-4.680063544387619,17.696117501666667
10.24155704,-7.065330143047619,-13.69931658852381,-4.110227291911428,16.343106541714285
10.25150204,-6.3811090150476195,-12.55320526847619,-3.4601839470066666,14.883642699476193
10.26144704,-5.630184075809524,-11.39252226957143,-2.766876009030476,13.363327223904761
10.27139204,-4.946154959190475,-10.250949446952381,-2.1184229672876187,11.910860282761906
10.28133704,-4.409942284857142,-9.147824239238096,-1.5771280601114284,10.599073579285715
10.29128204,-3.966801607571429,-8.082653419714287,-1.1806511152066665,9.413127214857143
10.30122704,-3.5702335294761904,-7.059066661319049,-0.9387284148257141,8.344538195809523
10.31117304,-3.220385122238095,-6.0802062577000004,-0.8302523318733331,7.386546480142856
10.32111804,-2.942999281666667,-5.1638000761333345,-0.8176116122542855,6.546332923190475
10.33106304,-2.7652177247142857,-4.329386280800001,-0.8162968240490475,5.837109996285714
10.34100804,-2.655478448238095,-3.5651511855142863,-0.7701239236633332,5.2794507799523815
10.35095304,-2.5122774499528573,-2.84495589832381,-0.6786147898633331,4.863771939904762
10.36089804,-2.273415377095714,-2.140117237228572,-0.5480928800823808,4.570063598761905
10.37084304,-2.0271353872861906,-1.439200080990477,-0.36694178157809504,4.386752500809523
10.38078804,-1.929832929667143,-0.7443388859904768,-0.14186513220809505,4.343449147190476
10.39073404,-1.9731753878100002,0.0004732624380945455,0.14982313710142878,4.5112022996666665
10.40067904,-2.0221694861909527,0.8508341134380947,0.5639739317680954,4.899669686619047
10.41062404,-1.928908679724286,1.8685749929619042,1.1595746871966668,5.580959685666667
10.42056904,-1.53671423553381,3.0846373890571424,1.9134942500061907,6.660052927333332
10.43051404,-0.6385737251528574,4.467707429485714,2.7758859421014286,8.168005414666666
10.44045904,0.8201747114185713,5.97956551315238,3.6759740487204766,10.086924743952382
10.45040404,2.691303572799524,7.527260875390477,4.519903045768095,12.253223568190476
10.46034904,4.754627934799523,9.041609399628571,5.300949749434762,14.463225417571428
10.47029504,6.749945280323333,10.409295972628572,6.045861398125238,16.56354498742857
10.48024004,8.49188862703762,11.531117624771428,6.735140144953809,18.397963876190477
10.49018504,9.854844914132856,12.407024877057143,7.375750288253809,19.83006903442857
10.50013004,10.796983188275712,13.041265369914285,7.914489990063334,20.811132489809523
10.51007504,11.411493421609046,13.451736734519049,8.230334471587142,21.369566528857142
10.52002004,11.804604402942381,13.63911251428095,8.273751328644286,21.61464755771429
10.52996504,12.062149137275714,13.610676140214284,8.068675748644285,21.820451822952382
10.53991004,12.211747532418572,13.37663682297619,7.65179040615238,22.168416269476193
10.54985604,12.17745692603762,12.91658056845238,7.078630053057142,22.666236507238096
10.55980104,11.863671082085713,12.213702116976192,6.412771214580952,23.336299337761904
10.56974604,11.275138218133332,11.277809560166665,5.675866297819049,24.177609582714286
10.57969104,10.514906822609523,10.161217852738094,4.842537495438095,25.162724327809524
10.58963604,9.71061303775238,8.902721599833333,3.9030484968666666,26.26139803823809
10.59958104,8.911906072561905,7.497978854642857,2.880634773342857,27.320572437285712
10.60952604,8.137739481657142,5.953337882738095,1.8293750085333333,28.145756497285713
10.61947104,7.357994396047618,4.211252086547619,0.7502615032952381,28.558871932047616
10.62941704,6.43692842904762,2.272290650833333,-0.3079857397523809,28.41827903490476
10.63936204,5.202522231380952,0.20311940749999938,-1.2955152533238095,27.680037826333336
10.64930704,3.5721989737619047,-1.9369824039285721,-2.1650355643714287,26.384327372047622
10.65925204,1.641710153619047,-4.05754087202381,-2.874199772752381,24.731872120142857
10.66919704,-0.4204684882380957,-6.066763898690477,-3.497970352990476,22.933275299190477
10.67914204,-2.4328513502857145,-7.861534444404762,-4.128529369514286,21.188388415857144
10.6890865,-4.2205978584285715,-9.370813961928572,-4.789105373755714,19.687333295857144
10.6990315,-5.59232185052381,-10.568584847357144,-5.468997111803333,18.52303434704762
10.7089775,-6.501127849095238,-11.462845813452383,-6.051272215946191,17.73610021114286
10.7189225,-7.069225947428572,-12.10038708754762,-6.396397562612857,17.319712935190477
10.7288675,-7.411832271823809,-12.491508177880952,-6.465841935765238,17.17512539738095
10.7388125,-7.612677168519047,-12.640869315285716,-6.294308462860476,17.02527122752381
10.7487575,-7.7247598558999995,-12.55589362357143,-5.961661241479524,16.69913865390476
10.7587025,-7.716221807280952,-12.248503018619049,-5.537543951193809,16.20113509842857
10.7686475,-7.524592790709524,-11.72847036969524,-5.05681564519381,15.501579890619047
10.7785925,-7.133756933138095,-10.99962153777619,-4.53291337867,14.569138100857144
10.7885385,-6.566510774090476,-10.11580740194286,-3.949278936336667,13.429562987809524
10.7984835,-5.859970573471429,-9.13404513647143,-3.3017463923842856,12.13434384657143
10.8084285,-5.1046586914238095,-8.122772224566667,-2.6347139760985714,10.794696170095238
10.8183735,-4.447195424757143,-7.137917840328573,-2.0560261594319047,9.58406466152381
10.8283185,-3.9977074832809527,-6.185492865886668,-1.6310115166223809,8.588142257095239
10.8382635,-3.7619506440904766,-5.301636741362858,-1.3904487672414285,7.824478457142856
10.8482085,-3.731645583423809,-4.512586104515238,-1.3145181890985713,7.27141983847619
10.8581545,-3.8539626801857145,-3.828584804039048,-1.3476644953842858,6.8740025456666665
10.8680995,-4.0440760706142855,-3.2462243999438103,-1.4462357500509522,6.569809996285715
10.8780445,-4.243857080376191,-2.771180325658096,-1.5569578599557141,6.34000336247619
10.8879895,-4.395520405804762,-2.40198466494381,-1.6317815183790476,6.157059754571428
10.8979345,-4.478760838804762,-2.094778539658096,-1.6256487428138093,5.973661761809524
10.9078795,-4.573658503661905,-1.8687175811342864,-1.5338317740090477,5.842749877190476
10.9178245,-4.679034044852382,-1.7507164952295244,-1.4400096487931904,5.780087093333333
10.9277695,-4.794206902138096,-1.7041911191342867,-1.3744372879074762,5.775224061714286
10.9377155,-4.969032775076191,-1.7000319250390483,-1.358924979812238,5.852931107
10.9476605,-5.195247849476191,-1.641059288610477,-1.388735393859857,5.977900651142857
10.9576055,-5.229485218333333,-1.3775862711819056,-1.4125728910503332,6.072987403761904
10.9675505,-4.665225900761905,-0.828653201658096,-1.409514880812238,6.6301179225714275
10.9774955,-3.1688349550476187,0.05172046037047551,-1.2509155324789045,8.090926347047619
10.9874405,-0.8160107697619046,1.2265375998799992,-0.7909681336217619,10.466257544428572
10.9973855,1.8728697445238098,2.5760630273799996,-0.023523821669381002,13.280862260333333
11.0073305,4.514307844380952,3.9196146890514285,0.9341060729496666,16.055307604904765
11.0172765,7.086574441380952,5.188094421908572,1.9941583933306193,18.650153817095237
11.0272215,9.592579805666666,6.369328936241904,3.0359049399972857,21.013449869000002
11.0371665,11.959644522761906,7.408711864180951,4.0042925905210955,23.080776502952382
11.0471115,14.020467724047622,8.236811891561903,4.8518163722829994,24.72137669385714
11.0570565,15.64030244104762,8.804297466142858,5.52460744675919,25.787447474904763
11.0670015,16.807814264,9.136657185523811,5.954830093283,26.262870233428576
11.0769465,17.630796140047618,9.258625732557142,6.0780611168068095,26.283780443285714
11.0868915,18.203613888,9.189936763938094,5.903688124616333,26.199503409857147
11.0968365,18.508905231142858,8.953908961795237,5.4840733018491905,26.393066450619045
11.1067825,18.511599878714286,8.55299608260476,4.886251711001571,26.92811268147619
11.1167275,18.250470439476192,8.022241672842856,4.214084221196809,27.71081746204762
11.1266725,17.775641528761906,7.432174875414286,3.5769156653619043,28.648256217999997
11.1366175,17.17860414009524,6.822828930890476,2.9990479834285715,29.65610777033334
11.1465625,16.52323726704762,6.1912298618428565,2.494652118666667,30.691291423000003
11.1565075,15.818361517761906,5.455549574366667,2.0685414846666665,31.77064662709524
11.1664525,14.94829215342857,4.4896315790333325,1.732763872809524,32.859618188
11.1763985,13.613977310571428,3.2492538704619043,1.5088932534761905,33.34766297038095
11.1863435,11.467447793904764,1.698465637128571,1.253798265857143,32.80106360038095
11.1962885,8.543781272952382,-0.13981186858571493,0.7841213925238096,31.252379368476195
11.2062335,5.338587078190476,-2.1470083062047625,0.01763472919047631,29.204252714190478
11.2161785,2.2552843305714285,-4.1142497171571435,-0.9684681333333333,27.104007859904762
11.2261235,-0.6552762970476189,-5.952389116680954,-2.080541057,25.063848372761907
11.2360685,-3.3629936722857146,-7.65545761239524,-3.1907766183809523,23.11992833895238
11.2460135,-5.790738900047619,-9.146266053966668,-4.240414727380953,21.331886325142857
11.2559595,-7.835565233095237,-10.36237673134762,-5.18208129847619,19.88958799847619
11.2659045,-9.420715826095238,-11.269352635157142,-5.992251841571429,19.002730124190474
11.2758495,-10.542043833857141,-11.897514307109523,-6.63019729752381,18.704092376571428
11.2857945,-11.309109594095238,-12.275587530619047,-6.988610650571429,18.84020447847619
11.2957395,-11.800509681047618,-12.413759394380953,-7.038157798095238,19.029335971428573
11.3056845,-12.016139596666667,-12.332780970666667,-6.798237741238094,18.897894453809524
11.3156295,-11.965799107238094,-12.059735741190476,-6.330775055095238,18.425852232809525
11.3255745,-11.684184504857143,-11.622192937761906,-5.741395389,17.695218783380952
11.3355205,-11.262836845809524,-11.077850099857145,-5.108542356755239,16.828029440142856
11.3454655,-10.762309449952381,-10.494646750238095,-4.486090616088571,15.905675255428573
11.3554105,-10.167001612095238,-9.871166470476192,-3.9112034550742854,14.910372710190476
11.3653555,-9.493133898,-9.22682379847619,-3.40079462678381,13.873382115428573
11.3753005,-8.82720483757143,-8.587573299857144,-3.004773277374286,12.886490928857143
11.3852455,-8.23556540347619,-7.9565698810952386,-2.7529670840409524,12.003941309285713
11.3951905,-7.701723134857143,-7.324569205571429,-2.6150839892076188,11.194253095809524
11.4051355,-7.199615041952381,-6.7003167591904775,-2.546668113445714,10.424704941761904
11.4150815,-6.716616039714286,-6.078637394014287,-2.4517628054219047,9.68110126847619
11.4250265,-6.264109375904762,-5.478352489730954,-2.2778605698028573,8.997449504952382
11.4349715,-5.8161996539047625,-4.881745706969048,-2.0222797759933333,8.370501661619048
11.4449165,-5.327062857033333,-4.250313687207144,-1.675586804755238,7.844788719904761
11.4548615,-4.794787809033333,-3.5962445063023813,-1.2516450145171427,7.5246214105238085
11.4648065,-4.218785221938096,-2.9258036227785724,-0.8432812648504763,7.344950236571428
11.4747515,-3.581116979747619,-2.2019031779214293,-0.46321958427904764,7.239940572
11.4846965,-2.842733510795238,-1.3540311524928579,-0.030893513279047588,7.285824193904762
11.4946425,-1.9262241674619045,-0.327489879635715,0.4982514366257143,7.6323843867619034
11.5045875,-0.6192959563666666,0.8958524670309516,1.1436318500066667,8.503321694380952
11.5145325,1.2114835531095238,2.2687889766499993,1.858878638482857,10.01525134247619
11.5244775,3.4086405463,3.7299175919357133,2.549780224244762,11.98506047395238
11.5344225,5.671843343442857,5.177681838983332,3.185101101959048,14.071564549095239
11.5443675,7.85781057534762,6.497072443459523,3.8008271382857144,16.03413054138095
11.5543125,9.894520750442856,7.663598147649999,4.4771573233333335,17.797773918476192
11.5642575,11.746715214014285,8.667755221221427,5.258417449938095,19.391310166095238
11.5742035,13.437077264204762,9.502495708745236,6.070158471647618,20.802250873714286
11.5841485,14.884278479966667,10.146663994411902,6.790968537857142,21.912520227428573
11.5940935,15.993251321109524,10.574050824840475,7.3187205976190475,22.634487971285715
11.6040385,16.780936758204763,10.75383051455476,7.583319468595237,22.982001758095237
11.6139835,17.26440534772857,10.682579713697619,7.559073793985714,23.07449624142857
11.6239285,17.448718105319045,10.34561478295,7.222959674914287,23.365713371142856
11.6338735,17.371673465557144,9.772999014380952,6.626760011342856,23.995337116571427
11.6438185,17.006063916414284,8.981860823999998,5.800842582628571,24.95572255704762
11.6537645,16.221998796685714,7.977419603761903,4.718481617057142,26.243606305428568
11.6637095,14.994832398828569,6.811794677285714,3.392232896771428,27.75914974242857
11.6736545,13.494592175733333,5.562121232571427,1.9954787567714283,29.37469320495238
11.6835995,11.993174072733334,4.250353336761903,0.7601925669142854,30.811276149999998
11.69354487,10.621090198685714,2.849074119619046,-0.23218115589523844,31.774031776190473
11.70348987,9.277035231066666,1.34007560295238,-1.0735977713238098,32.14286390666667
11.71343488,7.680444866780952,-0.2946703494285724,-1.8281380160380956,31.775708282380954
11.72337988,5.703327926495239,-2.0136510680000006,-2.4992299453238096,30.604195336666667
11.73332587,3.5285267599714283,-3.7403837460952394,-3.0379313477285717,28.83859031809524
11.74327088,1.374891400780952,-5.402857584857144,-3.510877900776191,26.904747009999998
11.75321588,-0.7132653896952382,-6.928212657428572,-4.051421440633334,25.07246669485714
11.76316088,-2.707487941695238,-8.281580958809524,-4.739340041396667,23.427239051999997
11.77310588,-4.521959622504762,-9.465242568857143,-5.582097506825239,21.946028449333333
11.78305088,-6.091748800361905,-10.461498104857142,-6.5152770393966675,20.602791874809526
11.79299588,-7.319583339933334,-11.226220690952381,-7.411079136920476,19.522475139761905
11.80294088,-8.175344150052382,-11.745639744333333,-8.14485605820619,18.8366872752381
11.81288688,-8.725705387712857,-11.999571539761906,-8.65080248630143,18.54897988852381
11.82283188,-9.032832004798571,-11.980022014619049,-8.916597252072856,18.56584186347619
11.83277688,-9.113971310484285,-11.701268760857143,-8.910141285596668,18.412098985047617
11.84272188,-8.993476679484287,-11.18945387204762,-8.589001008644285,17.84339775290476
11.85266687,-8.654856374198571,-10.492381956009524,-7.981133553691905,16.89271127804762
11.86261187,-8.022971028246191,-9.64080853195238,-7.092042389068095,15.561586278333333
11.87255687,-7.120910488960476,-8.690528288304764,-5.939856452258572,13.920025470761905
11.88250187,-6.110842075579525,-7.712226544433334,-4.648354505068095,12.167598132809523
11.89244787,-5.226735662531905,-6.737074639810476,-3.4439020198776196,10.593148729809522
11.90239287,-4.622135847389048,-5.798136476915238,-2.4999189071157146,9.385503692619048
11.91233787,-4.276407861436667,-4.924389353148572,-1.806852835306191,8.535892906047618
11.92228287,-4.16156147381762,-4.120871089862858,-1.333400971687143,8.016587554142856
11.93222787,-4.309203529722381,-3.3878598335771435,-1.0591727110680953,7.803891800809525
11.94217287,-4.708360504150953,-2.7184383705295243,-0.9526138048061906,7.843260369380952
11.95211787,-5.193391914960476,-2.0749258084342865,-0.8978234450442858,7.98343749557143
11.96206287,-5.580476727817619,-1.4090993804342864,-0.8009226076157147,8.116500652619047
11.97200887,-5.836162966293809,-0.7308886889104769,-0.6419561655190478,8.221062809285716
11.98195387,-6.046590085103334,-0.06423412810095303,-0.4074015415666669,8.329164229571429
11.99189887,-6.270753288008096,0.5998022444704755,-0.11572438194761926,8.460426058857143
12.00184387,-6.5389169557699995,1.2553039096609515,0.20860613576666645,8.627254147238094
12.01178887,-6.844484343174762,1.9203193845657136,0.5733970399571426,8.862447243190477
12.02173387,-7.098993676466667,2.6735695942799995,0.9980124850523808,9.217808424190476
12.03167887,-7.07472358277143,3.624315165041904,1.5706129671476188,9.784053209
12.04162387,-6.523326580247618,4.838123487327619,2.3580632350523807,10.789681341476191
12.05156987,-5.403064714819048,6.263518264232381,3.300889615242857,12.403700990761903
12.06151487,-3.6692856682,7.847759253432382,4.385323871242857,14.634701631333334
12.07145987,-1.3008871455809525,9.495879486518096,5.513590825666666,17.419168934380952
12.08140487,1.5893169298952377,11.09069719763238,6.582252795047618,20.54258180195238
12.09134987,4.764549379371428,12.470594789475237,7.578792394523809,23.684600709904764
12.10129487,7.86231997632381,13.4572879839,8.482012562190475,26.467781952428574
12.11123987,10.467107923561905,13.985770959576191,9.213897644666666,28.516546914857145
12.12118487,12.296315005228573,14.134815762619047,9.666377633809523,29.60273348809524
12.13113087,13.544556049038093,14.037794152333333,9.751014214857141,29.889307392380953
12.14107587,14.574902439323811,13.804477843333334,9.410380824571428,29.85040649190476
12.15102087,15.515577433942857,13.437499572333333,8.655298194999999,29.963604553333333
12.16096587,16.319171223466668,12.913504209571428,7.5941052639999995,30.317319069047624
12.17091087,16.89275382877619,12.162151560809523,6.433870467857143,30.83676031952381
12.18085587,17.194589439538095,11.167807813523808,5.385896392714286,31.42686461714286
12.19080087,17.234244949823808,9.949097297047619,4.504109402761904,32.11381484428571
12.20074687,17.017482094395238,8.540158868095236,3.8094949323809524,32.93647521809524
12.21069187,16.596525446966666,6.972783309476191,3.2040214598095234,33.904067653333335
12.22063687,16.043726003538094,5.275065155428571,2.537013734047618,34.95425817428571
12.23058187,15.357882579252378,3.423650125904761,1.7377175088095236,35.98021278238095
12.24052687,14.41459738735714,1.3281091092380946,0.773278789285714,36.80698166952381
12.25047187,13.074476426404761,-1.0048210107619053,-0.34492725119047646,37.08929092095238
12.26041688,11.424296163547618,-3.4797150669523815,-1.5578134676190476,36.60214771904762
12.27036188,9.461788992738095,-5.995555336952381,-2.7918656860476196,35.262592143333336
12.28030787,7.086836381785712,-8.44815184409524,-3.9141321442380965,33.16572078857143
12.29025288,4.34134295822381,-10.731205270285715,-4.822508289095238,30.58147785761905
12.30019788,1.4062018055333327,-12.676604880285714,-5.590142677285715,27.82685458142857
12.31014288,-1.4252885953714292,-14.138207203666669,-6.352985815142857,25.242035221904764
12.32008788,-3.719146256038096,-15.077349281333335,-7.094798481333335,23.214387651904765
12.33003288,-5.158221178638096,-15.56244158695238,-7.727219473761905,22.008277840380952
12.33997788,-5.927885636352381,-15.746519481380952,-8.186747919619048,21.557041469333335
12.34992288,-6.390320816666668,-15.75486231652381,-8.344884363380952,21.41926381838095
12.35986888,-6.711950477652382,-15.62244437747619,-8.12372008604762,21.08772891604762
12.36981388,-6.912967143257144,-15.349153815380951,-7.565718987714286,20.44992812342857
12.37975888,-6.923966048257142,-14.85521756845238,-6.830149505095239,19.585787617190476
12.38970388,-6.706051263542858,-14.131963574823809,-6.135473694428573,18.621094642428574
12.39964887,-6.269129656966667,-13.20504435001905,-5.522023011285715,17.491354773190476
12.40959387,-5.6605677405,-12.1021218178,-4.931933200866668,16.183211190566666
12.41953887,-4.96686306902381,-10.88694858837619,-4.289921786342857,14.852277270757142
12.42948387,-4.213300478547619,-9.614083916819048,-3.5569317332952384,13.4481245779
12.43942987,-3.445082705261905,-8.329588493142857,-2.7388054132,11.996979508757144
12.44937487,-2.7429403901190477,-7.063869954538096,-1.9044702491047627,10.565008622090478
12.45931987,-2.190837851452381,-5.858252411819048,-1.1647773865333337,9.288032116376192
12.46926487,-1.9005632717380954,-4.7511323027719055,-0.5799646673904766,8.297657782757144
12.47920987,-1.9053966636904764,-3.7844446047861915,-0.21915860586666708,7.619072883661905
12.48915487,-2.1217764151190477,-2.9542671449242865,-0.11374747324761943,7.159874108614285
12.49909987,-2.4729817383666663,-2.234887265900477,-0.231216587819048,6.831145438709523
12.50904487,-2.900433584295238,-1.644340036000477,-0.4732343751047623,6.625192458757144
12.51899087,-3.3228318209142857,-1.1388094006433338,-0.705009556445667,6.571144043757143
12.52893587,-3.718713853438096,-0.6810134569290481,-0.839061931493286,6.631316558661904
12.53888087,-4.0842410126,-0.2877863944528577,-0.8205330378742385,6.729144630519047
12.54882587,-4.410678421361905,0.07020581983285663,-0.5630173447504289,6.747544884804762
12.55877087,-4.686532235761905,0.4230897394995233,-0.11233150389328607,6.679563005328571
12.56871587,-4.902666487633334,0.7881991289757138,0.37196228786861874,6.5957429477571425
12.57866087,-5.112732276361905,1.2093454767852376,0.7602028866162378,6.638450489900001
12.58860587,-5.320857569100001,1.7725393760471424,1.0665658573305234,6.9405446709
12.59855187,-5.35829219549,2.5996032209899997,1.3671131803781424,7.570078645185713
12.60849687,-4.986683542256666,3.787585923328095,1.7353214340924281,8.735743211090476
12.61844187,-3.94215673491381,5.292573250156666,2.2302000298638567,10.623937315142857
12.62838687,-2.1281862997233336,7.046926421209047,2.938136072482904,13.11191947495238
12.63833187,0.3880408331338091,8.97423708489,3.7429552718162378,16.14692463257143
12.64827687,3.2886682108004757,10.91529881264238,4.414607559340047,19.37077375266667
12.65822187,6.141053414229047,12.671251030228095,4.870754170482904,22.29456546695238
12.66816687,8.700483312229048,14.124989600366192,5.2051614664352845,24.684083891714284
12.67811287,10.914033141562381,15.258850864176193,5.514519026006714,26.52626898390476
12.68805737,12.774257613848095,16.11085366857143,5.82642426619719,27.878459503952378
12.69800237,14.290516451467143,16.70532719204286,6.0955081116733805,28.80898867804762
12.70794737,15.55228909399095,17.039477273161907,6.222168269625762,29.36012147223809
12.71789237,16.641970689752856,17.104050748642855,6.1566499815733815,29.575416869809526
12.72783737,17.55636161475286,16.84689037133333,5.89194488967619,29.66110215433333
12.73778237,18.22588358051476,16.230323588619047,5.396265921866666,29.99974075657143
12.74772738,18.58365055173857,15.296390099238094,4.680795658295238,30.735310612428574
12.75767337,18.66936563778619,14.103493341142856,3.7915494589809517,31.781631915380952
12.76761837,18.551127864929047,12.677461356952378,2.893305146552381,32.981644812
12.77756337,18.267315656024284,11.052176839714283,2.217364991266666,34.228744598571424
12.78750838,17.850338345119525,9.239227996857142,1.8369202345666662,35.46563389238095
12.79745338,17.329976108024283,7.197440099714284,1.6292461241380947,36.57797639190476
12.80739838,16.598648697033333,4.879061527809524,1.5000472234999995,37.41369270142857
12.81734338,15.475823941319046,2.2448532311428564,1.3070499027857139,37.750106620000004
12.82728938,13.778548755604762,-0.6519257874285719,0.9179451828333329,37.33321028142858
12.83723438,11.488356268938094,-3.692346726476191,0.2775813741666661,36.06611018952381
12.84717938,8.664793300033333,-6.778720654571428,-0.4549490600238101,34.04904604285714
12.85712438,5.60782379417619,-9.76003771504762,-1.0519679324523814,31.667401553333338
12.86706938,2.7517155015095236,-12.421097428380952,-1.4416991673571435,29.40494403761905
12.87701438,0.30686187774761864,-14.65528706552381,-1.7328212590714291,27.500193422857144
12.88695937,-1.7100488318238096,-16.48452488695238,-2.0599671275952387,26.002897611904764
12.89690437,-3.328731229633333,-17.967998079809526,-2.4252326447380956,24.911810002380953
12.90685038,-4.602938226871428,-19.162202330761904,-2.732809692309524,24.211683335238096
12.91679538,-5.619530100442857,-20.093534115190476,-2.872456349166667,23.861534020476192
12.92674037,-6.424858939919049,-20.72835518104762,-2.7825174433523814,23.784813676666666
12.93668537,-7.008428645442858,-21.024519354761907,-2.435733450447619,23.77014575333333
12.94663037,-7.339414450109523,-20.962260930952382,-1.812698652209524,23.474935474285715
12.95657537,-7.41572094852381,-20.591472892428573,-0.9765359894476194,22.816462685714285
12.96652037,-7.287758170142857,-19.979894592190476,-0.061219951300000505,21.88106817109524
12.97646537,-7.026330606190477,-19.163207800761906,0.7535053222204757,20.791488969523808
12.98641137,-6.659032102809523,-18.180975140666664,1.3233573068871425,19.63008490357143
12.99635637,-6.158787155428572,-17.073127944333333,1.6380988051299994,18.38174013609524
13.00630137,-5.569162727714286,-15.89096093852381,1.7758300777061902,17.056301003380952
13.01624637,-4.941908153952381,-14.685339636904763,1.7917631556395233,15.699301027476189
13.02619137,-4.325046783238095,-13.477422411904762,1.727077469318571,14.342033164571427
13.03613637,-3.788138123190476,-12.29767203242857,1.5669200572757138,13.041824029238095
13.04608137,-3.367192724857143,-11.16606690257143,1.3085583764185709,11.837837978809524
13.05602637,-3.064194659666667,-10.091890730619047,0.9850121443233328,10.761433579761905
13.06597237,-2.8539560161428574,-9.084765499030954,0.62774432346619,9.840926762714284
13.07591737,-2.7105396315238095,-8.152065577340478,0.29339423975190426,9.06994447947619
13.08586237,-2.605450130571429,-7.298778696388096,0.009946033799523349,8.432800290761906
13.09580737,-2.5358033462857144,-6.489088098245239,-0.1984286844385719,7.8965944326666655
13.10575237,-2.4996729830952384,-5.670001999292857,-0.33773856253380996,7.458159053571428
13.11569737,-2.405397322761905,-4.815283580578573,-0.4386513764861909,7.091356611666667
13.12564237,-2.166168907952381,-3.886281299054762,-0.48933582138142906,6.8436194104285715
13.13558737,-1.8356090311904762,-2.8389467423880963,-0.5112672237623814,6.7912648042380965
13.14553337,-1.4981611622380955,-1.6353873361976197,-0.5834283595004766,6.955527190428572
13.15547837,-1.1853648063809525,-0.2419977395309533,-0.6716681758100004,7.36455375947619
13.16542337,-0.7637285871904764,1.384756739564285,-0.6512913531909528,8.070570854714285
13.17536837,0.026151142952380656,3.23810639027857,-0.47136871295761945,9.168490931714286
13.18531337,1.3905696796190472,5.196059192659523,-0.16281807609714333,10.719259953761904
13.19525837,3.1539962257619045,7.138596340183333,0.19026748895047577,12.582215445904762
13.20520337,4.90086966647619,8.984864065754762,0.4928472868028567,14.413644796238097
13.21514837,6.462676559714285,10.624769267088094,0.7102204836076186,16.028193977047618
13.22509437,7.897009446428571,12.032856592135712,0.9060081791695234,17.46622148295238
13.23503937,9.226719523333333,13.22627489380238,1.2787005163952376,18.803544576333337
13.24498437,10.440392608047617,14.229202130516667,1.9263248998190472,20.098731202142858
13.25492937,11.50174494542857,15.01201349589762,2.7001129879142853,21.288029020666666
13.26487437,12.393274120571428,15.546394042516665,3.3148546246761903,22.18854584352381
13.27481937,13.084292609095238,15.830466842452378,3.588700971628571,22.67837171152381
13.28476437,13.48087808947619,15.822926328833335,3.456168594247618,22.896617487904763
13.29470938,13.537829580138096,15.495455577833333,2.9526071619619043,23.401537483761906
13.30465537,13.308456897900001,14.843193520642858,2.2151866459619045,24.272038340428573
13.31460037,12.857494567280954,13.890137353119046,1.4662443307714284,25.316432918095238
13.32454537,12.150380504185714,12.678052929166668,0.8593958504857139,26.447985875714288
13.33449038,11.18716819628095,11.250536865738095,0.411057917333333,27.5465335112381
13.34443538,10.090913494709524,9.6315528905,0.12728718180952348,28.48843140219048
13.35438038,9.02107267094762,7.858678274309524,0.03704976869047586,29.17832167980952
13.36432538,8.106850674804761,5.967134972880952,0.05589706409904728,29.483764693142856
13.37427138,7.237441878852381,3.9338280443095237,0.031049467337142526,29.333658410761906
13.38421638,6.113323022852381,1.785204054785714,-0.0729888573771432,28.648249726952383
13.39416138,4.531585560614285,-0.35184712521428596,-0.25423029532952424,27.36037037790476
13.40410638,2.6731011637571425,-2.3682951947380957,-0.4898019449961908,25.609386608857147
13.41405138,0.9362295803285712,-4.191688501309524,-0.718608366186667,23.756106845523806
13.42399638,-0.5565099459285717,-5.758945333738096,-0.9106126904628575,22.053388661380954
13.43394137,-1.9038891392761907,-7.082688382880953,-1.1071159251200005,20.51320485338095
13.44388637,-3.172607912104762,-8.22069292811905,-1.4897162300485718,19.103702910095237
13.45383238,-4.383995904961905,-9.237757757785714,-2.1211931968009528,17.818609460428572
13.46377738,-5.502416092580953,-10.1292270685,-2.819947112772381,16.743149408619047
13.47372237,-6.495307837009523,-10.872771289833333,-3.3037049166771433,16.03790443904762
13.48366737,-7.323363175104762,-11.442308081547619,-3.400946584153334,15.770888324333333
13.49361237,-7.903152669628572,-11.788850667952383,-3.092353617658095,15.805366401285713
13.50355737,-8.198775948004762,-11.870126018809524,-2.4372881617628575,15.590428670714285
13.51350237,-8.225872084528573,-11.670389280809525,-1.5911835829104766,15.020551141190476
13.52344737,-8.011420327195239,-11.228345429809524,-0.7800238373342859,14.23311579357143
13.53339337,-7.585413217052381,-10.59711667057143,-0.1625396268057146,13.312973444714284
13.54333837,-7.038569775433333,-9.850125738,0.21475213719428535,12.328128878190476
13.55328337,-6.459110036052382,-9.059419712714286,0.3804186321942854,11.338360928190477
13.56322837,-5.933124308909525,-8.297776381857144,0.40251816986095207,10.421068750571427
13.57317337,-5.567745279242859,-7.642052355238097,0.30645877461904736,9.693420638190476
13.58311837,-5.365719829957144,-7.097055408619049,0.13338734480952347,9.154693378190476
13.59306337,-5.259433097671429,-6.673751466142857,-0.0910438415714289,8.762927898190476
13.60300837,-5.25678525567143,-6.373328570523809,-0.32948655071428606,8.523760751761904
13.61295437,-5.363564184290477,-6.184932507333333,-0.527905437619048,8.436220841
13.62289937,-5.536418431814287,-6.109826498,-0.6691335435238098,8.471969187285714
13.63284437,-5.7041281040809535,-6.0837502550952385,-0.7478787972476194,8.532555640619048
13.64278937,-5.805107235209524,-6.056017523809524,-0.7818133081952384,8.545026882428571
13.65273437,-5.802588171171429,-6.010652569428572,-0.8066986125095241,8.504680671428572
13.66267937,-5.714102952780953,-5.92957393557143,-0.8933982304238098,8.429229304571429
13.67262437,-5.621919676780953,-5.780089728190477,-1.0929923728809525,8.349140634714285
13.68256937,-5.521696145114286,-5.496799341380953,-1.357163144119048,8.244297986047618
13.69251617,-5.225504545242858,-5.006598518333334,-1.5931824468809528,8.126436143619047
13.70246117,-4.477411524052382,-4.250015367904763,-1.7592994559476192,8.350963674952382
13.71240617,-3.1531108178142864,-3.2314259184285725,-1.8067697421000002,9.095272626952381
13.72235117,-1.3728453485285723,-2.0105313830952385,-1.6482165310952381,10.302055921714285
13.73229617,0.6527829050904753,-0.49318273600000073,-1.1790454627666669,11.929367156476191
13.74224117,2.83940875637619,1.6281513509523804,-0.667985588914286,14.081634584380952
13.75218617,5.526317367138095,3.8837459740952376,-0.4752957273428576,16.655482412809526
13.76213117,8.515877108233333,5.859304213571428,-0.44266149096666707,19.292375064238097
13.77207717,10.91029593537619,7.379774132238095,-0.3628564990571433,21.176781123285714
13.78202217,12.803430347614286,8.285929003238095,0.14889476627619014,22.36771772995238
13.79196717,13.99055754642381,9.084761377476191,0.641841386085714,22.87768824566667
13.80191217,14.980422493471426,9.573155814619046,0.9090480456095236,23.066762114238095
13.81185717,15.825642667042857,9.851233380819046,1.1279755263238092,23.11864239447619
13.82180217,16.410568216566666,9.958220191914286,1.4092570882761901,23.042677047095236
13.83174717,16.642255505185716,9.907103888342858,1.630327281133333,22.991828064476188
13.84169217,16.512002093995235,9.684701477009522,1.7281503567428567,23.23845293052381
13.85163817,16.035246525614284,9.305578344390476,1.7205659959666662,23.837377826238097
13.86158317,15.321301021071427,8.816448313819047,1.6141543977809518,24.681783616238096
13.87152817,14.542252450299998,8.315123246771428,1.4812444503047617,25.56656698085714
13.88147317,13.72178841334762,7.7394176982,1.3864860883999996,26.504673788714285
13.89141817,12.886290210395238,7.105180184628572,1.3191586022095234,27.431987409333335
13.90136317,11.955447893380953,6.357125281771428,1.2305714473999996,28.237710546952382
13.91130817,10.765258591047617,5.450013666914285,1.1437044181142855,28.475534401238097
13.92125417,9.195840739142856,4.383988179247619,1.027762979133333,27.966204132666668
13.93119917,7.322907454571427,3.1896484118190473,0.8010278645142852,26.818417186476193
13.94114417,5.314696664190475,1.7659010740571421,0.35693737662380914,25.116594029380952
13.95108917,3.213004181904761,-0.21087830065714344,-0.04632697447142891,22.810312253952382
13.96103417,0.6489149437142847,-2.2880163615142863,-0.075403813566667,20.04477143347619
13.97097917,-2.211285815285715,-4.053469092990476,0.08086951239047584,17.205093896190476
