Time (s),Linear Acceleration x (m/s^2),Linear Acceleration y (m/s^2),Linear Acceleration z (m/s^2),Absolute acceleration (m/s^2)
0.2009400417,0.943466204847619,-2.8933221726571428,-0.5468771361619048,7.014412192761904
0.2108860417,0.8285044041952381,-2.7339752438761904,-0.2455473372714286,7.198905806571428
0.2208320417,0.7436708555142857,-2.6071683486333335,0.08151672593333326,7.359427009476191
0.2307780417,0.6114545618714285,-3.483079833433334,0.6244241837904762,6.656568311619047
0.2407240417,0.5204201523952381,-3.5881134795952385,1.0442721712190475,6.5855603959047615
0.2506700417,0.5933785351095238,-3.3053063512333334,1.382319226695238,6.42993293847619
0.2606160417,0.8230070191095238,-2.9949217212619046,1.6060644093619048,6.260435983714286
0.2705620417,0.9507234347761905,-2.6104469939333335,1.6995879750885716,6.027655363333333
0.2805080417,0.8929390500619048,-2.2232627225523807,1.7038579948028572,5.721867142380952
0.2904550417,0.6820904026904762,-1.8547304008380952,1.7141539670314287,5.307904677571429
0.3004010417,0.44749766045238093,-1.4654369830761904,1.8473752299980954,4.905419871190476
0.3103470417,0.25605088207142856,-1.059426542842857,2.0414335976219045,4.541210833666666
0.3202930417,0.09672511466190475,-0.6946658701380952,2.2228685157933334,4.25454785295238
0.3302390417,-0.06839774940000001,-0.4036708300142858,2.380118159698095,4.08623141652381
0.3401850417,-0.2606309504476191,-0.2068300787761905,2.5096289466742854,4.031785548666667
0.3501310417,-0.4442467756380952,-0.039969728490476183,2.585428226950476,4.054759597761905
0.3600770417,-0.6020650473142857,0.14150916212857143,2.5691793889314285,4.149800263857143
0.3700230417,-0.7366084770904762,0.3072763615047619,2.43730139846,4.225728131857143
0.3799690417,-0.8350707716809525,0.4482388924571429,2.194177937512381,4.193759835380952
0.3899150417,-0.8959008875380954,0.5648723842380953,1.8713093559647618,4.06548908747619
0.3998610417,-0.9004327023952382,0.6887928988904761,1.5306215865700001,3.9001105052380955
0.4098070417,-0.8709285989190476,0.8493675202142857,1.1973221082995238,3.746302730619047
0.4197530417,-0.8520569610142859,1.0326400302904761,0.87214959149,3.6250925369523808
0.4296990417,-0.8681454634904762,1.220255712952381,0.561334056537619,3.5503717092857143
0.4396450417,-0.9060417414666666,1.4049740724190476,0.2691442632042857,3.516550644571429
0.4495910417,-0.9745003854428572,1.6106315338666666,-0.0036326906052381023,3.5105794492857143
0.4595370417,-1.0843267436571427,1.8024701591714287,-0.2624272046528572,3.502511405904762
0.4694830417,-1.2183989992238096,1.9716078885809525,-0.4653452177480953,3.5036997325714285
0.4794290417,-1.3369329752714285,2.114388820109524,-0.5915878253319048,3.5194892715238097
0.4893750417,-1.4136622273666666,2.2477531727761906,-0.660272227522381,3.5523589917142857
0.4993210417,-1.4108327318666667,2.3804789816333334,-0.7238507992366666,3.6325487720476186
0.5092670417,-1.3442789715333334,2.4891093336333334,-0.8186827803938095,3.645094110714286
0.5192130417,-1.264722618504762,2.546833965404762,-0.9025657945414286,3.589725014571428
0.5291590417,-1.174980387990476,2.5375218011333334,-0.9725767002366665,3.5288231515238095
0.5391050417,-1.042784253337143,2.4611556332952382,-1.046108924522381,3.4707091726666666
0.5490510417,-0.8493664064323809,2.3409404713428574,-1.1175240251652379,3.4408462737142855
0.5589970417,-0.5784833378609523,2.1983175538666666,-1.170898286727143,3.4564720083333333
0.5689440417,-0.24800550309904762,2.043425646533333,-1.1877349195795237,3.4991339800000003
0.5788900417,0.12355074794857143,1.8821527006380951,-1.163569289174762,3.559806224142857
0.5888360417,0.5275185051866667,1.7206756590714287,-1.1298955710080953,3.6426046390952385
0.5987820417,0.9385759278533333,1.559115252890476,-1.105962750279524,3.736905297761905
0.6087280417,1.3281419372342858,1.3932264871109523,-1.0982831286180952,3.8176772776666663
0.6186740417,1.6769802797580953,1.2268097177204762,-1.089337417704762,3.862214694904762
0.6286200417,1.9776091923771426,1.0660043820061904,-1.0572030417047618,3.8640211401904763
0.6385660417,2.217441596710476,0.9194448961966667,-1.004677315552381,3.823394847095238
0.6485120417,2.3958475249009523,0.806431248577619,-0.942460577747619,3.769828981
0.6584580417,2.5223045338771426,0.728164930577619,-0.8456551091095238,3.725003665380952
0.6684040417,2.6304794713295236,0.651307958625238,-0.6972211033952381,3.689614252333333
0.6783500417,2.7535678436580953,0.5343388088252381,-0.5031589420619047,3.676556522285714
0.6882960417,2.890624963610476,0.3927969579823809,-0.2573451980619047,3.711868973714285
0.6982420417,3.037497470324762,0.2574123923109524,0.027936499795238108,3.7962914210952383
0.7081880417,3.196551982624762,0.14443605551095237,0.31099164055714285,3.922544342619048
0.7181340417,3.344071692624762,0.057113709134761895,0.5564679445095239,4.065418226190476
0.7280800417,3.4450902785485713,-0.01987902963190475,0.7326619545571428,4.160684972952382
0.7380260417,3.4313520783199998,-0.10042333935095238,0.8339592576999999,4.219796868666667
0.7479720417,3.2697077785238102,-0.17447194935095237,0.9265796061047619,4.349703715523809
0.7579180417,2.970950225523809,-0.24789565901761906,1.0733417188190475,4.518746013523809
0.7678640417,2.5757978698095236,-0.3272443523509524,1.2700055430571429,4.658651745380952
0.7778100417,2.1399306275714287,-0.41491483082714287,1.4602762653380952,4.747683328380952
0.7877560417,1.692746767714286,-0.5210548536938095,1.5773210321666666,4.7748130424761905
0.7977020417,1.241847030142857,-0.6682538021271428,1.6468454843285714,4.762571292571429
0.8076480417,0.8301387010000001,-0.8895404533747618,1.7002415406714289,4.751116321809524
0.8175940417,0.4862851098095238,-1.140553207404762,1.7187470176,4.735674777333334
0.8275400417,0.20806509429999998,-1.3505738611571427,1.7433476042809526,4.68285542252381
0.8374870417,0.0008431685390476075,-1.483882470395238,1.7876693039952383,4.589053390142857
0.8474330417,-0.14560616684190478,-1.5625673098238093,1.8204333416047622,4.481166475047619
0.8573790417,-0.2606241007895238,-1.626797331,1.8505386537190476,4.3743387517
0.8673250417,-0.366503839037619,-1.683631765952381,1.8644992604619048,4.280974993461904
0.8772710417,-0.49677367812333334,-1.6867694654285716,1.8600906756333333,4.219625959938095
0.8872170417,-0.6709626222042857,-1.593712114247619,1.8240945548000003,4.169711309604763
0.8971630417,-0.8837079392709525,-1.4299582504047619,1.7265187259190478,4.097899041604762
0.9071090417,-1.116513772385238,-1.2376233913523809,1.5692633461857142,4.0115463187
0.9170550417,-1.3652929457185716,-1.042019270504762,1.3714857874619049,3.9276818334619046
0.9270010417,-1.5949445401471427,-0.8474410854142859,1.1570143445142858,3.8803641522714285
0.9369470417,-1.759366434480476,-0.6395320561285713,0.9727442158952381,3.9088439427476183
0.9468930417,-1.8143730020042856,-0.4172248986999999,0.8472446745619048,3.959166156985714
0.9568390417,-1.7682189519566667,-0.20759069017619045,0.7316859706333334,3.9159453043190475
0.9667850417,-1.6524372881471427,-0.016974411366666657,0.5684128105857142,3.7892772929380953
0.9767310417,-1.528726048099524,0.15173235040476193,0.35168175291904763,3.635242735604762
0.9866770417,-1.429653248480476,0.31134722086190475,0.11527162644285716,3.494198233461905
0.9966230417,-1.365251653337619,0.48078301903809517,-0.08400664803333333,3.3914690295095236
1.006569042,-1.337938557242381,0.6832797541476191,-0.2514291941761905,3.3075014685571427
1.016515042,-1.3696888825280953,0.9489925197,-0.40910652012857146,3.2152397394142853
1.026461042,-1.458964867194762,1.229592324152381,-0.5369279908000001,3.1367719757000003
1.036407042,-1.581089618399524,1.4471358385,-0.6804997651714286,3.122382252842857
1.046353042,-1.7140869329719048,1.5712521513857145,-0.8549969410285715,3.170133333271429
1.056299042,-1.8266926398290475,1.6338443674380954,-1.0131609641714288,3.2488574626523805
1.066245042,-1.9074159856909525,1.6641184935666669,-1.151872010852381,3.3290001654761907
1.076192042,-1.9473446166238095,1.674204021709524,-1.274330109042857,3.3778135409047616
1.086138042,-1.948113386261905,1.6516722774238095,-1.3965041021666669,3.380825755238096
1.096084042,-1.9182689191333335,1.5890112034714285,-1.5075626288095239,3.346052405619048
1.106030042,-1.858294390157143,1.4939341961380952,-1.5962091467857145,3.2896130174761904
1.115976042,-1.7731911178047621,1.372393526042857,-1.6718262584333334,3.2169444495238095
1.125922042,-1.6583423633285714,1.2402321405238095,-1.7228819528047619,3.1333856637142863
1.135868042,-1.5231663483761904,1.1059098746999998,-1.741628154047619,3.0346931121904763
1.145814042,-1.3679140854714287,0.9836028296,-1.7206249484666667,2.931652652619048
1.155760042,-1.1912153214714285,0.8784378438761906,-1.679351207319048,2.83957509
1.165706042,-1.015536144852381,0.7465632782190477,-1.635517683952381,2.7638226085238093
1.175652042,-0.8377862742333335,0.5537817197428572,-1.5971625109190473,2.7655701725714286
1.185598125,-0.622831377947619,0.31405175306666666,-1.5898279028238096,2.845228664619048
1.195544125,-0.3470664969000001,0.0645212125142857,-1.6241161703,2.973211198952381
1.205490125,-0.002083251471428616,-0.1481132859,-1.6824133697761905,3.1159600075238094
1.215436125,0.40456525919523806,-0.2894568047238095,-1.750365227204762,3.2575016663333334
1.225382125,0.8564440991,-0.35425183397142856,-1.8107402069190475,3.406881441619048
1.235328125,1.3353735508142859,-0.3631300234666667,-1.8465533586333331,3.573072155285714
1.245274125,1.774388711195238,-0.35485100651428575,-1.8540183805380952,3.7011959966666668
1.255220125,2.052069112195238,-0.3899705531666667,-1.8434171558238097,3.709714142666666
1.265166125,2.157125729519047,-0.5019522229333333,-1.818949607204762,3.6755982664285716
1.275112125,2.1776336968095236,-0.684583655457143,-1.7680019818904762,3.6976720412857143
1.285058125,2.1707556170380955,-0.9232326947428572,-1.7009312284904763,3.7712358097142853
1.295004125,2.161645153861905,-1.1940810419809524,-1.6280091402804762,3.8763982415714286
1.304950125,2.151491213285714,-1.5018057178857143,-1.5499127456709523,4.02468455095238
1.314897125,2.1304625932,-1.8269412301714287,-1.4454774646138095,4.19432977252381
1.324843125,2.0735846104290476,-2.0924675808857143,-1.264025331994762,4.332271452523809
1.334789125,1.9728651513957143,-2.2371624731285715,-1.0056337468519048,4.449705037333334
1.344735125,1.8440348968242857,-2.2774130628904765,-0.7178556498519048,4.600720070857143
1.354681125,1.6846947897766666,-2.2883581874333334,-0.4236504396233333,4.791229344047619
1.364627125,1.5262224095385715,-2.300697900749524,-0.11337080896142859,4.998045912238095
1.374573125,1.4246951158861902,-2.2697575818733333,0.21649541052904764,5.2103847350952375
1.384519125,1.3925033536290474,-2.1546476795876193,0.5650031417338096,5.363363351952382
1.394465125,1.4000774748195237,-1.9538326872414284,0.9370150857814286,5.438228183904762
1.404411125,1.4086681762004762,-1.7182899116604762,1.3116686904957144,5.4433782030952385
1.414357125,1.3781767285814286,-1.5099002969033335,1.6407957627338097,5.3842124325238085
1.424303125,1.2797489047242856,-1.3677395322366666,1.908289228162381,5.26057762252381
1.434249125,1.0809455494385714,-1.3108667005699999,2.1378066985909525,5.0541148067619055
1.444195125,0.7846955330766666,-1.3351242645223809,2.318936284162381,4.75900412547619
1.454141125,0.46068477449095235,-1.4046928770938094,2.4567939749480954,4.502441774333333
1.464087125,0.2185524374909524,-1.4493919728509521,2.5551037129004763,4.4338973862857145
1.474033125,0.06297303683380953,-1.4255280935652381,2.612642850443333,4.480804490333334
1.483979125,-0.07078352479000001,-1.3243713184652381,2.6369759287480954,4.515042344095238
1.493925125,-0.22860730955190475,-1.15056831842,2.639887840400476,4.531330339952381
1.503871125,-0.4242007940328571,-0.9186469740914286,2.6280875744904764,4.540311192142857
1.513817125,-0.6557677414090477,-0.6196776404723809,2.6029667100476193,4.525963225619048
1.523763125,-0.8947713447090476,-0.2675078050438095,2.552766219695238,4.490914838761905
1.533709125,-1.0843218710333333,0.06425402257523809,2.4303740827952383,4.473644505190476
1.543655125,-1.2048074528095238,0.29785343424190475,2.238942311447143,4.461451555333333
1.553602125,-1.280549305047619,0.4465223726847619,2.0314553118852383,4.425025292238096
1.563548125,-1.320546933095238,0.5758113274228571,1.8061509552471426,4.352948039190476
1.573494125,-1.3539218654761906,0.7237770964152381,1.5635689116852383,4.257455490190476
1.583440125,-1.4208539406809524,0.8931950466723809,1.3042379121661904,4.149223313190477
1.593386125,-1.5386285861857143,1.0699038901009525,1.021574540047143,4.022787268190476
1.603332125,-1.7053777001380954,1.2267340658976191,0.7252951727838095,3.882899476285714
1.613278125,-1.904407203442857,1.363040904554762,0.4434131296409523,3.7507051415714288
1.623224125,-2.103465859309524,1.4752680459880951,0.18988181278380953,3.654849090571429
1.633170125,-2.283109448133333,1.5672770192738095,-0.013946583930476188,3.614256684952381
1.643116125,-2.4110105523142855,1.6569987288261905,-0.18825982312095238,3.6379037571428565
1.653062125,-2.4812939452380953,1.7642420656309525,-0.33244903912095236,3.7281357933809525
1.663008125,-2.491240170438095,1.8947467121880954,-0.44655776233523803,3.8085957762380955
1.672954125,-2.437570944685714,2.0350318293309524,-0.523739867335238,3.819012037047619
1.682900125,-2.3217402477809523,2.1508152194738095,-0.5722516278780952,3.7597620188095235
1.692846125,-2.150595113552381,2.216246843445238,-0.6162232203542857,3.6503029952857147
1.702792125,-1.9154509510476188,2.2243771740585716,-0.6539076620733334,3.5140244966666665
1.712738125,-1.6060384067619047,2.1794411547061907,-0.676913392835238,3.403757329238095
1.722684125,-1.2367179081904762,2.113149655910952,-0.7151306551447619,3.3296386435714282
1.732630125,-0.8374343554285714,2.0397324895014286,-0.7495903017542856,3.283697184333333
1.742576125,-0.42350881776190474,1.8634941241680953,-0.7192774717828572,3.291922364666667
1.752522125,-0.019813596476190427,1.6864419656252378,-0.7451214401538095,3.335184451285714
1.762468125,0.3935759185238095,1.5641299364585712,-0.8477379030204762,3.4120414067142857
1.772414125,0.7725161448571429,1.4860050096966666,-0.9859136231919047,3.4889459022857143
1.782360125,1.129577398857143,1.4059513092204763,-1.1452476602490476,3.574016233095238
1.792306125,1.4666716087619047,1.2931725804442857,-1.3044703252538095,3.6500207701428566
1.802253125,1.769453661095238,1.1255834165157144,-1.4005472604204763,3.6956785919523805
1.812199125,1.980078527142857,0.9415139587585715,-1.4042432541095238,3.671111436
1.822145125,2.131006050114286,0.7628953311347618,-1.299102687442857,3.639738543285714
1.832091125,2.2770964221714287,0.584646331077619,-1.0778821097285713,3.6794418826666666
1.842037125,2.4555108149,0.40067243355380944,-0.8226012780619049,3.758866861952381
1.851983125,2.6699935346047616,0.21991511722047616,-0.5923250339190476,3.846378561666666
1.861929125,2.899545614985714,0.06080054564904759,-0.3848751781095239,3.925579399
1.871875125,3.1294408155333335,-0.06040251731285718,-0.18836175953809522,4.004837816
1.881821125,3.327968349304762,-0.17009285817000003,-0.01849323958571426,4.07213369152381
1.891767125,3.437168777019048,-0.294123189122381,0.09213736139523812,4.083544705857143
1.901713125,3.401774661828571,-0.43052419576523815,0.1559719437014286,4.122335947333333
1.911659125,3.200323186133333,-0.5695762743285714,0.21571912736333337,4.272585737904762
1.921605125,2.878251169371429,-0.7095149299714285,0.3193988924919048,4.450879706857143
1.931551125,2.5090950054190477,-0.8718971205571429,0.49578087663476195,4.601909737857143
1.941497125,2.125740771657143,-1.0776990082428572,0.6819784981109523,4.7247462394761905
1.951443125,1.7368534012285715,-1.2429915251,0.763899632182381,4.788341972571429
1.961389125,1.3842722281333333,-1.4477173301761905,0.8695136840919049,4.818712097047619
1.971335125,1.0827342962333333,-1.708815612342857,1.0724933435204762,4.810251256571428
1.981281125,0.8611747749333334,-1.971159964009524,1.3458069047109522,4.789037225904762
1.991227125,0.678592904552381,-2.1600711668666666,1.6123367490442857,4.703368552714285
2.001173125,0.5029211622190477,-2.247554283852381,1.7979443586157142,4.533348661619048
2.011119125,0.3427694337904762,-2.2211200242666664,1.8941303878585716,4.367470916380952
2.021065125,0.25156548288571434,-2.1328098882238096,1.9207503383061901,4.303494365523809
2.031011125,0.19029910904285718,-2.022480140409524,1.8751795897633332,4.271772582761905
2.040958125,0.10353592350476193,-1.883552412638095,1.7718158805680952,4.188515000857143
2.050904125,-0.03907855726666666,-1.7047749078285714,1.6811620969490475,4.0932850102380955
2.060850125,-0.24278101607142855,-1.4997407874,1.6287033561871427,4.016132716333333
2.070796125,-0.4859382029285715,-1.3002750818285715,1.5857392685680953,3.957933417333333
2.080742125,-0.7605540782142858,-1.1362616016285716,1.518535019387143,3.9091679779047617
2.090688125,-1.0367917762619048,-0.9867559544857143,1.4257398462238096,3.8930347376666665
2.100634125,-1.258845665738095,-0.8203136244380952,1.3522883761714286,3.9642724297619045
2.110580125,-1.3813330000142856,-0.6343552654857143,1.3045858163414286,4.042971422
2.120526125,-1.3999036455380953,-0.4395656617714285,1.2340860764414285,4.032879449666667
2.130472125,-1.376070951395238,-0.2426066297190476,1.0919681913461905,3.969269202619048
2.140418125,-1.3609809584428572,-0.044090734690476155,0.8940789507747618,3.8855332319047617
2.150364125,-1.3550492365857143,0.17371902290476196,0.6832017634414285,3.7847514368095236
2.160310125,-1.3688209608714286,0.4316606439380952,0.5011669140128571,3.6877574204761907
2.170256125,-1.4289074501095238,0.7202342128095238,0.3224544803461904,3.604464243761904
2.180202042,-1.5479341237333333,1.0039210129809524,0.08811987877476189,3.524507417666667
2.190148042,-1.7001718684809524,1.2392164234666667,-0.1910459099395238,3.4449706710000005
2.200094042,-1.8629242156238095,1.3978770004809524,-0.44178604451095244,3.4094510625714287
2.210040042,-2.0121571597666668,1.4878502795476192,-0.6086275444633334,3.4601434534285715
2.219986042,-2.1501079012904762,1.5228456703190476,-0.7306575986109524,3.538179150619048
2.229932042,-2.2715743952428573,1.5211578018904763,-0.8469071232014287,3.589105643380953
2.239878042,-2.366125069638095,1.4997567419857143,-0.9710430659919047,3.6145687518095238
2.249824042,-2.4252302290238097,1.4669977998428572,-1.1102270967014287,3.617677493904762
2.259770042,-2.4333190165619047,1.4176273078428572,-1.2767503967490477,3.594471152952381
2.269716042,-2.381338466695238,1.355959007557143,-1.4574286086061905,3.5608006054285717
2.279662042,-2.273956968552381,1.2890087503190475,-1.629566600034762,3.5316934322380953
2.289609042,-2.1160439441238093,1.219137864557143,-1.7721934156633334,3.5050090709523807
2.299555042,-1.9116827825523808,1.1518639778428572,-1.8627971359761903,3.470837958571428
2.309501042,-1.6601585363619047,1.1013704863190477,-1.8943419734285716,3.4274954132380953
2.319447042,-1.3771891616952383,1.065954235252381,-1.8812022774761907,3.3670457769523807
2.329393042,-1.0973380793142855,1.000842091995238,-1.8556626140428574,3.265365069952381
2.339339042,-0.824454650504762,0.8609270479428571,-1.8414754868523808,3.184535755238095
2.349285042,-0.5334405651714286,0.6482815233904762,-1.8665610722333332,3.1911887091904765
2.359231042,-0.2254308236,0.39362492379523806,-1.9592306694714285,3.28585392452381
2.369177042,0.0880279939238095,0.14618075333333336,-2.090243717519048,3.4155863078095243
2.379123042,0.41657800173333337,-0.057659699776190454,-2.2231479221857144,3.5430643470952377
2.389069042,0.7573999229714286,-0.18895221685238092,-2.347872818852381,3.6651938843809524
2.399015042,1.078871792638095,-0.27140291376666664,-2.4620655992809524,3.790860340714285
2.408961042,1.3490680082095237,-0.3712623031142857,-2.539323968661905,3.888954355523809
2.418907042,1.5304791546380951,-0.5420207414666667,-2.550783898757143,3.9358547032380953
2.428853042,1.6573511209999998,-0.7786475072761905,-2.494788838585714,3.992725398333333
2.438799042,1.7525108525285713,-1.0494897566571428,-2.3661913032,4.07698606947619
2.448745042,1.8262950570047618,-1.3410903455619048,-2.1928065461523807,4.194587841666666
2.458691042,1.858327747138095,-1.646096539514286,-2.0035217062000004,4.336912198714286
2.468637042,1.8313885665619047,-1.9369380763238095,-1.7946638965809525,4.473300348428571
2.478583042,1.7573946419571427,-2.1672746302761903,-1.5465893127714285,4.567526937428572
2.488529042,1.645922570957143,-2.3078618813714287,-1.256129933342857,4.636272191
2.498475042,1.4938152747666666,-2.377681172450952,-0.9407923775809525,4.723730719142857
2.508421042,1.3040470092904761,-2.4264622372604765,-0.6207419660095238,4.840621780761905
2.518367042,1.1067175978619048,-2.4932646434938097,-0.3102667042,4.967406195619048
2.528313042,0.9570879340333333,-2.582231923031905,-0.019431376628571438,5.095575334047619
2.538260042,0.901183456952381,-2.6432299653461904,0.2886813873190476,5.272684184000001
2.548206042,0.938596727095238,-2.6274670970604763,0.6478071539857143,5.459503666190476
2.558152042,1.0045053446666667,-2.52902078487,1.0495624361761904,5.573708045857143
2.568098042,1.0366455957142857,-2.3598848652985716,1.4474827802238095,5.548285982238094
2.578044042,1.0141029922857143,-2.158211195398571,1.7775287006523808,5.383743608809524
2.587990042,0.9130932885714286,-1.983428229879524,2.038163883361905,5.127258023333333
2.597936042,0.7207051641990475,-1.8927239375023812,2.2543936397619047,4.832199079485714
2.607882042,0.46114547938952377,-1.8724189521119048,2.4506993707857143,4.6064933727238095
2.617828042,0.18628098605619045,-1.8556637277928574,2.602071059361905,4.475049358247619
2.627774042,-0.03992194842000003,-1.7824145435547618,2.668943186647619,4.437438272104762
2.637720042,-0.23849127582952384,-1.6565534494119047,2.64884415552381,4.419674970723809
2.647666042,-0.42706626383428575,-1.494956428554762,2.5501556015190476,4.386765945914285
2.657612042,-0.6127976116438096,-1.2940560389928573,2.4147853197571427,4.3190869574380955
2.667558042,-0.7879644886628571,-1.060839647802381,2.2808500561000002,4.2328928932
2.677504042,-0.9291472925866667,-0.821362085907143,2.14436629742381,4.146391823628572
2.687450042,-1.043833689377143,-0.6069030334785714,2.0000582402714286,4.093788820057143
2.697396042,-1.1438831131866667,-0.440244245097619,1.8605272469333332,4.082071556961905
2.707342042,-1.223788823377143,-0.31292396435142855,1.7357302903142855,4.076592767580952
2.717288042,-1.284868420424762,-0.17405337225619047,1.6116528196952384,4.067942582152381
2.727234042,-1.3447569953295238,0.03178209516761904,1.4523525851238095,4.063963231295237
2.737180042,-1.4485889272628572,0.27816981296285714,1.262766084552381,4.058026939342857
2.747126042,-1.588949306372381,0.5519832553914286,1.0356491188857144,4.0121526454380945
2.757072042,-1.764324344229524,0.8507785925342857,0.7519191363142858,3.909538654771428
2.767018042,-1.9555947315866666,1.1317486371057144,0.4301534579714287,3.761230019723809
2.776964042,-2.1306911914009525,1.3664682082009523,0.1367545161142857,3.6683144892476185
2.786911042,-2.2765319708580956,1.5369095882533332,-0.05662618702857144,3.6832601812952377
2.796857042,-2.3819937167247622,1.6608426048295237,-0.1653475606904762,3.778173372390476
2.806803042,-2.435362089304762,1.7749421639285714,-0.22301731218571433,3.908952925285714
2.816749042,-2.4272369098285713,1.897980918490476,-0.2642760176380953,3.9710634230000004
2.826695042,-2.364398776590476,2.014376094457143,-0.3135172305,3.968382455571428
2.836641042,-2.267178374904762,2.098202195695238,-0.3713140335952381,3.9307543026190475
2.846587042,-2.1327772552285715,2.142705799552381,-0.4194998240238096,3.8669265773333334
2.856533042,-1.9382469894571428,2.144091478314286,-0.4375463641190476,3.7856043956190484
2.866479042,-1.674434123504762,2.107530063990476,-0.4416965507380953,3.7447994000000002
2.876425042,-1.3459643060761906,2.0547202675619047,-0.4816070831285715,3.7602805772857146
2.886371042,-0.9765373604095238,2.0026187917095237,-0.5632534815952381,3.827786925142857
2.896317042,-0.5823616289809523,1.9488812092119048,-0.6601936067285715,3.912876430952381
2.906263042,-0.17114254474285703,1.891463249997619,-0.7892302402,3.985619682809524
2.916209042,0.23183012773333342,1.8343165180452383,-0.9785394435333333,4.032080306285714
2.926155042,0.6077494318761906,1.7645134042833335,-1.214991071342857,4.047272096857143
2.936101042,0.948730230304762,1.6153583672880951,-1.4760841466761905,4.050006633952381
2.946047042,1.246225035304762,1.4070834415252382,-1.7121513896761906,4.032173051666667
2.955993042,1.4584511474476192,1.149338370477619,-1.8616208119619047,3.9607288290476195
2.965939042,1.585987552447619,0.8533701899061905,-1.8947721893047618,3.842125551761905
2.975885042,1.6850547554238096,0.5828585587633333,-1.801603379057143,3.7653620422380945
2.985831042,1.8284593063809527,0.3385169209538095,-1.6150453184857145,3.760945276857143
2.995777042,2.0170485504571425,0.10313427557285713,-1.4082624350571427,3.7996059263333333
3.005723042,2.2419547952285717,-0.1022499538557143,-1.2143498858666666,3.8605611920000005
3.015669042,2.5060543975142857,-0.23427420822714287,-1.0052537603904763,3.9564460620000004
3.025615042,2.7723737699428574,-0.30490091625571425,-0.7325258117714286,4.108209571571429
3.035561042,2.9793773996571424,-0.3585203571319048,-0.4290421492476189,4.257736298714286
3.045508042,3.063717554695238,-0.42798294019857136,-0.15850495748571422,4.313428895761905
3.055454042,2.9855649789714285,-0.5309939230557144,0.04285588637142864,4.378116269714286
3.065400042,2.7764579108666667,-0.6687397058176191,0.1911895566095239,4.542264214333334
3.075346042,2.485861817961905,-0.8493369755319048,0.3554323311809525,4.734606867761904
3.085292042,2.134791454009524,-1.0599005293414285,0.5700171265619048,4.904572825333333
3.095238042,1.7642151127714287,-1.316002337908095,0.7875677411333333,5.025533519238095
3.105184042,1.412030130295238,-1.6575767679342857,0.9264164758000002,5.131767033761905
3.115130042,1.1111797474380953,-2.0419559072438096,1.0862486678,5.217086064952381
3.125076042,0.8738053733404763,-2.3614247992914286,1.355867317704762,5.2517257870476195
3.135022042,0.6832742689833333,-2.568461034196191,1.6533051819904763,5.205753819
3.144968042,0.4885555558047619,-2.644196927867619,1.9264662143238094,5.048892708095238
3.154914042,0.28424058723333334,-2.5746924675809524,2.165254027514286,4.916064494142857
3.164860042,0.15163623335714288,-2.4117986178190476,2.297885160238095,4.870214126714286
3.174806042,0.12224790471428573,-2.2476585036285712,2.300507719990476,4.8539356546666665
3.184752417,0.1166175093809524,-2.1143998184857145,2.202964412804762,4.81262396552381
3.194698417,0.046649337090476216,-2.014848048395238,2.0216972505666666,4.706545566809524
3.204644417,-0.10355727987190474,-1.9132865624380955,1.8299313256142857,4.553610430952381
3.214590417,-0.33155486401476186,-1.8089860179190478,1.6836962802238096,4.396037560619048
3.224536417,-0.6261488653480952,-1.7466685653142857,1.5468294175285713,4.248505709809524
3.234482417,-0.9551112967290477,-1.7248127869523808,1.3560063978714285,4.090516918380952
3.244428417,-1.2638561725385713,-1.6892851046476192,1.1540418150666667,3.9797870255238093
3.254374417,-1.4785802430719048,-1.597273541914286,1.0003907426190477,3.984970359047619
3.264320417,-1.5503458773576189,-1.4299565519619049,0.9098015846638096,3.9835265009047616
3.274266417,-1.5384477680242856,-1.1875231947238096,0.826274890435238,3.8932647036190478
3.284212417,-1.507818465357619,-0.871373015247619,0.6866461093685715,3.745146317
3.294159417,-1.4781513637861905,-0.5128784694380952,0.5192965176876191,3.5734109225238098
3.304105417,-1.465376144262381,-0.12602604143809523,0.3467198458304762,3.4076161900476185
3.314051417,-1.4861330636909524,0.3069941914666667,0.23390984835428574,3.2271446677619045
3.323997417,-1.5652405175957145,0.7463688164190476,0.11250494506857145,3.0419720235714287
3.333943417,-1.6834687399742858,1.1110247682761905,-0.10281815878380948,2.906016086047619
3.343889417,-1.7974025165695235,1.3685058793238096,-0.3293937000695238,2.859828642095238
3.353835417,-1.8716671393909525,1.5225369929428572,-0.4985603871171428,2.914500056666667
3.363781417,-1.89952037901,1.556234997895238,-0.6339117350219048,2.951265846714286
3.373727417,-1.939919933562381,1.5163283079428571,-0.7135117681266666,2.944085801
3.383673417,-2.017420071419524,1.4853624284190476,-0.7522305266314285,2.9448856291904764
3.393619417,-2.094929369905238,1.4640846055666668,-0.7689392516409524,2.9275747301904764
3.403565417,-2.1423524606695237,1.4661808323809524,-0.7420736937790476,2.8942450276904763
3.413511417,-2.122060728973809,1.4728976960666667,-0.733113643255238,2.8943202981190472
3.423457417,-2.017841182307143,1.4631602164666666,-0.7867771088171428,2.932261451547619
3.433403417,-1.8382920677833334,1.4215401531095238,-0.8997270217885713,2.9831512589761906
3.443349417,-1.589922032497619,1.3477655269333333,-1.0675393544647618,3.056011629690476
3.453295417,-1.2757205072119049,1.2647793642857141,-1.2572120318980953,3.1357708900714285
3.463241417,-0.9314353914976191,1.160249219142857,-1.4303399569742856,3.200354008071429
3.473187417,-0.6257535100214285,1.0121973011904761,-1.5867920127809523,3.2524282141666667
3.483133417,-0.3924285554976191,0.803894977047619,-1.6919995178857141,3.284654252214285
3.493079417,-0.20895804755476194,0.5682087498095237,-1.744656674152381,3.2947128175476186
3.503025417,-0.02628768930714288,0.3393602565238096,-1.8233831436619046,3.2879015894047616
3.512971417,0.1690428653738095,0.1488886266666667,-1.9299883264714284,3.2946184993095238
3.522917417,0.3779088889452381,-0.005997628333333298,-2.0732997674714286,3.3438442246904763
3.532863417,0.6117348941357142,-0.16040095904761903,-2.2304263692333333,3.409165914071429
3.542809417,0.8469107429928571,-0.34114279419047616,-2.3692996900476193,3.473491575071429
3.552756417,1.0374047592785716,-0.5545843754285714,-2.4885441307142857,3.5261274128809523
3.562702417,1.1740728723261904,-0.7838784821904762,-2.5442875865714285,3.5406462207380955
3.572648417,1.261661016454762,-1.0252513493809525,-2.5370690596190477,3.557279380166667
3.582594417,1.2975662339928573,-1.2807115512857141,-2.478790863152381,3.632870011404762
3.592540417,1.3009391585785715,-1.51789177,-2.3554980888190475,3.746569482452381
3.602486417,1.280271033254762,-1.7072223853380952,-2.2006687188619045,3.883102816642857
3.612432417,1.2431748771190476,-1.8797599643857144,-2.0490650072000003,4.031597035952381
3.622378417,1.2166487884066666,-2.035929627552381,-1.843845168104762,4.165270659666667
3.632324417,1.2042157980590475,-2.155005724042857,-1.548819335961905,4.294479819
3.642270417,1.1694843951542857,-2.207021134447619,-1.1561439165333334,4.429493633238096
3.652216417,1.0847112955590477,-2.183727275172381,-0.6538459561047619,4.5703064554761905
3.662162417,0.9253053377733332,-2.150367851805714,-0.10690545086666663,4.704339659047618
3.672108417,0.7363251934161904,-2.124649625562857,0.4299734163238095,4.835622037333333
3.682054417,0.59200221194,-2.092217765515238,0.8908010299428571,4.917312177428571
3.692000417,0.5252112216861429,-1.981239032467619,1.2412214341333334,4.938780579571429
3.701946417,0.5155893220480476,-1.8290933674342857,1.4872144092285715,4.908474557000001
3.711892417,0.4989875732385238,-1.6992678331914288,1.7058032943714285,4.8390477463809525
3.721838417,0.4582660598647143,-1.6375565976200004,1.9374613747523806,4.719441620714285
3.731784417,0.3843487894780476,-1.64222412362,2.1705577292190474,4.559333919047619
3.741730417,0.2843383470875714,-1.6321748203438093,2.3431272730238093,4.380012330428571
3.751676417,0.1636961156332857,-1.5836198756914288,2.4788791030238095,4.2027508605238095
3.761622417,0.027424248919,-1.4920340737438096,2.6292759807333335,4.029547216147619
3.771568417,-0.12701591922385716,-1.3671189755438096,2.752114784858095,3.951166088004762
3.781514417,-0.2694338778762381,-1.2131630125580952,2.80981516807,3.921464940719048
3.791461417,-0.38083931846195235,-1.0148841525485714,2.7772659456080953,3.8775478624809523
3.801407417,-0.47623093383338094,-0.7923925015390477,2.666449316165238,3.8245454586714285
3.811353417,-0.5549383825000476,-0.58838829852,2.4976553194985716,3.773652531766667
3.821299417,-0.625206349928619,-0.38869981399619047,2.3150613648795235,3.7221146206238096
3.831245417,-0.717832009568619,-0.19514667366285715,2.111311742022381,3.6505093942428575
3.841191417,-0.823149830411476,-0.04122526494857141,1.8692786406366664,3.5080273358619047
3.851137417,-0.9247467338019523,0.08236538324666667,1.596642602979524,3.311479417290476
3.861083417,-1.0414640913495714,0.17135304452857142,1.2675922963033333,3.0842921649571426
3.871029417,-1.1518138310400476,0.28415975642857144,0.9166417985461905,2.8699575223380953
3.880975417,-1.2473937545876668,0.43172006280476183,0.5951769733557143,2.667645397957143
3.890921417,-1.3235831973019525,0.6130989103285714,0.40582355387952385,2.5393443675761906
3.900867417,-1.398246516714762,0.7897304034714286,0.2686795331652381,2.486852659242857
3.910813417,-1.482362556352857,0.9267929808190477,0.13716045385095238,2.4740734976714287
3.920759417,-1.5306525942909526,1.052989203957143,0.03745005366523808,2.4877925257190476
3.930705417,-1.5568202208409525,1.2173573317190476,-0.06223929652047621,2.5492704007190476
3.940651417,-1.5614356509066667,1.4117293328619047,-0.1724674472252381,2.6373819140047616
3.950597417,-1.5498037848066664,1.5797715168238096,-0.27237172088714284,2.7612362966238098
3.960543417,-1.5134614183,1.7309963567428572,-0.33270212603,2.8815451484809524
3.970489417,-1.4445565482333333,1.8708276185571429,-0.4547322950252381,3.044814691047619
3.980435417,-1.3302604948619046,1.9676058315,-0.6048325727214285,3.1399860956190473
3.990381417,-1.1850092261,2.0149046828476194,-0.7104938791714286,3.138902416047619
4.000327417,-1.0397446758047617,2.0101647349333334,-0.7503358877952381,3.067384794190476
4.010273417,-0.9054354966223809,1.960895427595238,-0.7285322297095238,2.944792558804762
4.020219417,-0.7771817218123809,1.8900219113952381,-0.7177621875190476,2.8516951460428572
4.030165417,-0.6446817825076191,1.7998550894857142,-0.7554464064714286,2.8169038590904765
4.040112417,-0.48861672879333334,1.6875662738619048,-0.820214542042857,2.826340824852381
4.050058417,-0.32028109812666666,1.5962503905619045,-0.8716349843238095,2.8736652312333337
4.060004417,-0.13477603759333334,1.5038498208761906,-0.9209753196714286,2.9354740135190474
4.069950417,0.09719069226380948,1.3942538150904764,-0.9775159738047619,2.981545066233333
4.079896417,0.38178486893047614,1.232079005747619,-1.0783963966190477,3.021960182852381
4.089842417,0.6838369938352381,1.0357288358904764,-1.257599690142857,3.0905076536142855
4.099788417,0.945371199882857,0.8277271421761905,-1.531322445,3.162565448185714
4.109734417,1.1706575415495237,0.5853145007952381,-1.7663739987619047,3.221338426519048
4.119680417,1.3582200424066666,0.37889776446190476,-1.9108149025904761,3.262442324280952
4.129626417,1.509527829287619,0.21734621266190476,-1.997544727642857,3.2793102038047617
4.139572417,1.677783854244762,0.053110538257142834,-1.9639835440157145,3.2913635327095236
4.149518417,1.8657540173638094,-0.12182150342857145,-1.774927434587143,3.3487344501857144
4.159464417,2.043623978606667,-0.3083078103333334,-1.4797484889204762,3.4354026682809526
4.169410417,2.176883192792381,-0.5202215976190476,-1.1907705990157142,3.518533103042857
4.179356417,2.284239241630476,-0.7677690131904762,-0.8504854522061907,3.5651574442809526
4.189302542,2.374777027592381,-1.0153892961904762,-0.46472946068238097,3.6646708650428574
4.199248542,2.4064328229257144,-1.2033683971904763,-0.0921711639204762,3.837124680566667
4.209194542,2.364153917587619,-1.3185941857142858,0.21333931060333333,4.028749844709524
4.219140542,2.239890421976667,-1.396318633909524,0.4319303675795238,4.252498339714286
4.229086542,2.047406681690476,-1.440170997157143,0.6747719718652381,4.47955732547619
4.239032542,1.807788480338095,-1.4638726022952382,0.9611347641985714,4.6685817559047615
4.248978542,1.5171288198142856,-1.4828803689571428,1.2299187101509526,4.81552466247619
4.258924542,1.187582001004762,-1.5552529998952385,1.3795666117223808,4.930666105238095
4.268870542,0.8731111975285715,-1.686154282590476,1.4593863957128572,5.009708374238095
4.278817542,0.6017946275761906,-1.828237000852381,1.55033236957,5.046606077142856
4.288763542,0.3940203626666668,-1.9394646860809523,1.6668930774366666,5.009063512523809
4.298709542,0.2477188504476191,-1.9946948121285715,1.806963462531905,4.906181883285714
4.308655542,0.1413652092571429,-1.9966886291761905,1.945618320227143,4.7711905594761905
4.318601542,0.06882941316190483,-1.9451930919380953,2.046922747950952,4.641486377714285
4.328547542,0.027242985209523868,-1.8783999298761904,2.119070591717619,4.546004073380952
4.338493542,-0.03592668515714279,-1.821542161747619,2.1745131126366664,4.456460254809524
4.348439542,-0.16765236954761897,-1.7621188303,2.175254153247143,4.336921371119048
4.358385542,-0.344896428117619,-1.6758276543047619,2.0910230070280953,4.169674652671428
4.368331542,-0.5552105007271427,-1.5354716187809523,1.9435212041376193,3.9854569630047614
4.378277542,-0.7553055894842857,-1.3529777907333334,1.7834570169328572,3.8348709344333334
4.388223542,-0.9404531067366667,-1.139667716209524,1.6134908762899998,3.700241011147619
4.398169542,-1.1067522356890476,-0.8869547032571429,1.4047762416471428,3.5442277556238095
4.408115542,-1.230892494308095,-0.6478046968285714,1.1669501561947617,3.380689707957143
4.418061542,-1.2924705804080951,-0.45309915382857147,0.9597589700947619,3.2540494401952382
4.428007542,-1.2874252407890476,-0.29949279863809525,0.8001534830185714,3.1456229429095237
4.437953542,-1.244557437312857,-0.1555689034952381,0.6308241876852381,3.0326861248142856
4.447899542,-1.182390063217619,-0.012312899638095242,0.4438256107604761,2.918249317719048
4.457845542,-1.1168695337414285,0.13478330483809522,0.25367003686523804,2.8225157024809526
4.467791542,-1.038802021074762,0.31710672831428566,0.13399373757952376,2.741377630766667
4.477737542,-1.0056805793604762,0.5316745111238095,0.047287826927142805,2.6766909093857145
4.487683542,-1.0338251774080953,0.7439103686,-0.07463173926333339,2.64262006457619
4.497629542,-1.130696054831905,0.9511600826,-0.1924996896538096,2.636907166004762
4.507576542,-1.269452960374762,1.1442713404571427,-0.2724720581300001,2.6300892209571427
4.517522542,-1.4112564323271428,1.3122491493619048,-0.3066055971585715,2.625883935957143
4.527468542,-1.5457034387557145,1.4488603495047618,-0.3139804361680953,2.6302200863857146
4.537414542,-1.6729114808033332,1.548274849252381,-0.32913001155380955,2.656011486576191
4.547360542,-1.7565961629700002,1.6116361969238095,-0.37994693937761914,2.7157420793380953
4.557306542,-1.7740840155419046,1.6304573817285717,-0.4402999537628572,2.7602211678857143
4.567252542,-1.78577201491,1.6207989230714286,-0.5032861050819049,2.7686466923809525
4.577198542,-1.7578238833480948,1.575246022447619,-0.5933425294771429,2.766088136761905
4.587144542,-1.6938783710052379,1.518653467304762,-0.6928016629866667,2.756948222142857
4.597090542,-1.6061343568290474,1.4461828259190475,-0.810451929867619,2.746084275238095
4.607036542,-1.499787064067143,1.3875327191095237,-0.9407086840819048,2.742831001857143
4.616982542,-1.3527796258766667,1.3441123537285715,-1.0716196564390477,2.753265418238095
4.626928542,-1.1619572187814287,1.2690146975714285,-1.1926374183390476,2.7508284477619047
4.636874542,-0.961537665257619,1.1447933297619048,-1.2906670468342858,2.7248626211904763
4.646820542,-0.7653491291147619,0.976843476095238,-1.3870438623580954,2.682860293857143
4.656766542,-0.55688160721,0.7885449221904762,-1.5211252524809522,2.6775305198571426
4.666712542,-0.3213170298766666,0.6092277193809524,-1.690140747252381,2.726014190904762
4.676658542,-0.0833057826385714,0.4592322704285714,-1.898672560680952,2.8399105977619046
4.686604542,0.18053643074238096,0.33141224761904764,-2.0940608357285715,2.9604008433333333
4.696550542,0.4591705126471429,0.22561762814285713,-2.2247393672999998,3.044527979238095
4.706496542,0.7165159961233334,0.11417501595238094,-2.3142704297761902,3.1096820483333327
4.716443542,0.904424011742381,-0.018067757190476184,-2.365336614347619,3.1440302883333335
4.726389542,1.0143316462709524,-0.1875802095714286,-2.3632977181095236,3.144976807142857
4.736335542,1.088422940942381,-0.3750211161428571,-2.293893549790476,3.144369609428572
4.746281542,1.151273993732857,-0.5748430007142857,-2.163880375647619,3.161821044380952
4.756227542,1.180021105547143,-0.7986121012857142,-2.0093380204571427,3.222063855809524
4.766173542,1.1747843113666667,-1.0277285640857143,-1.8769915845047618,3.3470974427142854
4.776119542,1.1847354927785714,-1.2615954162619047,-1.7448500795380952,3.512165822428571
4.786065542,1.198170389588095,-1.4983184384000001,-1.5334196620619045,3.685602892571429
4.796011542,1.227858541145238,-1.751959042495238,-1.2642964940619048,3.8747497494761904
4.805957542,1.2797295253166665,-1.9202217778238095,-0.8950401478238094,4.079130938333334
4.815903542,1.2987775542214284,-2.0105648793523807,-0.4762797146333333,4.270344262952381
4.825849542,1.2378206930261906,-2.086785980557143,-0.06782101734761901,4.429117253333333
4.835795542,1.133837735840476,-2.11681374397619,0.2833570745571429,4.557254675476191
4.845741542,1.063064290545238,-2.071046556861905,0.5616246752714286,4.657062297952381
4.855687542,1.0604461858071428,-1.9974364044952382,0.8186321339857143,4.72367872652381
4.865633542,1.09817139095,-1.9212457644904761,1.094180723747619,4.7192435117619045
4.875579542,1.1338904442833333,-1.8653684908952382,1.3823346853190477,4.625477353047619
4.885525542,1.1554101191404762,-1.8404087041714285,1.6752852570809522,4.4662649619999994
4.895471542,1.1309707624738095,-1.8343066334095237,1.9092046245761902,4.29570665752381
4.905417542,1.0478730015690476,-1.8441542355523812,2.0695175098666665,4.138073926142857
4.915363542,0.9138849180714285,-1.8416779118857145,2.1949190685666666,3.9875227172380954
4.925310542,0.7671649122619048,-1.8201260773619048,2.2834818878571426,3.898902615666666
4.935256542,0.6348815984,-1.7557379308095236,2.323484917661905,3.883059581333333
4.945202542,0.49736201939523805,-1.6572699003904763,2.3086081514214283,3.8927547779523812
4.955148542,0.3588506690809524,-1.5204076319238093,2.2634884738166665,3.8888947404285714
4.965094542,0.2489016864190476,-1.3162283187333332,2.223354187940476,3.8562564957142857
4.975040542,0.14437814022857143,-1.0425265859714283,2.200324567130952,3.8110150937142855
4.984986542,0.02631105042142854,-0.7190032345904761,2.1629330152261907,3.7665355598571426
4.994932542,-0.11034147005476191,-0.36324944578095225,2.062525964554762,3.706153112285714
5.004878542,-0.27394489338809525,0.02023960807619051,1.9064731343452381,3.622949489095238
5.014824542,-0.4627449713404762,0.34058277021904765,1.6555877939261903,3.5216740600952376
5.024770542,-0.6289057718642856,0.5656428524619047,1.352125264935714,3.4177695804285713
5.034716542,-0.7332713318595239,0.7693091420952382,1.0573528686976192,3.328651857904762
5.044662542,-0.8133740097214286,0.9642172493380953,0.8060274548547619,3.268843978380952
5.054608542,-0.9136762281880954,1.1408009623666666,0.5956691104595238,3.238008940952381
5.064554542,-1.0599152308785715,1.2956296640476193,0.40357799505476183,3.214807339428572
5.074500542,-1.246228599354762,1.4297766526142859,0.24181572071190469,3.1924740431904763
5.084446542,-1.433361608307143,1.555812912638095,0.12714316232142853,3.172424907571428
5.094392542,-1.6072720857357141,1.6756657699619046,0.053545901692857084,3.1481726113809523
5.104338542,-1.7284314059357144,1.7962702729142859,0.01613508010238092,3.1215736217142855
5.114284542,-1.7609914313928572,1.928417931342857,0.0017527150976190107,3.1202852727142862
5.124231542,-1.7218952212190475,2.0703260128190477,-0.039925374935714325,3.1741521052857147
5.134177542,-1.6427430778761902,2.2088424028666664,-0.13355024017857145,3.2519304824285715
5.144123542,-1.5411755498095239,2.324175390361905,-0.27030937488809526,3.321712635
5.154069542,-1.4259154854757143,2.3993662121809525,-0.4348844105380953,3.3771255385238095
5.164015542,-1.300421123115238,2.418112886752381,-0.6235258340285715,3.4175417284285716
5.173961542,-1.1682861057866667,2.360512271627619,-0.8320715694380952,3.4463420601904757
5.183906667,-1.0148722910533334,2.225114953432381,-1.0468179150571428,3.4674771378095235
5.193852667,-0.8052089578628571,2.0385815068609525,-1.2440031230095239,3.477492355952381
5.203798667,-0.5415582825295238,1.8202277354323808,-1.3923917013857143,3.485801024238095
5.213744667,-0.24694019619619043,1.5818588334800001,-1.4878116897,3.494527477333333
5.223690667,0.05268358004190483,1.33472242148,-1.5578542608523809,3.4963629888571433
5.233636667,0.34347563823238103,1.0946249433704762,-1.6350006143380953,3.4874131833809527
5.243582667,0.6148542165180954,0.8746812304895238,-1.753012574147619,3.4853499374761907
5.253528667,0.8571155542323811,0.694118654284762,-1.8995211883047622,3.4905927073809524
5.263474667,1.0699215709466667,0.5653920067990477,-2.0282538501,3.4784737680476185
5.273420667,1.2694642927085715,0.46343975979428587,-2.1086354662666666,3.4450197702857146
5.283366667,1.473519088041905,0.3629178809371429,-2.1131168280333332,3.407155981285714
5.293312667,1.6959735674704763,0.2784404555661905,-2.0093723258809524,3.446088040380953
5.303258667,1.9405202476609522,0.21925446539476195,-1.8116994323000002,3.58499457
5.313205667,2.182207138194286,0.15996921178047624,-1.555823660442857,3.7968425261904764
5.323151667,2.3956486915561905,0.08973755281571434,-1.2742964876333334,4.028424772714286
5.333097667,2.576888319689524,0.0036680141142857595,-0.941730556442857,4.233120324952381
5.343043667,2.7506277242990476,-0.07325881816666663,-0.5267018441095238,4.432275489190476
5.352989667,2.8907191036609525,-0.14349916446190475,-0.0880589843,4.586174024666667
5.362935667,2.89574475767,-0.2266552026619047,0.3042266486047619,4.641429707238095
5.372881667,2.7670115390238097,-0.314763164247619,0.6385926311761905,4.688623056142857
5.382827667,2.6144150815047618,-0.3668970503609524,0.9388626639857143,4.723088082238095
5.392773667,2.448635435914286,-0.37261643473714284,1.2238356845571428,4.730907995761905
5.402719667,2.238706806152381,-0.37661445449904757,1.4503621371285713,4.701900178523809
5.412665667,1.9774317988666663,-0.428918967927619,1.571659644795238,4.6661025406666665
5.422611667,1.7122441968190476,-0.5601975352609524,1.6216468484095239,4.661552316380953
5.432557667,1.501990044252381,-0.7570156773085714,1.6924868683999998,4.699528794714285
5.442503667,1.3456839460619048,-0.9782399582466668,1.8640569560190474,4.777259320142856
5.452449667,1.199332927442857,-1.1630645977942857,2.117020146257143,4.822191716571428
5.462395667,1.054083301504762,-1.2881092535895238,2.382643059590476,4.795897478142857
5.472341667,0.9303090786190475,-1.3716283481990477,2.615455408209524,4.743769926571429
5.482287667,0.8173463017761906,-1.398338540675238,2.7981721544,4.705486687333333
5.492233667,0.7062368138419048,-1.344779771627619,2.903180462604762,4.698495137
5.502180667,0.58341872208,-1.237806854637619,2.8868954101285715,4.663405515047619
5.512126667,0.4287092478990476,-1.1176444568471429,2.759035400038095,4.561918566952381
5.522072667,0.2310480766180952,-0.9923412705661905,2.568158944504762,4.397468707809524
5.532018667,-0.0063411661080952485,-0.8713582021252381,2.3587287168285713,4.193663023428572
5.541964667,-0.2626625237033333,-0.7612554933761905,2.1408674202047617,3.982539846619048
5.551910667,-0.5313907818938096,-0.6776640603809524,1.899902991442857,3.758075052142857
5.561856667,-0.776337467322381,-0.6099526070380952,1.6749591573952383,3.5752082984285716
5.571802667,-0.915567969474762,-0.5353077202666666,1.5137578537761904,3.509689936238095
5.581748667,-0.9609706523319048,-0.4462237748571428,1.4137101841095239,3.4843065310476193
5.591694667,-1.0179420513319049,-0.35551859147142856,1.3457780401571429,3.4938174788571428
5.601640667,-1.094255510712857,-0.2686814804428571,1.2871457255857142,3.526275247238095
5.611586667,-1.1765588020938094,-0.16377722485238091,1.2619394091095237,3.578387233476191
5.621532667,-1.253356271712857,-0.0007134995428571068,1.2927021971190475,3.6104333830952378
5.631478667,-1.355734836474762,0.2466204369809524,1.3313079955761906,3.5857549404761904
5.641424667,-1.5134709130033333,0.5648823802190477,1.3058842740766667,3.5082796049047613
5.651370667,-1.7024206796699999,0.9057598221714287,1.1732763300909523,3.3918734082380952
5.661316667,-1.8728894302890475,1.1986316514095239,0.9817729451385715,3.3012485231904765
5.671262667,-2.0012814499699996,1.4155196928857143,0.7950558681385715,3.2838306760476192
5.681208667,-2.0965251029414285,1.5604701641714285,0.613820249567143,3.316597260238095
5.691154667,-2.1631899882414287,1.6504548870809523,0.4518720894719048,3.361456416904762
5.701101667,-2.2172842508785715,1.6893812495571428,0.3143436282814286,3.3884534812380953
5.711047667,-2.27292763585,1.6795153261285716,0.19468158509095237,3.3860913873809526
5.720993667,-2.313303383869047,1.648141867795238,0.08753202999095239,3.376108983238095
5.730939667,-2.3161530940309527,1.6194797355095238,-0.02589175457095238,3.387468993428572
5.740885667,-2.2645767538285715,1.5998765273666666,-0.16032976394238097,3.431145767
5.750831667,-2.1426402272809524,1.5916284171285715,-0.3207832086519047,3.4969917512380952
5.760777667,-1.9688348605190475,1.5923023783666668,-0.5030703758899999,3.561803753333333
5.770723667,-1.7745460012333332,1.593382275557143,-0.6806879601757142,3.5893573923809523
5.780669667,-1.554430129661905,1.5642902058571428,-0.8438085983661904,3.552237711666667
5.790615667,-1.3048510015666666,1.4539098935666668,-1.0182500865090476,3.506396956952381
5.800561667,-1.0415845997095237,1.2502252548476191,-1.234586874794762,3.5304926004761903
5.810507667,-0.7530551633761904,0.9977410072476192,-1.479818598080476,3.6121906737142857
5.820453667,-0.4186228844714286,0.7949776390857143,-1.7318330915090476,3.6952043220952375
5.830399667,-0.08221037637619044,0.6943097747285715,-2.0032981528995237,3.7788572625238093
5.840345667,0.26969650138571427,0.6719080891809524,-2.2797722733519046,3.9043964061428573
5.850291667,0.6708092024333334,0.7039580981809525,-2.5151322259857145,4.076699322095239
5.860237667,1.0760789118142857,0.7436311500857143,-2.6616865623809525,4.234498552142857
5.870183667,1.3991964942904762,0.6875373067857143,-2.708197042,4.2783563466666665
5.880129667,1.6557139563380951,0.523817440357143,-2.6616249142571426,4.2707625859047615
5.890076667,1.8919003989571432,0.28875639183333335,-2.533437073780952,4.321016066714286
5.900022667,2.115582877195238,-0.004888689928571388,-2.363520272495238,4.442758221380952
5.909968667,2.2891666344809525,-0.3572629829761904,-2.1742630536857144,4.619388831904762
5.919914667,2.381548604452381,-0.7097408274523809,-1.9206390723999998,4.816987395619047
5.929860667,2.363518687142857,-0.9932559700714284,-1.5595676029714283,5.021155245619048
5.939806667,2.244248964252381,-1.2123913193095237,-1.119338811209524,5.246205452380952
5.949752667,2.0589361657285714,-1.3826083890238094,-0.6470957341142858,5.465541421666667
5.959698667,1.8484317244904764,-1.5325108393571427,-0.19534138420952382,5.629384998857143
5.969644667,1.6711237084904762,-1.6656293027095235,0.1918731813142857,5.703224218000001
5.979590667,1.5958705999238096,-1.7594640829761905,0.5176192542666667,5.747708597523809
5.989536667,1.638863812304762,-1.7825189860380954,0.8202948037428571,5.8625493521428576
5.999482667,1.7425967314000002,-1.7067475357190478,1.1566441062190476,6.007317104809523
6.009428667,1.8626411824952385,-1.5499872202714284,1.550260676790476,6.078239732571428
6.019374667,1.9559723225904762,-1.3599736780095237,1.9608237034571427,6.072743554619048
6.029320667,1.9717861451619048,-1.2128566462666666,2.348090002933333,6.025703884904762
6.039266667,1.9296580979714288,-1.144389036538095,2.7014288081238096,5.913720134047619
6.049212667,1.8088422877809525,-1.1478616979142857,2.9989847304809523,5.681641784428572
6.059158667,1.581296498452381,-1.2201504073571428,3.234360581972857,5.358724139466666
6.069104667,1.2926224966904762,-1.3126902521285713,3.4004632096585716,5.071837155147619
6.079050667,1.0308165065476191,-1.3144894960714286,3.4900124542109525,4.940811209814286
6.088997667,0.7949305829285714,-1.2146792790523808,3.49474844655381,4.89017080662381
6.098943667,0.540174803452381,-1.0434933535333333,3.4156837608585717,4.8101471248619045
6.108889667,0.26498088911904766,-0.8089666291619046,3.2706246879823806,4.6892803551
6.118835667,0.020378855261904798,-0.49305225949523807,3.0804550529347616,4.538399372814285
6.128781667,-0.15975202940476188,-0.1386917229714285,2.8251921736490475,4.389587596861905
6.138727667,-0.26213117884761905,0.18334718740952388,2.48402484903,4.255918819385714
6.148673667,-0.3012254677523809,0.4775655469333334,2.0975621518919048,4.115817795433334
6.158619667,-0.314793012847619,0.7502277839333333,1.7168108200919046,3.9856735644809524
6.168565667,-0.33874073008571426,1.0109060689333333,1.386257218615714,3.896557506909524
6.178511667,-0.40858995332380943,1.2521261010952383,1.1288074876304761,3.8786090151476187
6.188458417,-0.5630554872333333,1.4515371491238096,0.9054871713161904,3.894350287147619
6.198404417,-0.8011695062809523,1.5992045152190475,0.6571140453495238,3.8464224508142855
6.208350417,-1.0693980502809524,1.7137412232809526,0.36393813301619043,3.718666107766667
6.218296417,-1.3233870091857143,1.820043687357143,0.03856965096857138,3.5554945546238095
6.228242417,-1.5513014515190475,1.9260362490000003,-0.2878684538409524,3.3995468867190475
6.238188417,-1.7340131301095236,2.0136658526380953,-0.5839610965552382,3.2844661605285714
6.248134417,-1.860869865890476,2.063948955814286,-0.8196453190790477,3.243693122576191
6.258080417,-1.925099942742857,2.0884040442619045,-0.9717294212933334,3.284432566480952
6.268026417,-1.9406343241,2.1068186526761905,-1.0630838962138096,3.3617257840619046
6.277972417,-1.9176718070428571,2.116963961647619,-1.1231557047566667,3.3962363364285713
6.287919417,-1.8616859701666666,2.0989467968380953,-1.1625419925138094,3.3658357953809523
6.297865417,-1.7885204567904762,2.034620157409524,-1.1925094739233333,3.3215070803809525
6.307811417,-1.6824093915761904,1.9243539493666668,-1.2168428846138095,3.2917036513809523
6.317757417,-1.5138034803476188,1.7807442724714282,-1.246066255642381,3.279795004904762
6.327703417,-1.2523890586809525,1.6260888154238098,-1.263547258642381,3.3002971763809525
6.337649417,-0.9010396711571428,1.4912918392285714,-1.2360219016328573,3.3616350913809523
6.347595417,-0.4882979997761904,1.383112753038095,-1.1831284073471429,3.4451916819523802
6.357541417,-0.045724029061904675,1.2921081921809523,-1.1609812705900002,3.531150685857143
6.367487417,0.39653165822380965,1.2178684339428572,-1.2126996424566667,3.6073830534761906
6.377433417,0.8164920793190478,1.1686461967047619,-1.3307031890757144,3.6869651334761904
6.387379417,1.2091852353190478,1.1456594693714284,-1.4550073646142858,3.7713583474761907
6.397325417,1.5596162201285717,1.1390968607999998,-1.537633363157143,3.8388582629523813
6.407271417,1.8363633777000001,1.1374321863238095,-1.5601031826666667,3.8753300667619044
6.417217417,2.064566310557143,1.1173447869904762,-1.5146274931619048,3.8839889355714283
6.427163417,2.2846152732714287,1.079160658942857,-1.3744917306380953,3.9131675230952383
6.437109417,2.521016364414286,1.0180512828809523,-1.1754931619238096,3.9915429009523806
6.447055417,2.800810478242857,0.9334695682428572,-0.965846841304762,4.132734191952381
6.457001417,3.1053007250238096,0.8583800285523808,-0.7269939569238095,4.321236900285713
6.466947417,3.377735366161905,0.8181201667904762,-0.42616281416190477,4.53183191
6.476893417,3.5587650513714286,0.7862026111142858,-0.10669573197142856,4.713397715714286
6.486839417,3.621004039885714,0.7273006285523809,0.15121690355238093,4.834706643380953
6.496786417,3.5634610337714285,0.6538161635095238,0.3768677773285714,4.993721835333334
6.506732417,3.4169881703000002,0.5895081516333333,0.6018763762238095,5.208897931476191
6.516678417,3.2217572688952383,0.5541494538714286,0.836580187704762,5.417946038857143
6.526624417,2.985828048047619,0.5346090337285714,1.0974998513714285,5.589328726380952
6.536570417,2.7080300065714287,0.4781702325380952,1.3225512463238094,5.668603654190476
6.546516417,2.406036827142857,0.32958006444761906,1.4203366839333333,5.639404567571428
6.556462417,2.10534523792381,0.06620894173333333,1.4366763913380953,5.584930736761905
6.566408417,1.8128531435380955,-0.2883512076,1.5080365281380952,5.538124628619047
6.576354417,1.5080254567428573,-0.6816052229809524,1.7328897025190477,5.510290586999999
6.586300417,1.204034422952381,-1.0641494920761905,2.0308222412809522,5.45193318447619
6.596246417,0.9003789636666666,-1.3849797690761905,2.273016732804762,5.3051725731428565
6.606192417,0.6181042382380952,-1.619545920409524,2.4358224079952384,5.117758971047619
6.616138417,0.3767584352380953,-1.7680012127138096,2.526208162857143,4.969421449619047
6.626084417,0.15527668190476196,-1.8306841302185712,2.5388277350519046,4.888998348095238
6.636030417,-0.0702272875238095,-1.8222854124090477,2.4674637418614287,4.8160576880952375
6.645976417,-0.31541983447619043,-1.755119323299524,2.3639342501880956,4.7049029597142855
6.655922417,-0.6163406345714285,-1.63430814909,2.2793548326404762,4.552429328809524
6.665868417,-0.9604669009047617,-1.50147365159,2.1791152072214284,4.372167662666667
6.675814417,-1.2824214164761905,-1.391751206732857,1.9977969793071426,4.177304023380953
6.685761417,-1.5129649897142856,-1.2893650127899998,1.7661653784357143,4.018884398333333
6.695707417,-1.6201607691428574,-1.1624270564280952,1.5557488681833331,3.938465041095238
6.705653417,-1.6021699724761902,-1.009444961142381,1.3367209685166668,3.8410056281904765
6.715599417,-1.4934649988571427,-0.8356265356185714,1.094733419707143,3.677413472333334
6.725545417,-1.3628455798095236,-0.6542786505233332,0.8451975053261904,3.4918484700000003
6.735491417,-1.2663984862857143,-0.46970471728523816,0.6049165638499999,3.3178413947619045
6.745437417,-1.251761234857143,-0.26522688985666665,0.4215705459166666,3.209686193
6.755383417,-1.3419489396666666,-0.0235829902852381,0.3381606272071428,3.181122335809524
6.765329417,-1.517819459447619,0.27451783685761905,0.3174484006547618,3.156298084952381
6.775275417,-1.7293811886809523,0.6173833599528571,0.27358476718095226,3.099948994809524
6.785221417,-1.910189598552381,0.962345109905238,0.13250295299190468,3.0069737777619046
6.795167417,-2.0456270397619045,1.2724937072385714,-0.036406930363809605,2.9183577642380953
6.805113417,-2.1396102836190476,1.5113204740480952,-0.15417668233095244,2.9088690744761903
6.815059417,-2.2004164815714287,1.6771900554290478,-0.23182865985952392,2.9675348624285713
6.825005417,-2.2278974205714284,1.7928370940666665,-0.27972656889761915,3.0447165680476194
6.834951417,-2.229974240190476,1.877078681761905,-0.3062033739352382,3.1056695161904764
6.844897417,-2.2183911287142855,1.9274225124285718,-0.33552088859714296,3.1443764590476193
6.854843417,-2.2002929103333333,1.9340813772857142,-0.3979602417333334,3.1611151940476194
6.864789417,-2.167338281333333,1.8930952078095238,-0.5093155633285715,3.156273409380953
6.874735417,-2.111238089605238,1.8007766105190475,-0.6594015884333334,3.145465853666667
6.884681417,-2.032185710919524,1.664119857761905,-0.8167473807571429,3.158385762
6.894628417,-1.91891169511,1.515821410047619,-0.9721659829809526,3.2065086590952383
6.904574417,-1.7556834123957141,1.3907494115761905,-1.141071661442857,3.307901628238095
6.914520417,-1.5535568060623806,1.2779498277428571,-1.3176626417285715,3.4565409972380956
6.924466417,-1.3535069079195237,1.1185743590285715,-1.4852712406809525,3.6198299766666673
6.934412417,-1.1654674134909524,0.8962244890761905,-1.6361536843952382,3.788330081952381
6.944358417,-0.9531178415861904,0.6514009014571429,-1.8004029187761905,3.962456235714286
6.954304417,-0.7133750110147619,0.44511007517142853,-2.0074695313666666,4.117178050095238
6.964250417,-0.4419568665861903,0.3261427926,-2.238111337847619,4.222378605333334
6.974196417,-0.1220487651099999,0.2675637990952381,-2.4796807550333333,4.29957733995238
6.984142417,0.2452418586042858,0.24764450719047618,-2.7093516448357144,4.373217515857142
6.994088417,0.6473457462233334,0.2368868555238095,-2.8821126153609526,4.442500113809524
7.004034417,1.0298570063661905,0.15594148253333331,-2.9772585080052383,4.48255211147619
7.013980417,1.3587741914138096,-0.03602954046666668,-3.017737692576191,4.511481128904762
7.023926417,1.6555199124614286,-0.3209609622761905,-3.0104273921933333,4.586640500095238
7.033872417,1.9205763419376194,-0.6756462141333334,-2.9516591124790477,4.713800507857142
7.043818417,2.111258360128095,-1.0882324052761905,-2.826076679902857,4.883273689571429
7.053764417,2.2111942644233333,-1.4899363711809523,-2.5897882729552384,5.092907469238095
7.063710417,2.2364396458471427,-1.7765813612761907,-2.234319716907619,5.323548368857143
7.073656417,2.1818293803709525,-1.9220039534666666,-1.8230206092885715,5.547769557761905
7.083603417,2.059057036119048,-1.9551605062904762,-1.3793067099076193,5.770156997380953
7.093549417,1.901630165909524,-1.9295666029666667,-0.9136660302885715,5.972471702857143
7.103495417,1.7322465750047618,-1.890818329967143,-0.45536071057428584,6.114740950714285
7.113441417,1.566374097861905,-1.8679771287142857,-0.011103827669523956,6.1571240880476195
7.123387417,1.4558388622142857,-1.852764928942857,0.44284375713999985,6.139733344428571
7.133333417,1.4416437995,-1.7836701636047618,0.9201814296638094,6.148120661238094
7.143279417,1.5099010764999998,-1.6477415005714289,1.4031908457114284,6.186301487571429
7.153225417,1.6147814699285714,-1.4879461460761905,1.8774142355209524,6.221767760285714
7.163171417,1.7275740092619047,-1.341655854934762,2.3268665087590477,6.224777513952381
7.173117417,1.8121171462142858,-1.2419063654442857,2.726860498235238,6.189152475523809
7.183063,1.7948365913571427,-1.1895429621776192,3.042148102044762,6.0463642906190485
7.193009,1.6866384877857143,-1.1891626425585715,3.2788824009447617,5.840881888428571
7.202955,1.4869033369380953,-1.2140050394680952,3.461246448644762,5.609920244714286
7.212901,1.2246963391761905,-1.1966819391538095,3.5834971064019046,5.440707598666667
7.222847,0.9505150512238094,-1.1001209641966667,3.6662383507638094,5.334475373095238
7.232793,0.6527849375095239,-0.9355305308538094,3.707062082514286,5.22435950447619
7.242739,0.34064756289047626,-0.7052880613871428,3.69888299377619,5.092828164666667
7.252685,0.06298461998571428,-0.40756997623952385,3.6117400437809515,4.943115263904762
7.262631,-0.15450869188095234,-0.09201963753476194,3.4047097657095238,4.778038415714286
7.272577,-0.32597244368571426,0.15451715646523806,3.0981823489952385,4.62150529452381
7.282524,-0.43957415416190476,0.3083769467033333,2.7661449225761907,4.4844628824761905
7.29247,-0.5097678341142857,0.40612777438904757,2.434087472919048,4.3530787582380945
7.302416,-0.5734225727809524,0.5004110361080952,2.1086051337528566,4.22859116852381
7.312362,-0.6507218170190476,0.6156092592038095,1.808525384320476,4.135305186047619
7.322308,-0.7614495653047619,0.7482955018985714,1.54253626823,4.089052587333334
7.332254,-0.9430136860380953,0.8978912797223809,1.2737634598157141,4.052096845571429
7.3422,-1.186953647990476,1.0577970630985714,0.9734818996490475,3.9620633722857144
7.352146,-1.4619883231809523,1.2237786603985714,0.6443874325538094,3.820110377714286
7.362092,-1.7509048173714288,1.391611068522381,0.3086982807442856,3.659323325285714
7.372038,-2.022009411847619,1.5352064614761904,0.009842355315714197,3.5293467144761905
7.381984,-2.2481900990380956,1.6327047451285714,-0.23231724082714297,3.455680570095238
7.39193,-2.3786132465571432,1.6974695916047617,-0.38841924335095246,3.4748884281428567
7.401876,-2.455333115252381,1.7628118924142857,-0.48112765501285726,3.541556590857143
7.411822,-2.474337958314286,1.834776526895238,-0.5670732605700001,3.6322525569999997
7.421768,-2.419605569547619,1.894710014,-0.6670897416128572,3.680969635904762
7.431714,-2.302605151090476,1.9220831693571427,-0.7910093374366669,3.672378781095238
7.44166,-2.1253440520428573,1.906359366057143,-0.9332370422795239,3.655772475761905
7.451607,-1.876489560995238,1.8540251710190478,-1.080537927174762,3.6619198981428567
7.461553,-1.5312145952333334,1.8060073348904762,-1.1942150927985715,3.6962569381904764
7.471499,-1.1186461684714284,1.7937367857809525,-1.23798369987,3.7544027964761906
7.481445,-0.6768794197571427,1.8128177400666663,-1.238523592779524,3.827319922
7.491391,-0.22296276951904756,1.8406134124476192,-1.2534257230604762,3.913328679761905
7.501337,0.23988029581428572,1.8582987477333335,-1.3364988943557143,4.002259527476191
7.511283,0.710094389052381,1.8667979402095238,-1.475536546284762,4.103907704047619
7.521229,1.1657850288142857,1.8579954999714283,-1.6174749479476191,4.202725688380952
7.531175,1.5610249813857144,1.8151811428285716,-1.7022078131428575,4.24817319052381
7.541121,1.8536054243857143,1.7184662329380953,-1.7292059949190477,4.202654346809524
7.551067,2.055197790147619,1.5593125267904764,-1.7193341407333333,4.097877791619048
7.561013,2.2288867694809524,1.3673396521714285,-1.6385568890904763,4.008495519999999
7.570959,2.409826184814286,1.1694468754571428,-1.4907320379476192,3.9710834318095243
7.580905,2.6262554704809524,0.9699847060761906,-1.3022788112809525,3.9984877568571426
7.590851,2.8794473982428572,0.7834819016952381,-1.1006784265190477,4.074945114095238
7.600797,3.1158184458095235,0.6331184123095238,-0.8799476784238096,4.166329637238095
7.610743,3.3132561142666668,0.4997840057333333,-0.624956506709524,4.265843715380952
7.620689,3.430976102223809,0.3709224824666666,-0.3796907581857144,4.331543556095238
7.630635,3.4271778066247616,0.2343114215142857,-0.16388035851904775,4.37289660552381
7.640582,3.2875658710723807,0.10394323781904757,0.08927840719523798,4.507538390904762
7.650528,3.035259072548572,-0.0051445474619047785,0.3841892997666666,4.700229458190476
7.660474,2.70707944412,-0.11144254260476194,0.6886918535285713,4.878966858904763
7.67042,2.327747871977143,-0.26208385829047626,0.9615639777190474,4.998515845285715
7.680366,1.9628984886438097,-0.4981249836952381,1.1290876806714283,5.036263171619048
7.690312,1.6564683305961907,-0.8299075132666667,1.1818820828999999,5.038662100952381
7.700258,1.394075781172381,-1.2150113592666667,1.2350489771333333,5.038433670380952
7.710204,1.122045878771905,-1.582245000457143,1.4195218648952381,5.010208736857143
7.72015,0.8576469825909524,-1.8749977832190476,1.7005275774666668,4.911546653809524
7.730096,0.6102637624100001,-2.066009598314286,1.954345547085714,4.725248231619048
7.740042,0.398667256162381,-2.1472779186,2.1173925104190476,4.5333893354761905
7.749988,0.24947087103857152,-2.1204503502333334,2.208844574695238,4.450303180666666
7.759934,0.13970437716714293,-2.0035436403238096,2.260269026504762,4.467554186190476
7.76988,0.01995443082428579,-1.8439698535142857,2.2526249319,4.494337701857144
7.779826,-0.1298175987566666,-1.6697961121809524,2.209607578890476,4.484227012761904
7.789772,-0.3585444420899999,-1.4874024664666667,2.158790346509524,4.429532214190476
7.799718,-0.6523337551852381,-1.3120763363714285,2.1049076417,4.338155409095238
7.809664,-0.9524872056138094,-1.1605891513666666,2.020511269852381,4.247098190095238
7.819611,-1.2250157363280951,-1.028218616552381,1.867289995585714,4.152330356190477
7.829557,-1.4394149243757144,-0.9074618910476191,1.6915264519790474,4.100488768238096
7.839503,-1.568924625400476,-0.7703446561428573,1.5224193229933332,4.104014131285714
7.849449,-1.6039109947338095,-0.6176270220476191,1.3037978048028571,4.04382238347619
7.859395,-1.56767850021,-0.4600090174857143,1.0477790824219047,3.913519086571429
7.869341,-1.5054091061623809,-0.2965305157547619,0.7904887298504759,3.7562406403809527
7.879287,-1.4718663029719046,-0.1167997755452381,0.5605216920885714,3.614124634952381
7.889233,-1.51244801221,0.09119275756428567,0.4006427502314285,3.515599697571429
7.899179,-1.6349286639242855,0.34845167442238095,0.32041418669333327,3.4254748053809525
7.909125,-1.8147659069766664,0.6476777564890476,0.25070911124095235,3.3201885549047616
7.919071,-1.9810587710523808,0.9398086600271428,0.11365552746952375,3.223749605285714
7.929017,-2.140509585347619,1.170118595265238,-0.0668073119685715,3.1624490388571433
7.938963,-2.2908271601666663,1.3169654577890475,-0.21460036534476196,3.1784406801428573
7.948909,-2.416257871442857,1.3923052165033334,-0.32103013169238104,3.254225347761905
7.958855,-2.5025907854142853,1.415487700265238,-0.39779159566857153,3.313737113952381
7.968801,-2.541546829495238,1.4099878927414284,-0.45564213748285726,3.3327283912380947
7.978747,-2.5458522179142857,1.388873207217619,-0.5137894376733334,3.3232074616190475
7.988693,-2.5232570730619046,1.3569166422652381,-0.5883003396685715,3.293146199476191
7.998639,-2.458140252054762,1.3174520296461902,-0.6874677527638097,3.244997922142857
8.008585,-2.3577191123785712,1.2739996437890475,-0.8041731374304762,3.1972229074761906
8.018532,-2.2137533957595235,1.229757466217619,-0.9278847115828573,3.168237987142857
8.028478,-2.0204670833785716,1.2026821569319048,-1.039273111697143,3.1806023446666662
8.038424,-1.7717404236166667,1.1974870728842857,-1.1537282371857143,3.2408093818571424
8.04837,-1.4900135823309522,1.1686032197414284,-1.2804916959619046,3.307186862047619
8.058316,-1.2066093975690475,1.0678503480414285,-1.3893961988666665,3.3512937741428575
8.068262,-0.9281279279499999,0.8944197321461905,-1.478348387009524,3.4136921599047616
8.078208,-0.6588630624261904,0.6721805694628571,-1.5927721046285714,3.5360204475238093
8.088154,-0.3908761198071429,0.4289215018247618,-1.760874654104762,3.708330711047619
8.0981,-0.11707648794999995,0.2284907829057142,-1.9618066464380954,3.871842320095238
8.108046,0.15107573595476195,0.09788077509523806,-2.1800225349333338,4.003764510714286
8.117992,0.43058099733571437,-0.00972428159047622,-2.3868107086809522,4.110162041619048
8.127938,0.752334507907143,-0.15747504012857147,-2.5443312178619046,4.209206693666666
8.137884,1.1110744975738096,-0.3690445377952381,-2.653206958042857,4.345545457761905
8.14783,1.4527383064785713,-0.6377852143666667,-2.6813636681428568,4.492644743238095
8.157776,1.7541880846690479,-0.9651672547,-2.617700802542857,4.658755474
8.167722,2.022911108192857,-1.326509561604762,-2.493733426604762,4.856394959190476
8.177668,2.2261620784785716,-1.6313697143666668,-2.322598956571429,5.013117833428572
8.187613792,2.3037836713595237,-1.814260791080952,-2.1185404023238097,5.08991654
8.197559792,2.270220430754762,-1.8941990508095234,-1.9027048596523808,5.169513302047619
8.207506792,2.165861636842857,-1.912433732047619,-1.6639393216047618,5.293843137714286
8.217452792,2.025314146785714,-1.915701323190476,-1.376690397652381,5.448167311523809
8.227398792,1.8678663936428574,-1.9327908133333331,-1.0484734306047618,5.5917982179047625
8.237344792,1.7018767216428574,-1.977419993095238,-0.6909565670809523,5.702478651571429
8.247290792,1.5482339466333335,-2.0551972611333333,-0.28710597693809525,5.77750173652381
8.257236792,1.456583129252381,-2.124894261842857,0.17175095796666662,5.868355971285714
8.267182792,1.4616906999666668,-2.130378198333333,0.6426906628238095,6.003715036857143
8.277128792,1.536494742347619,-2.048069895047619,1.079233620395238,6.1090564728571435
8.287074792,1.643914943490476,-1.859998213090476,1.4696757376333334,6.097725820238096
8.297020792,1.7289181449190476,-1.5851614522285713,1.814933551538095,5.95509655247619
8.306966792,1.7400721264428571,-1.3159529984190474,2.107260643047619,5.744909483
8.316912792,1.6865118259666667,-1.1248368661809525,2.372525362222381,5.504729807095238
8.326858792,1.5677450193095237,-1.0043184564761904,2.630947624384286,5.248676523628571
8.336804792,1.3592484562142857,-0.9010372487000001,2.858627562031905,5.03398058572381
8.346750792,1.058653847261905,-0.7772210093952381,3.053903121560476,4.842626654961905
8.356696792,0.7290110227380954,-0.6227994966333333,3.175713125512858,4.682907477819048
8.366642792,0.39812608254761905,-0.4243069904952381,3.19201098964619,4.526196483057143
8.376588792,0.0769216255476191,-0.18010501760000003,3.1247642820271424,4.340462284057143
8.386534792,-0.20164343140476187,0.030811457436333296,2.9725808049890476,4.206473571247619
8.396480792,-0.39073893295238094,0.1444422647458571,2.76377097037,4.185577053342857
8.406427792,-0.5092484899523809,0.17768908744109518,2.5432883356557143,4.190147084295238
8.416373792,-0.5990744749047618,0.16530418353633333,2.330333155779524,4.16658725672381
8.426319792,-0.6916937304285713,0.14596719077442855,2.113527699250952,4.119369220866667
8.436265792,-0.810321763142857,0.14785294567919044,1.8996125771128571,4.075396449009524
8.446211792,-0.9673708753809523,0.17587489134585713,1.679247614122381,4.038353068057143
8.456157792,-1.1732355510380952,0.2389577583839524,1.428585358927143,3.9882890641523816
8.466103792,-1.4349919790857142,0.357309022903,1.1402281892366666,3.9016588665333334
8.476049792,-1.745061109990476,0.5358955882839522,0.8229795406509524,3.769043597057143
8.485995792,-2.0799393643714286,0.750001789045857,0.511986132012857,3.631882544152381
8.495941792,-2.4154481991809527,0.9433472836125237,0.26606167724142854,3.545210219819047
8.505887792,-2.7000009998,1.0853985243696667,0.10875236045095231,3.529372978342858
8.515833792,-2.8915351801333333,1.1885138104172857,0.019193955274761816,3.5817516312
8.525779792,-2.986474610847619,1.284494365703,-0.03906133566190485,3.6822277396761907
8.535725792,-2.999571315842857,1.3974845269982379,-0.11223511868095247,3.807820476285714
8.545671792,-2.947527922334762,1.5363806380315712,-0.22225145223333342,3.89748534847619
8.555617792,-2.8387122414347616,1.675044879107762,-0.37394991314285725,3.9342482475714284
8.565563792,-2.693219454849048,1.7731657798220473,-0.5447769866666667,3.9238648829047613
8.575509792,-2.507898136096667,1.8116385375887145,-0.7042382424333334,3.897203679142857
8.585455792,-2.2745434721919047,1.7860604495982382,-0.8594237391476192,3.923333316857143
8.595402792,-1.944070816382381,1.7352559279428572,-0.9950972408238096,4.025287908095239
8.605348792,-1.5082224801919049,1.717784238745714,-1.087063390204762,4.169627613333334
8.615294792,-1.0258394401442859,1.7501621373504763,-1.136115066252381,4.3182707431428575
8.625240792,-0.5238547512395239,1.8194164620647617,-1.1975168414238095,4.463786023285714
8.635186792,-0.023715777715714332,1.8946579040647618,-1.3240960850380954,4.592571899809523
8.645132792,0.4744783840461904,1.95153565016,-1.5377417619476192,4.718938217571428
8.655078792,0.9600200342366667,1.9777996861599998,-1.7986660755285715,4.835390413047619
8.665024792,1.407401390760476,1.9580894879219048,-2.021323509,4.90349460652381
8.674970792,1.7901337592366666,1.8712208158409522,-2.128263037690476,4.879862583714286
8.684916792,2.096786668284286,1.7148422957076188,-2.1146268852857144,4.804355976142857
8.694862792,2.385724128903333,1.5241881631504761,-1.9917895534095238,4.771091300666667
8.704808792,2.683063314474762,1.3331277186980952,-1.8046642259238097,4.7899766537142865
8.714754792,2.9870238591890477,1.1574927860123811,-1.619789881561905,4.836607695523809
8.724700792,3.308785722950952,1.0000044643661905,-1.4362796125619048,4.929142147714286
8.734646792,3.637123003474762,0.869405051137619,-1.2132336246571431,5.081242622571429
8.744592792,3.9001335757461906,0.7610306818804762,-0.9385525946571429,5.2407399792380955
8.754538792,4.055810986857144,0.6547792138614286,-0.6683168407523811,5.327883975380953
8.764484792,4.086741226242857,0.5314981200852381,-0.43758495932380953,5.312800714428572
8.774430792,3.9822357785619045,0.40062972103761896,-0.2339164700380952,5.325845578428572
8.784377792,3.760896056904762,0.284704508085238,-0.01113204056190476,5.438260600714286
8.794323792,3.4726275177619046,0.19305917594238087,0.28716898415238096,5.556693911333333
8.804269792,3.108004867190476,0.08791146732333328,0.6367287617238095,5.612665874190476
8.814215792,2.6833170836666667,-0.10401436502714292,0.9548566644857143,5.599200488619048
8.824161792,2.286683349809524,-0.4193687941700001,1.181536091342857,5.554232063047619
8.834107792,1.943765563752381,-0.8166392480271428,1.381580671295238,5.505927478571429
8.844053792,1.6229815772238094,-1.2140021575509525,1.6427377318666665,5.458111969761905
8.853999792,1.3336346165904762,-1.532999722265238,1.976578300390476,5.348411899190476
8.863945792,1.0663357799019049,-1.7292439043604764,2.3018343766761906,5.1345921119047615
8.873891792,0.8189358255542858,-1.799852708760476,2.5661662038666666,4.908113627238095
8.883837792,0.5869602970304763,-1.7645895851080953,2.708075545247619,4.795818600476191
8.893783792,0.3706210863638096,-1.6552091327842855,2.7307858524,4.776518672666667
8.903729792,0.13716220279238103,-1.524032084274762,2.6590944012333333,4.729081207619048
8.913675792,-0.11640283301714278,-1.4056526835366667,2.539122173695238,4.626135048
8.923621792,-0.4039344280647619,-1.3097003062795238,2.4304924899380955,4.506588121809524
8.933567792,-0.7389446903028571,-1.2273596205380954,2.325651634842857,4.358141594571428
8.943513792,-1.1123606900647618,-1.155399775214286,2.1791533499190474,4.172627251380953
8.953459792,-1.4561105905885714,-1.0852682706714287,1.9803113473619045,4.0049175197142866
8.963405792,-1.7262149492076189,-1.002463176795238,1.7927718995271429,3.922851239238095
8.973352792,-1.8973884842076192,-0.8770003197809525,1.6560597635461907,3.9531586874285716
8.983298792,-1.9459450994933332,-0.6982154084952382,1.5399619898223809,3.973725116571429
8.993244792,-1.9005281327314287,-0.48895738478095246,1.389506086565238,3.897983047142857
9.003190792,-1.8381850637314283,-0.2748738628285715,1.1767404713271428,3.769252573142857
9.013136792,-1.8026529820647619,-0.06473094654285723,0.9307868396604759,3.6275209914285718
9.023082792,-1.8109263745409523,0.16369191117142848,0.6984146193271428,3.499348759142857
9.033028792,-1.8923078384457144,0.4361392491095237,0.5141900432795237,3.3914599248095234
9.042974792,-2.0393096521980953,0.7311386017047619,0.3434174358509523,3.283037903285714
9.052920792,-2.190433920050476,1.0077926215,0.14349840399380942,3.1749545899047615
9.062866792,-2.3490488887980954,1.214853609638095,-0.07181682005380961,3.10671283247619
9.072812792,-2.4892794597285715,1.3281467820142856,-0.24892589148238103,3.1257224872380953
9.082758792,-2.590601293380953,1.3650904093571428,-0.3998549806252382,3.191232682904762
9.092704792,-2.6344830597619042,1.359441720595238,-0.5300150661014287,3.2296824836190474
9.102650792,-2.6252599123809524,1.3374417109285712,-0.6436503284538097,3.2338068830952382
9.112596792,-2.5872124978095234,1.3158424304523808,-0.7580988897633334,3.2287261091428574
9.122542792,-2.540786691442857,1.2990335510238094,-0.879954414987143,3.2278091937619044
9.132488792,-2.476297750033333,1.2831011970714283,-1.0077168009442858,3.2212885127619053
9.142435792,-2.3909324110047616,1.254770434833333,-1.125925254182381,3.1965566853333334
9.152381792,-2.2771061953142855,1.2107519550238093,-1.211243063687143,3.1422372076666663
9.162327792,-2.1138855975523807,1.1633105429761905,-1.2640275778585714,3.08173565847619
9.172273792,-1.885423159695238,1.124379140738095,-1.3020337539190476,3.0570004343333332
9.182219792,-1.6055498021714283,1.0529013008809522,-1.3566001914142858,3.0648483558571433
9.192169167,-1.3027908602190474,0.9034875385476189,-1.4484539367857143,3.121126285
9.202115167,-0.9874123183142858,0.6806321350238095,-1.5722155185761904,3.242943096
9.212061167,-0.6717318373142857,0.4218035749285714,-1.7322937948142856,3.4162128000000003
9.222007167,-0.36407473855238087,0.17881122388095227,-1.9210890836238097,3.602062375142857
9.231953167,-0.061827483742857084,-0.0009319068333333926,-2.1216888149095237,3.758328714523809
9.241899167,0.2446730357333334,-0.11315091786666673,-2.324238926719048,3.882745066285714
9.251845167,0.5706662231619049,-0.17451619316666672,-2.5267260591476193,3.99457565447619
9.261791167,0.9203277701142858,-0.1838268538714286,-2.7048115599095235,4.09772824595238
9.271737167,1.2358513230190475,-0.18208457851428578,-2.825818045004762,4.155093350761905
9.281683167,1.4568762417333334,-0.26091657289047626,-2.85423345262381,4.130110632476191
9.291629167,1.6211567726333331,-0.45225456516666673,-2.8177463849428572,4.1533081798571425
9.301575167,1.749233265438095,-0.731208740357143,-2.7310210636095236,4.256306436857143
9.311522167,1.8532269703380952,-1.0818870902619049,-2.5966186630857147,4.431524024428571
9.321468167,1.9439143336666669,-1.486104551452381,-2.41064493427619,4.661281272380952
9.331414167,2.0259851007809524,-1.8784202836428572,-2.160159404180953,4.900403369619047
9.341360167,2.086651912247619,-2.1525000249761908,-1.834768897609524,5.093382515476191
9.351306167,2.097045003944762,-2.261064247785715,-1.486840576752381,5.253928349904761
9.361252167,2.0348718383495235,-2.236227196928571,-1.159436929514286,5.448080592666666
9.371198167,1.8851865145876192,-2.1717538759285717,-0.8671918660714287,5.651924905380953
9.381144167,1.6620696291590478,-2.1468570999285714,-0.5954167351761905,5.791945476047619
9.391090167,1.42141131954,-2.1344350522476194,-0.3007174282238096,5.867261413238095
9.401036167,1.2287221470590477,-2.080753352459048,0.07266106582380948,5.901117703571429
9.410982167,1.1263192467733334,-1.9808885614257143,0.5506099673,5.9356399394285715
9.420928167,1.1011710962019048,-1.8601523847114285,1.1184560504904761,5.989718746238095
9.430874167,1.1284150559161905,-1.75382842514,1.6997471656809524,6.037140710666667
9.440820167,1.1879308569161904,-1.6702846051876192,2.192821171252381,6.031321185428571
9.450766167,1.2375545890590476,-1.5863220688866668,2.542670915014286,5.935596088380952
9.460713167,1.1986733336780953,-1.5069212796580953,2.7959565078428574,5.7501631883333335
9.470659167,1.0612877672876189,-1.4685253988533336,2.996413427866667,5.525077632
9.480605167,0.8765434851733334,-1.4509816079152382,3.139642311757143,5.352074220333334
9.490551167,0.712666801982857,-1.3786054964961907,3.2088447772380952,5.308531967238095
9.500497167,0.5451586915590476,-1.2236875830109524,3.234545019833334,5.2634564591904764
9.510443167,0.36614760437333327,-1.0075862704776193,3.220839588367143,5.175383239809524
9.520389167,0.18309511666380945,-0.7331820922109525,3.1654371086895234,5.029015988666667
9.530335167,-0.01088503747428576,-0.4083003769442858,3.0721997470033333,4.833080366095238
9.540281167,-0.21531127024095242,-0.09050523643476198,2.918477394610476,4.632026565619047
9.550227167,-0.4262512176885715,0.11527387494190465,2.671081199158095,4.494802906047619
9.560173167,-0.6050122667952381,0.18254618849904752,2.3898099116152376,4.406606371666666
9.570119167,-0.7254353947000001,0.1547402695609523,2.1198763473676188,4.303001133428571
9.580065167,-0.7958136517476191,0.11814229622761895,1.886160047067619,4.195842806190477
9.590011167,-0.8480643429857143,0.1424124873704761,1.6888522981771428,4.126884160047619
9.599957167,-0.924338347604762,0.24117105483238083,1.4995926290533332,4.100221714095238
9.609904167,-1.0601854837428573,0.40049803347238083,1.277234712224762,4.071497617095238
9.619850167,-1.277713015695238,0.6126137306771428,0.9833265631914284,3.973277756380952
9.629796167,-1.5500837551238096,0.8653220380104761,0.6270155608823809,3.802391717
9.639742167,-1.8458317184095239,1.1390696435342857,0.2693590324633332,3.624806449
9.649688167,-2.144254058885714,1.381402052772381,-0.002304444455714411,3.515553501714286
9.659634167,-2.420864920647619,1.5553357519952378,-0.13671035330809536,3.50828309
9.669580167,-2.605487441457143,1.6801826605190475,-0.18955325437476203,3.583843442285714
9.679526167,-2.6986763271619045,1.7740265875285712,-0.23315357477952392,3.688153091047619
9.689472167,-2.716227301809524,1.8448894673809524,-0.2927301589557144,3.7784622544761906
9.699418167,-2.675991413633333,1.899430429438095,-0.37913142967476204,3.827161891380952
9.709364167,-2.5916566881285714,1.9335482645195239,-0.49319181242714294,3.8405481041428566
9.719310167,-2.465597261952381,1.9316179594147618,-0.6311031549133335,3.8387228525238095
9.729256167,-2.2832796578714287,1.890995444957619,-0.7804707799500001,3.851681878047619
9.739202167,-2.018276772157143,1.8226179658814285,-0.9445718572161904,3.9048087993809526
9.749148167,-1.670254478157143,1.7423583181338091,-1.105772465156667,4.003960732
9.759094167,-1.2554839900142858,1.6795480844714283,-1.2032511188471429,4.103868535380952
9.769041167,-0.8193136113952381,1.6455476113619045,-1.2482656301138098,4.196346611
9.778987167,-0.3863451403,1.6206705627619047,-1.3147267260090476,4.299709665285714
9.788933167,0.03666939289047618,1.5816190559238095,-1.4635377796614286,4.4081608097142855
9.798879167,0.4270087104619047,1.514086889347619,-1.6960240485328573,4.506693810285714
9.808825167,0.7891203438904763,1.4058191899761903,-1.9467534631709524,4.580830734428571
9.818771167,1.1286360807,1.2407373260033332,-2.1423950340090476,4.6058058049523805
9.828717167,1.404493904604762,1.0077352352890476,-2.2448925774042854,4.559266357380953
9.838663167,1.6222506474619045,0.7315861364795236,-2.2475763641190474,4.473726067095238
9.848609167,1.8508493254142857,0.46269966938428553,-2.1538890728904767,4.418441729095238
9.858555167,2.111385105414286,0.23385699548428557,-1.9969905404000001,4.420791574
9.868501167,2.4322027552238095,0.05176645826999985,-1.8040907289761907,4.495489464238095
9.878447167,2.7826705496999997,-0.07813428227761919,-1.5764334248809526,4.628026742952381
9.888393167,3.104154336557143,-0.1385125754204763,-1.2782682783095238,4.80588513252381
9.898339167,3.361074031366666,-0.12963989903952394,-0.8895697451190477,5.023469617857143
9.908285167,3.5049419602857137,-0.11471525699190488,-0.5283886543095239,5.159841316952382
9.918232167,3.5248957229190476,-0.1484317642500001,-0.24014848807142866,5.1872941194285715
9.928178167,3.429955484742857,-0.20961729334523818,0.053768739833333246,5.2495325549047624
9.938124167,3.2479359772809526,-0.27038896486904773,0.39158469102380944,5.352152317904762
9.948070167,2.9821720625190475,-0.325869087202381,0.7608660967380951,5.4361406999523805
9.958016167,2.6666533822809524,-0.39093076339285726,1.1080859021190475,5.449681727571429
9.967962167,2.3481627572333332,-0.5147760856309525,1.3380670567380952,5.408796779285715
9.977908167,2.0700617743142855,-0.7437196518404763,1.4251541710476192,5.3874650481428565
9.987854167,1.8504007882714286,-1.0528812948738095,1.484475566038095,5.40201595352381
9.997800167,1.6414676330809523,-1.3473866552261906,1.7000501558476189,5.377746580952381
10.00774617,1.4304222965285713,-1.552607009459524,2.048647871514286,5.294113121952381
10.01769217,1.2152119604333333,-1.6549031841357145,2.381251113466667,5.13841064647619
10.02763817,0.9901101680380953,-1.6456490604390477,2.6316736327999997,4.982465290047618
10.03758417,0.7993231505142857,-1.5327135984866669,2.7635175980333333,4.893323748857143
10.04753017,0.641092900704762,-1.3533939453914288,2.781512291090476,4.865917096571429
10.05747617,0.462406556752381,-1.1648489731533336,2.7193849565285713,4.826475293571429
10.06742317,0.242718812704762,-0.9910422142057145,2.6161449855761907,4.75591961147619
10.07736917,-0.04139736800952369,-0.8292908546580955,2.499528924090476,4.6468591191428565
10.08731517,-0.3637117658190475,-0.6918021266819049,2.37144805977619,4.506814719142858
10.09726117,-0.6569133501952381,-0.5917480390152383,2.190407459728571,4.342765724047619
10.10720717,-0.8865116235999999,-0.5325961436819049,1.9154190332238092,4.146183804333333
10.11715317,-1.023116948704762,-0.46587806263428594,1.6481880520714283,4.025325138952381
10.12709917,-1.0718463631285713,-0.34021690146666683,1.4376827754523809,4.011477785428572
10.13704517,-1.0608574401285713,-0.16399353008571443,1.2218575350238094,3.9618740695714285
10.14699117,-1.0462599219380952,0.03466090215238079,0.9772500437857141,3.862364139285714
10.15693717,-1.052954259890476,0.23525594172380937,0.7257678418809524,3.7491345077619047
10.16688317,-1.1152031608428572,0.43212397996666646,0.5132036214476189,3.6729710836190477
10.17682917,-1.2500619782714284,0.6489544820571427,0.3867572766809523,3.6539475679523807
10.18677204,-1.4628018100666667,0.904117617585714,0.35512181609999993,3.635889222761905
10.19671804,-1.7549057328809523,1.1736081020809523,0.3530975657285713,3.5914061656666667
10.20666504,-2.047670474595238,1.3939107226238092,0.24111695405238084,3.569632850238095
10.21661104,-2.2910215662333333,1.527115696895238,0.043782029538095145,3.586665590095238
10.22655704,-2.488657371757143,1.5939212216342857,-0.1294959740333334,3.669286292952381
10.23650304,-2.641753571314286,1.612272359910476,-0.2633310832238096,3.7749349424285716
10.24644904,-2.7480125710761905,1.601353074515238,-0.3507226773619049,3.8579673329999995
10.25639504,-2.8079534924571425,1.5760556528485712,-0.40230976356190484,3.8914963243809515
10.26634104,-2.836558516933333,1.5388800163723808,-0.4561155357095239,3.8863772866190476
10.27628704,-2.8296762327190477,1.4824596338961904,-0.534299268757143,3.8487154429999997
10.28623304,-2.7822716581380953,1.3961766439914285,-0.6426150684142858,3.783687887952381
10.29617904,-2.703414492885714,1.2851672269914285,-0.7671032363380954,3.7086056520952377
10.30612504,-2.6011838627,1.1652928324199998,-0.8977109330999999,3.654702479142857
10.31607104,-2.4674555626285715,1.0536012820390477,-1.0217529306428572,3.644978438666667
10.32601704,-2.2992151859047616,0.9505486586342856,-1.1447305957285716,3.6859828618571426
10.33596304,-2.1103040387142857,0.7946567242914284,-1.2918811514904764,3.7699206840476185
10.34590904,-1.883950079047619,0.5527917581961903,-1.4323810006333335,3.892117095047619
10.35585604,-1.6040257672380955,0.27004691662476177,-1.5903909774428573,4.053430669190476
10.36580204,-1.254965119190476,0.012692773719999847,-1.7945984129666668,4.236841000857143
10.37574804,-0.8703422902380952,-0.15746014371333347,-2.047164215295238,4.399419491380952
10.38569404,-0.5233775905238095,-0.2279548717180954,-2.3120033232904764,4.494676008095238
10.39564004,-0.16922190147619037,-0.20196229967047635,-2.5606610990190477,4.553731295333333
10.40558604,0.2382608677142858,-0.07415553054666682,-2.7556454150190475,4.5946836811428575
10.41553204,0.6797212223333334,0.092019915862857,-2.855199301247619,4.61927270847619
10.42547804,1.1391070796190477,0.19190494940095226,-2.861205728209524,4.629776055952381
10.43542404,1.593139838857143,0.16613766221428558,-2.815513552509524,4.6507650844285715
10.44537004,2.0023984909523813,0.0033920254047617527,-2.7326183558523813,4.712007337714286
10.45531604,2.316495824380952,-0.276016200009524,-2.601726602757143,4.838515001285715
10.46526204,2.5136492624285713,-0.6226705796285715,-2.416984687352381,5.02601366252381
10.47520804,2.603894130761905,-0.9334074904380953,-2.1785140438333337,5.214640761809524
10.48515404,2.582358139404762,-1.1225769453428573,-1.9225819437857143,5.347363556428571
10.49510104,2.4510805466333334,-1.1994089135190478,-1.681163997309524,5.460373210666667
10.50504704,2.2498026775238094,-1.2340093944666668,-1.442934732452381,5.583506111904762
10.51499304,2.0278578803809526,-1.2847860443952381,-1.1795534466904762,5.679421146428571
10.52493904,1.8224363958571428,-1.376100090009524,-0.8878050067380954,5.723959644238095
10.53488504,1.6770405894952385,-1.4904414036523812,-0.531867086357143,5.749234245333334
10.54483104,1.6342732467333336,-1.5410111456904765,-0.0631251270714287,5.8123377165238095
10.55477704,1.6814790438285714,-1.4731023766428573,0.48612747859523797,5.927929582523809
10.56472304,1.7674815622571431,-1.3354333316428573,1.074755373690476,6.040936206476191
10.57466904,1.8383900504,-1.1959186826428574,1.6362684490238095,6.0838401344761905
10.58461504,1.8825715840190476,-1.0832090066857145,2.130630874642857,6.04700982352381
10.59456104,1.9267289491619046,-1.002571726257143,2.5231361679761903,5.954245805285715
10.60450704,1.9028942781142857,-0.9786972106428574,2.829895774833333,5.790324671809524
10.61445304,1.765884910404762,-1.0471547965809525,3.0625647761857144,5.55526823804762
10.62439904,1.5429574190619046,-1.1760788572000003,3.2081860623095237,5.314098638042857
10.63434604,1.2594227300619047,-1.2820134478952383,3.281701079042857,5.133504586566667
10.64429204,0.9446391562523809,-1.3144468393523812,3.3151908187476185,4.9905606538523815
10.65423804,0.641691711252381,-1.2456209344952383,3.308618186385714,4.843769697709523
10.66418404,0.39350358006190483,-1.0699881179238095,3.2382602832476186,4.658532474661905
10.67413004,0.21336963258571437,-0.825841637861905,3.081108653290476,4.440822043804762
10.68407604,0.09140217149047626,-0.597541334961905,2.8495697168619047,4.253886529280953
10.69402204,0.025991569680952425,-0.452041684857143,2.6171233761333332,4.15564549242381
10.70396804,0.015890031300000065,-0.3707388938238097,2.4346942607666664,4.104983667804762
10.71391404,0.013918155300000078,-0.28643561801904777,2.2880297513285712,4.078857214280952
10.72386004,-0.034785392176190394,-0.1534526708523811,2.15705485287619,4.099352718947619
10.73380604,-0.14538085417619037,0.04486749557142841,2.0389103292095236,4.165118861614285
10.74375204,-0.344654576195238,0.2911916875714284,1.895803763495238,4.231313357757143
10.75369804,-0.6404852636238095,0.5540523623333332,1.6785003469238096,4.222226598471429
10.76364504,-1.016822003290476,0.8078192106190475,1.355111147395238,4.1018293353285715
10.77359104,-1.4217742367190476,1.0454269025714285,0.9642223864619048,3.905743617804762
10.78353704,-1.805534935480952,1.2603754365714284,0.5934234890809523,3.710925258566667
10.79348304,-2.142071098242857,1.4146768725666665,0.29089320117619044,3.580639184233333
10.80342904,-2.4045761370047622,1.5005615278619047,0.08307934227142853,3.539578990233333
10.81337504,-2.579258558242857,1.5510082277666666,-0.048939037061904805,3.5704307972809524
10.82332104,-2.6745584001523808,1.6001899521809522,-0.14943590512857147,3.6570897586619044
10.83326704,-2.7136877723809523,1.6677698292761902,-0.23888700001428578,3.7481467969047615
10.84321304,-2.7173110970476193,1.7571298050190474,-0.3296979414619048,3.7897159280952386
10.85315904,-2.6907117789523807,1.8556563911333332,-0.4313569993428572,3.7895054017619043
10.86310504,-2.6445356487,1.9366994961523807,-0.5421300496380953,3.768580901285714
10.87305104,-2.5739860682333333,1.972503904880952,-0.6481857821190476,3.7534793352857143
10.88299704,-2.4539949659999998,1.9563036509619047,-0.7373001086857143,3.759762211047619
10.89294404,-2.253373015285714,1.901113717585714,-0.8180634940666666,3.796709521571428
10.90289004,-1.962665268380952,1.8216103236238095,-0.926059645957143,3.8768464589523806
10.91283604,-1.6114758439999999,1.7412525818571427,-1.0613749116857143,3.9673951812380945
10.92278204,-1.2106770270476188,1.687762740333333,-1.1973803994380952,4.0299915845714285
10.93272804,-0.7625476445714285,1.6741440878095237,-1.3365570271761904,4.078722742380952
10.94267404,-0.2950284773333332,1.6874064360952379,-1.487050853795238,4.130733677428572
10.95262004,0.17472140271428582,1.7139110014761905,-1.6583210348904764,4.183160548476191
10.96256604,0.6309332242857144,1.738929510904762,-1.845131082604762,4.238806481809523
10.97251204,1.0472295572857144,1.7365225463333336,-1.9951402307428572,4.269570149190477
10.98245804,1.393414739619048,1.6805845173809526,-2.067135048,4.248831767761905
10.99240404,1.6520350552857141,1.5765957686666665,-2.042080230142857,4.181100514571428
11.00235004,1.8734469761904764,1.4589894255,-1.9177293047285713,4.120128049571429
11.01229604,2.105585642047619,1.3462741668523808,-1.7228573666809521,4.1256250798571426
11.02224304,2.3752530465714288,1.2396112080114283,-1.494693248204762,4.2119470998095245
11.03218904,2.7099103597142857,1.1489933569401904,-1.2592560009666667,4.379354519380953
11.04213504,3.060285712476191,1.0857934063401902,-1.0326831047761904,4.582506196904762
11.05208104,3.3556946486190475,1.0522439206306666,-0.7910219698238097,4.7687677410000004
11.06202704,3.5828524890952385,1.0292089955497141,-0.5364369290142857,4.9229904460952385
11.07197304,3.7022924216047617,0.9923854310354285,-0.2974600001571428,5.007431470047619
11.08191904,3.67394186237619,0.9331882754497142,-0.05973587901428572,5.088581819666667
11.09186504,3.5295057233333336,0.8618433065925712,0.20289376108095233,5.213517615285714
11.10181104,3.322799187857143,0.7962305999259046,0.5187340381761905,5.32288605352381
11.11175704,3.0688534982857143,0.7207067653068571,0.8767834995095237,5.369063876333334
11.12170304,2.7938187952857145,0.5778487201687619,1.2054729772714285,5.3565690594761906
11.13164904,2.5385540295619045,0.31621590502590463,1.4477371550333333,5.323694836
11.14159504,2.330683146409524,-0.0576688883074287,1.6436901876047618,5.294191708333334
11.15154104,2.1492074021714287,-0.4899061094502859,1.8515706212238092,5.25720979447619
11.16148804,1.9582141449809525,-0.8955091797360001,2.099629890938095,5.170262842285714
11.17143404,1.7243716562190474,-1.1998153227360002,2.3625375243666666,4.992136312047618
11.18138004,1.4669444787904762,-1.379849797938381,2.604557455652381,4.8118839104285716
11.19132567,1.2257688019809525,-1.4422198894145715,2.788962292985714,4.715377389428571
11.20127167,1.0096768728380954,-1.4193936681764765,2.888155266795238,4.704476719190477
11.21121767,0.8069332181714286,-1.3585580949145715,2.895724344757143,4.698922265190476
11.22116367,0.5923972330761906,-1.2799709318383812,2.832166809095238,4.636797311714285
11.23110967,0.338052763457143,-1.1838015810926668,2.7396240372380953,4.5196145556190475
11.24105567,0.015898078171428725,-1.0800612276880954,2.644947870428571,4.346691116285714
11.25100167,-0.3304730456380951,-0.9777470379928572,2.554294922142857,4.164345231666666
11.26094767,-0.6304646952571427,-0.8808441122833335,2.4362156923809524,4.016697769238095
11.27089367,-0.8761547288285714,-0.7713046713642858,2.2983821178761907,3.9113825992380953
11.28083967,-1.0329417743999998,-0.6240723102500002,2.1619116685761903,3.879180868095238
11.29078567,-1.0786839577333331,-0.4272852559166668,2.015133829730476,3.850477072238095
11.30073267,-1.0700885228761903,-0.1951279207738097,1.845027802287619,3.7672292962380953
11.31067867,-1.089212760542857,0.02378968927380937,1.6335486310304763,3.6669454979523812
11.32062467,-1.1494332902095237,0.20853532179761888,1.4156593252185714,3.567633513809523
11.33057067,-1.2423391428285713,0.3880345540071427,1.2460462172042857,3.4910148003809525
11.34051667,-1.3850706235809522,0.5961240256171427,1.1403144692185716,3.425945488380953
11.35046267,-1.599178453238095,0.8415136794099999,1.0423856338419046,3.3327203537142855
11.36040867,-1.8597147344285712,1.0996872956719046,0.8982643238561905,3.2275442793809526
11.37035467,-2.112629532,1.3126875234814286,0.711821425575238,3.167639505095238
11.38030067,-2.3088346073809523,1.4367137752957142,0.5281060028133334,3.201158567142857
11.39024667,-2.4472250873809522,1.4831723399933332,0.3655212201466666,3.2729211314761906
11.40019267,-2.547224809904762,1.4892886389457143,0.23844607693238093,3.3272543866190483
11.41013867,-2.602950501380952,1.485674154755238,0.1544476220323809,3.3540725117619052
11.42008467,-2.626862411380952,1.494427408707619,0.10045529585619047,3.3681946243809526
11.43003067,-2.6209146514761903,1.5164661631838094,0.05443932361809521,3.3769739566190475
11.43997767,-2.5831037150095235,1.5369955006599998,-0.014185101124761935,3.373300171714286
11.44992367,-2.5050828408285715,1.549321375564762,-0.1167293647914286,3.364035930809524
11.45986967,-2.390948449019047,1.5440240766123807,-0.25644309755333333,3.363907344142857
11.46981567,-2.246636688638095,1.5083325191361905,-0.41163034493428574,3.3735959452857145
11.47976167,-2.088006405780952,1.4434372518980954,-0.55955390262,3.380263505714286
11.48970767,-1.9058066648761904,1.358410271750476,-0.6892746881771428,3.3926520613809523
11.49965367,-1.6945371014952382,1.262705496212381,-0.8125119961409524,3.4142826367142853
11.50959967,-1.4689090040190476,1.137791149807619,-0.9511278732695236,3.439091877714286
11.51954567,-1.2501198377809521,0.923786286807619,-1.0999817516790475,3.490186686619048
11.52949167,-1.0215027272095236,0.6245482040457142,-1.2502217273433334,3.6163665303809527
11.53943767,-0.7700737628285711,0.3145657511219047,-1.415025305614762,3.783874889
11.54938367,-0.5050722136380951,0.06998925013095228,-1.6128052032480955,3.9345216202380957
11.55932967,-0.2604998057333332,-0.08463349037619056,-1.842233042490476,4.048753000047618
11.56927567,-0.024892877876190312,-0.1471366338285715,-2.074106911266667,4.1298860082380955
11.57922267,0.2420760366476192,-0.12170144064761915,-2.2738520023666666,4.189472408809523
11.58916867,0.5681429546952382,-0.048170782604761986,-2.412783043557143,4.246037000380953
11.59911467,0.9704981612190478,-0.014172007957142933,-2.4870806614142857,4.312524285809523
11.60906067,1.4348339928857146,-0.08717413341904769,-2.5337907468666665,4.434034571904762
11.61900667,1.9243585993142855,-0.245367378704762,-2.5439131124761905,4.631330128
11.62895267,2.405174084361905,-0.46660741927619054,-2.4983393881285716,4.890791199142858
11.63889867,2.813449318314286,-0.7205859368,-2.3969337165619047,5.150205710761905
11.64884467,3.05446890232381,-0.9253257473714285,-2.2377084638190476,5.303915242095238
11.65879067,3.0898108102380957,-1.045697559004762,-2.0153368756285714,5.368989324095238
11.66873667,2.9704048472380955,-1.1015873066714288,-1.7392834205809522,5.442723560904762
11.67868267,2.748455984904762,-1.0999313195285714,-1.417232231057143,5.561906589952381
11.68862867,2.4945110750000006,-1.0773190228619047,-1.0368566802952384,5.735382011761905
11.69857467,2.243448257714286,-1.066701537304762,-0.6063086222952382,5.932739421
11.70852067,2.0087991037619046,-1.0735119564380955,-0.13654816162857145,6.130408324523809
11.71846767,1.818380850666667,-1.0720002284428571,0.38173720013333323,6.328068073666667
11.72841367,1.7127700564809525,-0.9800897668380953,0.9324444260380952,6.502501947761906
11.73835967,1.6718032663523812,-0.7605984335619049,1.457302503704762,6.583968205809524
11.74830567,1.6631900949238096,-0.47544328614285725,1.9210776430857142,6.56749724
11.75825167,1.6714512082571429,-0.21525538761428578,2.319734875514286,6.48066808
11.76819767,1.707195293257143,-0.0370158266190477,2.655668607990476,6.343046911476189
11.77814367,1.7433490174476192,0.03949465605714279,2.924473102752381,6.168879757857143
11.78808967,1.7224399311619047,0.007692513285714212,3.125053673957143,5.982484757428571
11.79803567,1.6134206000666669,-0.10336070213333343,3.2823057890095235,5.77263464937619
11.80798167,1.4029470376523812,-0.2082516762285715,3.386067470833334,5.545201201857143
11.81792767,1.0871652048904765,-0.2331294348476191,3.462441093856667,5.283868564452381
11.82787367,0.7017468761809526,-0.17875781927619055,3.5010020036185714,4.973624121166667
11.83781967,0.2789620828809526,-0.05437757421904771,3.4788119646614284,4.6221551168333335
11.84776567,-0.12603369840476172,0.1142006601999999,3.3900381165995235,4.298145913833333
11.85771267,-0.41328220469047605,0.25348888272380943,3.241474372337619,4.1087841915
11.86765867,-0.5558546690238094,0.33734628049999993,3.0416091348519045,4.038551853214285
11.87760467,-0.5977077300238094,0.391211276595238,2.8150261313471425,3.975225170261905
11.88755067,-0.5719297507857141,0.4333802821190475,2.5754727227471426,3.8736113910238097
11.89749667,-0.5235232418809522,0.49843105745238087,2.301155281643333,3.732630326404762
11.90744267,-0.48782108983333317,0.6148797354238094,1.9992257237766669,3.5757560149761907
11.91738867,-0.4870522366904761,0.7723891627619046,1.6898999131909525,3.4174241039761903
11.92733467,-0.5203389040238094,0.9540699633142855,1.3660089390242858,3.242590355214286
11.93728067,-0.5967167941238094,1.135482139995238,1.0138682874861904,3.0353657241190475
11.94722667,-0.7135897989952379,1.2788210351,0.6518027078671429,2.812033100357143
11.95717267,-0.8580445934238095,1.3735182518714284,0.3235629644957143,2.6157823159761904
11.96711867,-1.0159377094714284,1.4359770400095238,0.07218355875761905,2.489163958642857
11.97706467,-1.1715615211380952,1.4848725710619046,-0.0815583439090476,2.4388460513095236
11.98701067,-1.3093817305666664,1.5328514675285714,-0.15052578267095237,2.447574496690476
11.99695767,-1.4110928217238095,1.5968521525476191,-0.17240901158999997,2.4837654710238097
12.00690367,-1.4823826596809522,1.6877476349666667,-0.20524014597571427,2.5510556482666664
12.01684967,-1.534219646480952,1.8057961390142856,-0.2549961644185714,2.6383173032619047
12.02679567,-1.5522177939142854,1.9430668772380955,-0.3224454397752381,2.7230295876190476
12.03674167,-1.5487905459095235,2.0709242804285717,-0.4000180535038095,2.79887078447619
12.04668767,-1.5261480942999999,2.1642515084666667,-0.4696930279990476,2.8583624875238094
12.05663367,-1.4795875792,2.2087543326666665,-0.5222624203228572,2.8808918779523807
12.06657967,-1.4071480115714285,2.1911615782761906,-0.5727599770609524,2.8623304321904763
12.07652567,-1.282418409338095,2.098815540866666,-0.6480512039085714,2.8444501062380954
12.08647167,-1.0693271598619045,1.9550645423619049,-0.7557860130704761,2.866996536238095
12.09641767,-0.7813742868142856,1.7932276046761904,-0.8843899525657142,2.9238020466666663
12.10636367,-0.4472791695285712,1.6487490733333334,-0.9913055146047618,2.983074089095238
12.11630967,-0.08433976524285695,1.548155733190476,-1.0690336921190475,3.0531250389047617
12.12625567,0.29656412318571446,1.5007149337142855,-1.1217950680238096,3.1342159252380952
12.13620267,0.6757059392809526,1.5025830634285715,-1.1470209587285713,3.239425668761905
12.14614867,1.0396956983761907,1.541726274047619,-1.1667488830952382,3.375897709809524
12.15609467,1.361846290614286,1.5974264187619045,-1.2285677352857143,3.5286421098571426
12.16604067,1.6390095193285714,1.6467382993809525,-1.3260264249142857,3.6935306451904757
12.17598667,1.8920642324238097,1.6843031098571428,-1.376924094795238,3.836123865857143
12.18593267,2.1157553701380953,1.704219144,-1.3326364446619048,3.93311403747619
12.19587879,2.332545790947619,1.6929289780476189,-1.2301922205666667,4.0156938545714285
12.20582479,2.560652857295238,1.6553044006619047,-1.1121669522809523,4.104555082428571
12.21577079,2.8069223778238097,1.6019475554619045,-1.000207724709524,4.201607046666667
12.22571679,3.062235369133334,1.5514738052190478,-0.8745376395666666,4.302452703095238
12.23566279,3.2886104623285712,1.5162612878380952,-0.709294127947619,4.392938192
12.24560879,3.4524071222238097,1.4881077101714284,-0.5106137312809524,4.467317918095238
12.25555479,3.5209427545476197,1.4423114122619045,-0.32209457028095234,4.50946680252381
12.26550079,3.474697265161905,1.3715314932819047,-0.16371443684761902,4.549313733285714
12.27544679,3.30247838724762,1.2814276263866664,-0.011347552180952356,4.681699527904762
12.28539379,3.0439781900619045,1.1928732716533332,0.19923304210476195,4.8498376398095235
12.29533979,2.7368898304904765,1.1011399806819047,0.5015055792,4.966746025761905
12.30528579,2.405793945014286,0.9748049975104761,0.8384872719142857,5.029350326761905
12.31523179,2.0652118153,0.7658366337104761,1.1066193090095238,5.069681902047619
12.32517779,1.7605640556333337,0.4511361738533332,1.2734187647238095,5.080166750285715
12.33512379,1.529943327004762,0.0652163210914285,1.3753689791666668,5.071039318380953
12.34506979,1.2976657201904762,-0.31289085805142863,1.4879204183238097,5.013604289142857
12.35501579,1.0430660056380954,-0.638598506432381,1.6518680198952382,4.920493860571428
12.36496179,0.8090207576704764,-0.8867453590514287,1.8439398099428574,4.772908874857143
12.37490779,0.5784260073895239,-1.043022081941905,2.0373234923714287,4.56421714152381
12.38485379,0.34766135371333345,-1.1352145603180954,2.162753089861905,4.3674443410476185
12.39479979,0.14219431656095247,-1.1780139513657144,2.1824476503000003,4.229746393190476
12.40474579,-0.051421611710476094,-1.1713345794609524,2.153158750452381,4.117876098999999
12.41469279,-0.2622828166819046,-1.1300257132657143,2.126838066080952,4.010191174333333
12.42463879,-0.5043014392771428,-1.0712336444466668,2.123366518461905,3.9034882905238093
12.43458479,-0.7688623033247618,-1.0206288469657143,2.113784797557143,3.7964957786190476
12.44453079,-1.0141190860866667,-0.9893015259657144,2.070266588795238,3.7007250010000003
12.45447679,-1.2073184698961905,-0.9684778090133335,1.9788099546380955,3.6212529756666667
12.46442279,-1.3251821044819048,-0.9329194705800001,1.8670858686857141,3.5821841605714284
12.47436879,-1.3478311272438095,-0.8696369907428573,1.7641779360190475,3.5589057294761908
12.48431479,-1.263231884862857,-0.7631675329333335,1.6612001987523812,3.456838902666667
12.49426079,-1.1287226473866665,-0.619400273604762,1.522076394352381,3.2859570803333336
12.50420679,-1.0143748043866665,-0.4461173834238096,1.3285874898428571,3.0941775186190474
12.51415279,-0.951485744672381,-0.23745590099523822,1.120447050047619,2.9097006152380955
12.52409879,-0.9427796303866665,0.020717492528571305,0.9506378375142857,2.7471331723809524
12.53404479,-1.0138954997199998,0.3261101317190475,0.8347961405142857,2.602777662904762
12.54399079,-1.1791547709961903,0.6410902555285712,0.7340951958761904,2.464275747857143
12.55393779,-1.349207060610476,0.8976593123142855,0.5784029735285715,2.358160869142857
12.56388379,-1.4976418041533333,1.0763860577238096,0.37087019690000006,2.280178561333333
12.57382979,-1.6394802758523808,1.1921417988666665,0.20059156433333336,2.273211966095238
12.58377579,-1.7451526328571425,1.2621137858047617,0.09239123327619048,2.3391115071904762
12.59372179,-1.8120786659428572,1.3119532801809524,0.02901938847142857,2.415547455
12.60366779,-1.8508093694571426,1.353602329038095,-0.01641531136666666,2.4744399343809524
12.61361379,-1.8684408686285712,1.3924549887523807,-0.07311782025714285,2.5211160556666665
12.62355979,-1.8649480482761907,1.4281604542285713,-0.1541987373142857,2.5595091314761906
12.63350579,-1.8398870490523809,1.4581788342761903,-0.2616566112190476,2.5897073209047616
12.64345179,-1.7897106993499998,1.480682651180952,-0.3895113832190476,2.612789908142857
12.65339779,-1.7208257098166666,1.4912037690857143,-0.5262594082190476,2.6265660234761903
12.66334379,-1.6430278929928568,1.4903581781809523,-0.6519525480619047,2.6327436194761904
12.67328979,-1.5510949335071427,1.455593835942857,-0.7654963989190475,2.624619142238095
12.68323579,-1.4352113610595238,1.367051008595238,-0.8735090065380953,2.6296969089047617
12.69318279,-1.288778453583333,1.2034853694047618,-0.9747814729857142,2.700435118761905
12.70312879,-1.0955753665357142,0.9659175638380952,-1.0690556297761904,2.8525199557619048
12.71307479,-0.8610216335833333,0.6835571627523808,-1.1723711412190476,3.061128346809524
12.72302079,-0.6131239419642857,0.404533015895238,-1.319165323090476,3.2744954450476187
12.73296679,-0.3691051261071428,0.18348899627619036,-1.5226561405571428,3.4535698879047616
12.74291279,-0.14452390301190468,0.05752565937142847,-1.7618814351285714,3.5972859887619046
12.75285879,0.06529065036904773,0.029275978528571316,-1.9905917096333334,3.7098799530476194
12.76280479,0.28778107622619065,0.08114440107619038,-2.1680330995714288,3.7975876802857136
12.77275079,0.5548973127500001,0.18933604485714275,-2.286902676228572,3.8890061519047623
12.78269679,0.8605324443214286,0.31418334323809516,-2.3610325625190476,4.002848685857143
12.79264279,1.167514412464286,0.3927380403333333,-2.399494906652381,4.102476529047619
12.80258879,1.4507537892738096,0.34453774325238085,-2.3968421919714284,4.161466883285714
12.81253479,1.7164460060357145,0.16213192972857132,-2.3509622927904763,4.260126705095238
12.82248179,1.9634737990500004,-0.10519444460476202,-2.242278396957143,4.413079436142857
12.83242779,2.1692712873833337,-0.4118833279857143,-2.061022368766667,4.585682334428571
12.84237379,2.294756739707143,-0.7213988111285715,-1.8267709925285716,4.733819221047619
12.85231979,2.3457876460523814,-0.9801772522714287,-1.5310461396714286,4.860057265761905
12.86226579,2.320669371957143,-1.151320632366667,-1.177579336147619,4.998970308666666
12.87221179,2.238142605561905,-1.2242093496761908,-0.7893452668142857,5.185293771285714
12.88215779,2.135957945647619,-1.1687479802,-0.37114686243333334,5.4359653888095245
12.89210379,2.0328012835809526,-1.0003759854714285,0.05127005747142855,5.689160166190477
12.90204979,1.9352898854761906,-0.7312559916619049,0.4844098241857143,5.882456140571428
12.91199579,1.8334639939904762,-0.3788145948523811,0.9287145707571428,5.995111858428571
12.92194179,1.7405308822285717,0.006757237242857007,1.3949946573285712,6.057351087761905
12.93188779,1.687244565609524,0.36414841343333326,1.8981525204238094,6.10990608
12.94183379,1.6796573020857142,0.6336685516714284,2.407058614185714,6.143132539190477
12.95177979,1.707590620704762,0.7711513489571428,2.8571591209,6.114652443904762
12.96172679,1.7665722088952382,0.7761965493714285,3.1929626553761907,6.027088539476191
12.97167279,1.8065958153238095,0.667335622142857,3.3795077476476187,5.916028646333333
12.98161879,1.7651721070380955,0.46981890490476175,3.450011524885715,5.795308241333333
12.99156479,1.6376645204809523,0.22687010166666652,3.4792160281714284,5.643037560904761
13.00151079,1.466419148252381,0.004230042761904619,3.4925825403619046,5.502079605904762
13.01145679,1.2532624378190478,-0.10610056820476206,3.491197000847619,5.404825874571428
13.02140279,0.988194620152381,-0.07932755991904776,3.471640323323809,5.282913772523809
13.03134879,0.6899718089142859,0.0468304057476189,3.4073051079523813,5.114799670809524
13.04129479,0.39322773072380973,0.24236536238095224,3.280746917771429,4.934517455666667
13.05124079,0.15184890491428588,0.47238087637619025,3.097786481919047,4.7893975532380955
13.06118679,-0.03593398027619033,0.6814135734714284,2.8509316899333332,4.681437319333334
13.07113279,-0.16126189190476176,0.8366169703285713,2.5471568117190477,4.576127825428571
13.08107879,-0.217379653142857,0.9358558030190475,2.216747135295238,4.437724843428572
13.09102579,-0.24352539442857132,0.9738226374476188,1.8795654120999998,4.261226119
13.10097179,-0.27093268638095225,0.9812733963047618,1.5608459103523808,4.078937347857142
13.11091779,-0.313141814942857,0.9832037849238093,1.2559055115095237,3.8946462280000005
13.12086379,-0.3825413315999998,0.9859056718761904,0.9483718725238094,3.7047481339523807
13.13080979,-0.4938654958857141,0.988261612495238,0.6135607010323809,3.4926049935714283
13.14075579,-0.6462619229333332,0.9903674733047618,0.24911797762761903,3.2610493962857143
13.15070179,-0.810822312695238,1.0037247135428569,-0.09385432675333333,3.0555104399047623
13.16064779,-0.9636890507809522,1.0505587808285712,-0.34651505237238095,2.9313260741904763
13.17059379,-1.1189301760761903,1.1250508743047618,-0.4931516378485714,2.879747207142857
13.18053979,-1.2639529022142857,1.2267404421047619,-0.5551128627390477,2.872681222666667
13.19048575,-1.3623487056190473,1.3688699381047615,-0.6003820619771428,2.903713263952381
13.20043175,-1.4064881671376188,1.5430322356285715,-0.681930617024762,2.981368971428571
13.21037775,-1.4099220141423807,1.7370882922,-0.8019063215485713,3.091565714952381
13.22032475,-1.3656890250185714,1.9401452601999998,-0.9380774491152382,3.2068897314285714
13.23027075,-1.2665454184138094,2.131710110533333,-1.04137812322,3.2808709872857142
13.24021675,-1.1169884549376188,2.2931361838666664,-1.0796048802676192,3.316259866666667
13.25016275,-0.933450871080476,2.398954220042857,-1.0595348172104762,3.3268228165238094
13.26010875,-0.7217731164138094,2.4390222792380953,-1.0119892133580952,3.306876773571428
13.27005475,-0.4811414255090474,2.4184365996619044,-0.9791741744714286,3.259409064190476
13.28000075,-0.22747233712809511,2.338559401590476,-0.9581351738333334,3.2039518146666666
13.28994675,0.017056244538571564,2.202334006290476,-0.9381181203142857,3.1525146122857146
13.29989275,0.2512150677290478,2.030988117642857,-0.9310210240319047,3.105073703
13.30983875,0.47331977225285726,1.8501304380333334,-0.9660364902461905,3.0612416707142853
13.31978475,0.6775416030623811,1.6744993478095238,-1.0685576992128571,3.0375613355238094
13.32973075,0.877088417871905,1.5161378419619045,-1.218396359227143,3.0508882053809523
13.33967675,1.0903685323957144,1.3991679125428569,-1.3511827912119048,3.097917266761905
13.34962375,1.3180126105861905,1.3374075743047615,-1.40754730495,3.160868817047619
13.35956975,1.5322721615861905,1.3319702066857142,-1.3911500694928574,3.238940961
13.36951575,1.729516593481429,1.3829264079238095,-1.321611552654762,3.3535303804285714
13.37946175,1.9239676155385717,1.4906432299238093,-1.2086993681785714,3.5170044091428574
13.38940775,2.131635126962381,1.6288416010666666,-1.0554380822738096,3.703220501619048
13.39935375,2.368292298319524,1.7359165102095238,-0.8745037623690476,3.8561256805714286
13.40929975,2.6247904645380955,1.7827836838761904,-0.6747860139547619,3.965763273952381
13.41924575,2.879042938009524,1.787105110352381,-0.4189376404309525,4.051907945523809
13.42919175,3.0953896387,1.7541940709714285,-0.11825200981190477,4.127404709952381
13.43913775,3.216325650952381,1.670319159385714,0.1474431305214286,4.1805759319047615
13.44908375,3.205670047100001,1.5260366768428573,0.3186984708452381,4.189736947142857
13.45902975,3.0624416643380954,1.3461771586999998,0.43263383454047616,4.237148391666667
13.46897675,2.826865559671429,1.1682757895095237,0.5653839789690476,4.370390246285714
13.47892275,2.572535541004762,1.0220359515142856,0.7579120763061905,4.529564949380952
13.48886875,2.3354000117666667,0.9159370122999998,0.9689536835014285,4.665193651428571
13.49881475,2.1126667872428575,0.8264669000761904,1.1328781485490478,4.759864101857143
13.50876075,1.921874423671429,0.7015404554857141,1.2241992143190477,4.822146111714286
13.51870675,1.7911990384319048,0.534544561190476,1.319803222852381,4.894104785571429
13.52865275,1.69913253967,0.35428410503333313,1.4949552799476191,4.960009042809523
13.53859875,1.593411678622381,0.17498239730952367,1.7492696225190476,4.991939988285714
13.54854475,1.4486584812842858,-0.0016628507000001466,2.017087107280952,4.9853504807619045
13.55849075,1.2521591239033336,-0.16682774512857157,2.2265511896619046,4.939813162809524
13.56843675,1.0257535416652384,-0.33254386493809535,2.3559255067761904,4.855387438714286
13.57838275,0.7961541266652383,-0.5241771277142858,2.4099873591285714,4.711756814666667
13.58832975,0.5634752616652382,-0.7431811651761906,2.400531798890476,4.509521907619048
13.59827575,0.32195482185571445,-0.9635900518666667,2.360844546604762,4.274850064
13.60822175,0.04895817976047635,-1.1299360142476191,2.339996967442857,4.044106742142857
13.61816775,-0.2536047133347617,-1.2196652416761906,2.339553668447619,3.8361020032857143
13.62811375,-0.5652284796680951,-1.256135341961905,2.302195866795238,3.6403471875714293
13.63805975,-0.8429106905442856,-1.2519971142952382,2.198019979347619,3.4664562946666666
13.64800575,-1.0371986309633332,-1.191515450757143,2.062515128104762,3.3580060102380958
13.65795175,-1.1147533149871427,-1.0617815368333334,1.9305239279000002,3.3242622226666674
13.66789775,-1.0615667072680952,-0.8802660872142858,1.7754863727285712,3.2603400041428574
13.67784375,-0.9339779836299997,-0.6778300378333334,1.5751098971857143,3.1200418063809523
13.68778975,-0.8166456660680952,-0.47647014069047633,1.3479040503666666,2.9609673455714285
13.69773575,-0.7446809202109522,-0.289207894404762,1.1207457122047617,2.819867812380952
13.70768275,-0.7140944414014283,-0.1040299159761906,0.9372375871714286,2.712108283333333
13.71762875,-0.7475746793538094,0.11602061992857131,0.8264533506047618,2.639345433047619
13.72757475,-0.8734035581619046,0.3603233598333332,0.7465255880142856,2.570373288857143
13.73752075,-1.0653416975428571,0.5909217715999999,0.650019242755238,2.5099465047619045
13.74746675,-1.2696827558285713,0.7900875011190475,0.5227865553704761,2.4673390545238094
13.75741275,-1.4670760411095236,0.948643231990476,0.37941346797047615,2.4537867025238094
13.76735875,-1.6321941717285715,1.0596917418142855,0.24147197058952377,2.480761808380952
13.77730475,-1.7631198735380949,1.1414355660619047,0.11791850793238093,2.542742028809524
