Time (s),Linear Acceleration x (m/s^2),Linear Acceleration y (m/s^2),Linear Acceleration z (m/s^2),Absolute acceleration (m/s^2)
0.2043048334,0.6873781111566666,-0.4366917692019048,0.7934321920809524,2.143483010209524
0.2142508334,0.8205228382280952,-0.4715376383161905,0.7964427563666666,2.2062616590666666
0.2241968334,0.9544155355328572,-0.5048585257495238,0.7973314496047619,2.261852916638095
0.2341438333,1.0403368333709524,-0.49305008765904756,0.8312485024333334,2.266736648209524
0.2440898333,1.137589100637619,-0.5085267625642856,0.8712519777285714,2.3129211837857144
0.2540358333,1.2445512211280951,-0.5635812215528572,0.8539961204,2.3926973435809527
0.2639818334,1.3170718283480953,-0.5841415632004763,0.8435213904380952,2.448317643838095
0.2739288334,1.3350915930814284,-0.5841594111290476,0.8263511252095238,2.4648846749
0.2838748334,1.3167006032528572,-0.5554015237338095,0.7737866612523809,2.4324827084238096
0.2938208334,1.3429103367242856,-0.5236158088528572,0.6982431688142857,2.438683215376191
0.3037668334,1.3570490190290474,-0.4630027360814286,0.5711704201952381,2.402935193947619
0.3137138333,1.3286004528190476,-0.3653808534147619,0.42298855480952385,2.3337266534714285
0.3236598333,1.349855683842857,-0.3074251452671429,0.15949586566666665,2.271853452280953
0.3336058334,1.3417794886999999,-0.22926001194333331,-0.1831188675714286,2.230576948995238
0.3435518334,1.2922595028714285,-0.10197633199095238,-0.49705356490476194,2.1730764450428572
0.3534978334,1.272775630142857,0.008117271837619063,-0.7895842787142858,2.118561474852381
0.3634448334,1.2420485049190477,0.1424180560757143,-0.9974488135238095,2.102230203995238
0.3733908334,1.1861411529571428,0.27666281843285717,-1.071538938747619,2.0979669384714286
0.3833368333,1.1236966939380952,0.38634923327571424,-1.0615400607631904,2.0863074315666665
0.3932828333,1.0404096781047618,0.47699342467095235,-1.0180868117674762,2.0537041465190478
0.4032298333,0.9626853273857143,0.5791182202566667,-0.9768647767317619,2.0203303689952383
0.4131758334,0.8998786090380951,0.7002768722423809,-0.910696403587,1.981823136138095
0.423120875,0.8270577681571428,0.8022090856090477,-0.8394025282584285,1.9414544341380953
0.433066875,0.7608134856476191,0.9011774427995239,-0.7512337834774764,1.9039994312333333
0.443013875,0.7409918631285715,0.9534830699947618,-0.6964288335441429,1.9348156507095235
0.4529598751,0.6884616575904762,1.0177702825,-0.6497412111584285,1.943115342614286
0.462905875,0.6203347595857143,1.1219763109761904,-0.5482651502346191,1.9303414197095234
0.472851875,0.5664621377714286,1.1975707716285715,-0.43217260946319047,1.9409273177095236
0.482798875,0.5370107810380953,1.245069263652381,-0.35447881740128573,1.9860900286190477
0.492744875,0.49025795869,1.2933901108285715,-0.2923923576489048,2.013795574761905
0.502690875,0.42860840429,1.3316091412095237,-0.2377125381346191,2.016664673047619
0.512636875,0.38672437047095237,1.3611773273761905,-0.19196208517271432,2.027707329809524
0.522583875,0.3814016535423809,1.3798328689,-0.17874676522985716,2.043093389952381
0.532529875,0.31435677929,1.4532329391333332,-0.10229862498223811,2.0221114641428573
0.542475875,0.2688808565852381,1.5161202029047618,0.020800912765380934,1.962121496047619
0.552421875,0.25317082209,1.5335155441904762,0.11028285866538094,1.9215896774285717
0.562368875,0.20101701366142857,1.548306507761905,0.1840325923844286,1.8936594816666665
0.572314875,0.12057292107571428,1.5488425025238095,0.2434128215177619,1.8728902755714287
0.582260875,0.030858687561428573,1.540613757714286,0.27526962183776194,1.871334925952381
0.592206875,-0.05376550989571428,1.535860222,0.29926935142,1.8768152045714288
0.602152875,-0.12101090535761903,1.5341729939999997,0.33404123933380947,1.8870328576666666
0.612099875,-0.18645769728619047,1.5369618652380954,0.3744691946361905,1.8964569645238096
0.622045875,-0.2639678450195238,1.5418407819523812,0.39840017766761904,1.9017357935238097
0.631991875,-0.3529582454242857,1.5515372614285714,0.39006719926619043,1.913456494
0.641937875,-0.43499323314333327,1.5696090977142858,0.35839881851380956,1.927300921
0.651884875,-0.49158693683857146,1.591986336333333,0.3113138917204762,1.9321327107142856
0.661830875,-0.5207631716352381,1.6158205618571428,0.2829347368585714,1.932875977428571
0.671776875,-0.5384681891,1.6252938726190476,0.30480449281095234,1.9544405159523808
0.681722875,-0.5654277235571429,1.5975469966666664,0.3727210442395238,2.006555036095238
0.691669875,-0.6027970386380952,1.5265394678285715,0.4782794083823809,2.095725609857143
0.701615875,-0.6390804422423809,1.4262097953285715,0.6189564560014285,2.222025543047619
0.711561875,-0.6633019657614285,1.3132268595190477,0.7709058494871428,2.3501092309047618
0.721507875,-0.6705089096471428,1.1893363884238095,0.9083186750490475,2.44158204352381
0.731454875,-0.6619658665423809,1.0552916426142858,1.0267965456823809,2.489394548095238
0.741400875,-0.6535039465947619,0.9126065219,1.138101859625238,2.509724607571429
0.751346875,-0.6486793706757142,0.7553724566619048,1.2406447032585715,2.5140745024761904
0.761292875,-0.6371871764614285,0.5936100709476191,1.3303495951204762,2.500564896
0.771239875,-0.6158901552519047,0.4378785869952381,1.403083305525238,2.4695942821428574
0.781185875,-0.5882146710185714,0.2875035006142857,1.4389359259585714,2.4330174758095238
0.791131875,-0.5630188447280953,0.14142199685238094,1.4174366885385714,2.406956111190476
0.801077875,-0.5483792857614285,-0.0006464514333333589,1.3644185363338093,2.3900449923333333
0.811023875,-0.5382065366423809,-0.14873814443333333,1.3148782244719048,2.368039643142857
0.820970875,-0.5214096996614286,-0.29867759929047616,1.275936464324762,2.3384148173333332
0.830916875,-0.501025602837619,-0.42498803805238095,1.2628556303438094,2.284614362666667
0.840862875,-0.48156943128999996,-0.5342668323761904,1.3214293613690475,2.253816106809524
0.8508088751,-0.38128002449,-0.7467488716142857,1.2849302059499998,2.2929502398571433
0.860755875,-0.33828007392333326,-0.9095514491380952,1.201067684905238,2.311855099952381
0.870701875,-0.34239403215523806,-1.0159831784666666,1.1100005310052379,2.2865550634285716
0.880647875,-0.31386857506190474,-1.1275956244190477,0.9060746528623809,2.297208619761905
0.890593875,-0.2768127647142857,-1.183570797109524,0.6544491663385714,2.264534237857143
0.900540875,-0.22291065968571427,-1.2019782914095238,0.39370297010047617,2.183233275857143
0.910486875,-0.1682701766142857,-1.2017463797,0.12542093800523807,2.0732687695238097
0.920432875,-0.12063981945714283,-1.197491903842857,-0.12505907894714288,1.9753538225238094
0.930378875,-0.08999257138571426,-1.1969107880809522,-0.33960564470904764,1.9102763286190476
0.940325875,-0.06737528716476188,-1.1941946172238094,-0.5198389948519048,1.8772461057619048
0.950271875,-0.03630806978857141,-1.1842763890333334,-0.6828771594709524,1.8628449184761902
0.960217875,-0.005145107736190452,-1.169412599795238,-0.830404053137619,1.854596173142857
0.970163875,0.018137805411428596,-1.1545637348428572,-0.94697509109,1.8431667586190474
0.980110875,0.018440555440000023,-1.1576531530333334,-1.0337812954042858,1.8520792399047619
0.990056875,0.016521941282857163,-1.1434951227,-1.0602908170090477,1.8426074211428571
1.000002875,0.07833625489714288,-1.1850284523666665,-1.0941053486661905,1.8909114603809525
1.009948875,0.13727241931142858,-1.1894976741761905,-1.1430284451566668,1.9190954756666667
1.019895875,0.1743613081971429,-1.1593794181190475,-1.1773485660519047,1.9041288729047616
1.029841875,0.20798641442571433,-1.1494672599285716,-1.2460803863619045,1.9289495913333334
1.039787875,0.23118500933047623,-1.1566703195952381,-1.3101308144619048,1.9589932998095239
1.049733875,0.28397379057809524,-1.1751312045428572,-1.4097192549619049,1.9474959249523809
1.059679875,0.25947327828761907,-1.0733471345571428,-1.3909730537380953,1.8516885808
1.069626875,0.256744480192381,-1.0026549238033335,-1.2904402600857143,1.761310864338095
1.079572875,0.3185271248542857,-1.0155420339604764,-1.2497751584190477,1.7654930751476192
1.089518875,0.33238753886380956,-1.0357040270557143,-1.219505598704762,1.7555010878619048
1.099464875,0.33184553329714284,-1.0327092224176189,-1.2036850936095238,1.739875536242857
1.109411875,0.31670057650666666,-0.9868362145985714,-1.1679171464666667,1.695029017147619
1.119357875,0.3607502902161905,-0.9437924377638096,-1.1304422299857142,1.6764913164809523
1.129303875,0.4241535951209524,-0.8797213355828571,-1.0703855894142857,1.659581368766667
1.139249875,0.49742409734000004,-0.8048291394161905,-0.9926712206999999,1.6431501864809523
1.149196875,0.5577429612095238,-0.731916880087619,-0.9133452758142856,1.6141581904809525
1.159142875,0.5871194631428571,-0.6674986760400001,-0.8299476919333332,1.5634901862428572
1.169088875,0.5886430230523809,-0.5837741492638095,-0.7282894763428571,1.5123465299809524
1.179034875,0.5975596910571429,-0.4976275665685715,-0.6031693357714286,1.5088799512666666
1.188981875,0.674346016152381,-0.44186524643047626,-0.5337273850285714,1.4874756663619049
1.198927875,0.721714569447619,-0.37562459055428576,-0.5140694915080952,1.4549936561285715
1.208873875,0.7620691143523809,-0.2648879600733333,-0.4693686137461905,1.4034829125571429
1.218819875,0.8708890310190476,-0.2055784405161905,-0.41638097843666666,1.4322730430333332
1.228766875,1.0198801719285715,-0.1753960878542857,-0.3792134584271428,1.5306357160333333
1.238712875,1.1266017387,-0.09149700776380952,-0.21357500918904768,1.5965833639380953
1.248658875,1.272937913052381,-0.051239122901904764,0.0026532436204761687,1.744486705985714
1.258604875,1.3802546776380953,-0.021689188378095237,0.24526268559666664,1.9280892960333333
1.268550875,1.4767475534523808,-0.06691483979238096,0.47632613200142854,2.137056392804762
1.278497875,1.5375048575285715,-0.11696628183190476,0.6537103010157143,2.3262352611714285
1.288443875,1.5198220943,-0.13320487677476192,0.8256907517776191,2.42360700507619
1.298389875,1.4757441033761904,-0.09895624507,1.025670956634762,2.4351697281238094
1.308335875,1.4051277254428574,-0.053422027712857145,1.2473104455871429,2.475004345457143
1.318282875,1.4034905381238094,-0.08153748709380952,1.3839763589680953,2.513266135552381
1.328228875,1.4278901894095237,-0.1660498287095238,1.4606057350395236,2.5685711546
1.338174875,1.4365198374571428,-0.22515814836666667,1.4919292414442855,2.590347344838095
1.348120875,1.3917549605285713,-0.20741176533333333,1.5528318070633333,2.5942328362666665
1.358067875,1.4246229393380954,-0.20442105374761907,1.6257288775585714,2.655552900885714
1.368013875,1.4975852828190477,-0.19814192376666664,1.7210897254395237,2.766355313314286
1.377959875,1.5885073822523812,-0.20878538766666668,1.8276206764680953,2.894002266338095
1.387905875,1.6737523782714285,-0.22270219249999998,1.891026769277619,2.982892432195238
1.397852875,1.698110430795238,-0.19287525309523815,1.9585681243442858,3.042161534957143
1.407798875,1.7266385730904763,-0.1892428652761905,1.9900153132857143,3.0778403696666667
1.417745958,1.673773687547619,-0.1768998663809524,1.973159906695238,3.0447794322714286
1.427691958,1.5358621814952382,-0.1541674094190476,1.9204402130999998,2.9886747392714286
1.437638958,1.3610666636047621,-0.13305699791904763,1.8175531633619046,2.9435078889380955
1.447584958,1.220770341047619,-0.14605718209047622,1.587341266504762,2.923016362985714
1.457530958,1.0491366771857142,-0.1092676984904762,1.2942849715047617,2.8398806013190474
1.467476958,0.9019754119619049,-0.061846654252380964,0.987777574552381,2.7073497852238098
1.477423958,0.7977822317,0.010651928457142862,0.6579292621714286,2.578444137795238
1.487369958,0.7531841187761905,0.02924294179047619,0.302181515504762,2.5371959047476187
1.497315958,0.7006513916285714,0.1303528416952381,-0.010661256066666644,2.5394704292238095
1.507261958,0.6998599796914287,0.22290642741904762,-0.2917773139238095,2.5850885549380953
1.517207958,0.7506068592866667,0.2572284695428571,-0.5910304324,2.623165717414286
1.527154958,0.7282552161628572,0.33733298510000004,-0.8225690346857142,2.689535956128571
1.537100958,0.6317120647676191,0.4783944036238095,-0.9762691123809524,2.6904769594142857
1.547046958,0.5320721757295239,0.5858180295285714,-1.0773350328809523,2.6972708508904764
1.556992958,0.4886637118819048,0.6158537423761905,-1.2099364909761905,2.707699748890476
1.566939958,0.3914574792414286,0.6756268069380953,-1.3502808320714286,2.67946648117619
1.576885958,0.285762897622381,0.7479128155285715,-1.501951118452381,2.6285022567
1.586831958,0.20476378940809528,0.8199819620333332,-1.6542216633285716,2.5551970422238095
1.596777958,0.14827422530333337,0.889467488457143,-1.7666412060095236,2.4911576422238095
1.606724958,0.12533941987476196,0.9560508607714285,-1.7955802735809523,2.4890035510809523
1.616670958,0.14701669106523813,1.0194951971238095,-1.7457028558142855,2.5638702575095236
1.626616958,0.20018584760809527,1.0847043623666668,-1.6204460017952382,2.671118409904762
1.636562958,0.2668863417557143,1.1455674036095238,-1.4478097440333333,2.7269041978095236
1.646509958,0.3276528813128572,1.1944105185333334,-1.2656938132238096,2.7180051045714286
1.656455958,0.36149722854142863,1.2366777851380952,-1.0837217796047618,2.6556128083333332
1.666401958,0.3724830382176191,1.2599236554857143,-0.9316197459285714,2.575301839047619
1.676347958,0.35982338475095244,1.2711037545666666,-0.8406167443523808,2.5233819446190475
1.686294958,0.30521385886047625,1.3166201240000002,-0.7468157108714285,2.466005797428571
1.696240958,0.258223646522381,1.4028187051428571,-0.6096995061904762,2.357450834904762
1.706186958,0.2821725140319048,1.4044683717619049,-0.46929811303809515,2.2447610673333336
1.716132958,0.304230418102381,1.3952041546666667,-0.3057548882019047,2.1263869837142857
1.726078958,0.33118569070714293,1.3866905808333332,-0.1079142630685714,2.012389210190476
1.736025958,0.392961550202381,1.370730257657143,0.09507294207428574,1.946922525952381
1.745971958,0.47719045150238104,1.3659507018000001,0.2971293818361905,1.9411563265238094
1.755917958,0.5837093252071429,1.352300418642857,0.4772262690742857,1.976071007809524
1.765863958,0.6780220614119048,1.3363200200333334,0.6294067668361905,2.012717406238095
1.775810958,0.7310473138142858,1.3002830870047621,0.7434160839314286,1.999856754809524
1.785756958,0.7270773241247619,1.2436345935190476,0.8029097490123809,1.9317536461857143
1.795702958,0.6677631302580953,1.1827233545142857,0.7862678214790476,1.895242188185714
1.805648958,0.5620101269342858,1.1184580133952382,0.7211654793028572,1.877707718757143
1.815595958,0.4496064135057143,1.0498779979190478,0.6440406213361904,1.8153018348523806
1.825541958,0.3716314260676191,0.9802838246571428,0.6050541995980951,1.7241858985809524
1.835487958,0.3416523616057144,0.9074568233333332,0.6236347575980952,1.7008476957714282
1.845433958,0.3620503455580953,0.8256666111952381,0.7081995570742857,1.7627492263428575
1.855380958,0.4317218029866667,0.7371415482333332,0.8536188358361905,1.9046614775809523
1.865326958,0.5439922033628571,0.6569766392904762,1.0021261405504762,2.064095929295238
1.875272958,0.6836345896438096,0.5951005957761906,1.1079195905885715,2.1879295828666665
1.885218958,0.8295022280009525,0.537577470195238,1.1756283430599999,2.259725546485714
1.895164958,0.9563336606295239,0.4666262973952381,1.2212587888838096,2.293116154961905
1.905111958,1.053605535224762,0.37861940912380954,1.2510674766233332,2.322016356533333
1.915057958,1.1259368771390477,0.28177075113333333,1.2747508996828572,2.3601097163904763
1.925003958,1.1847924578676192,0.1682309654666667,1.312811456589524,2.417543711485714
1.934949958,1.214446055186667,0.029940472823809527,1.3878273631228573,2.5090364263904763
1.944896958,1.2190184037580953,-0.12712160076190476,1.4573231361228571,2.597129148247619
1.954842958,1.1949318291390476,-0.2952627000952381,1.482103441170476,2.6441414298666666
1.964788958,1.134105439167619,-0.4594836450809523,1.4540722791704763,2.6460615629619046
1.974734958,1.0693769898771428,-0.6182347147095237,1.3709849596814287,2.6318456677714286
1.984681958,1.0378292166390477,-0.7607646335857142,1.261367653348095,2.665284362914286
1.994627958,1.0573739839380953,-0.8860646874333333,1.1463976108861904,2.7719339149190474
2.004573958,1.121244415252381,-1.0043115095238095,1.04121642001,2.8805368864904763
2.014519958,1.2173258210857145,-1.114467163452381,0.9355793412004763,2.9763128458714285
2.024466958,1.3048149071000001,-1.2112447638333332,0.8117332254052382,3.085259108061905
2.034412958,1.3544343269190477,-1.300237631904762,0.642317307762381,3.191766664047619
2.044358958,1.3578305777190476,-1.3847446135809522,0.42213700538142856,3.205434021952381
2.054304958,1.321288605352381,-1.4489968680619048,0.14230789181000003,3.1399571772380948
2.064251958,1.2482173887999999,-1.4829130159571429,-0.1936766836185714,3.033693272238095
2.074197958,1.1467643025761904,-1.5092057729190476,-0.5240404419995238,2.9461954265238095
2.084143958,1.032440997,-1.543618586104762,-0.7893498888566667,2.9125481558095236
2.094089958,0.9134096900038096,-1.5756729944666665,-0.9782009767614286,2.920568540761905
2.104036958,0.7957595971561905,-1.5909396011904762,-1.1218676222090476,2.9516798412857144
2.113982958,0.6803889299228572,-1.5802389598714282,-1.2464411038199998,2.987793447857143
2.123928958,0.5732201225228573,-1.541779274809524,-1.36126649727,3.0082423310952384
2.133874958,0.47420868214666667,-1.4720114949285714,-1.4919909155842856,2.9906070174761905
2.143820958,0.3876462666800001,-1.3659242501333333,-1.660677267822381,2.90569781647619
2.153767958,0.3018414433085715,-1.2382787945571427,-1.820381099512857,2.7714512487333334
2.163713958,0.21364414808000007,-1.0977947328857145,-1.9403861236890474,2.6475147318380956
2.173659958,0.13259512448000005,-0.9525663796571429,-2.0130067879295237,2.5665699209333335
2.183605958,0.05444761805619053,-0.8066761494809523,-2.0191773267638093,2.5231310993619047
2.193552958,-0.03513765475333328,-0.6628166572952381,-1.976190880487619,2.4877806024571427
2.203498958,-0.1305213450771428,-0.5172043229619048,-1.8964476393161906,2.438809065504762
2.213444958,-0.21145515940571422,-0.367602642247619,-1.7818413493733334,2.3565921197904762
2.223390958,-0.2600510658914285,-0.21157939615238097,-1.6521862475685711,2.254212213028571
2.233337958,-0.26491433088666666,-0.04398190686666668,-1.5308458585876192,2.183029178314286
2.243283958,-0.24694213045809518,0.1260782904190476,-1.4317746739447619,2.1465589692666667
2.253229958,-0.22006911389142852,0.2891133783238095,-1.354317248592381,2.1277940169809524
2.263175958,-0.19605726523904754,0.4441353861809524,-1.2736339143780953,2.1065984470285715
2.273122958,-0.16242397292476188,0.584367418942857,-1.156979873804762,2.0756899290285715
2.283068958,-0.11540301398666661,0.703727912847619,-0.992107075657143,2.035484772647619
2.293014958,-0.05977643974380948,0.8094056158809524,-0.7937118838952382,2.000221443457143
2.302960958,0.00699416615714291,0.9082143301571429,-0.5856320880857142,1.9777160260761901
2.312906958,0.07352401556190481,0.9991584419190476,-0.3691430494666666,1.9632852967904764
2.322853958,0.1242131695666667,1.0746381579190476,-0.1623561286571428,1.9372674783619046
2.332799958,0.1488418228809524,1.1348259014190476,0.004235388914285749,1.9003106419809523
2.342745958,0.1622243714476191,1.1888476585857144,0.1216617352619048,1.8732815733142858
2.352691958,0.18693831405619052,1.2386929306,0.20711912617142864,1.868924124361905
2.362638958,0.24440486608476195,1.2842903535952381,0.27475470494285714,1.9011037496761904
2.372584958,0.35060169398,1.3286107585904763,0.3416684866904762,1.965128778142857
2.382530958,0.5020936820752381,1.3684047643619048,0.40187612464523814,2.0364192056666663
2.392476958,0.6763055416942857,1.3965755495190477,0.44638446194000003,2.101484370238095
2.402423958,0.856326108884762,1.4035099157142856,0.5027544609066668,2.1467987395238093
2.412369958,1.0362304835514284,1.3770481046047618,0.6011633230685715,2.1877138504761904
2.42231575,1.1990270294085714,1.3215737041666666,0.7461474854114285,2.2626004568571427
2.43226175,1.3164368539180953,1.2337652592571426,0.9319735580828572,2.378419559142857
2.44220875,1.3777995536609524,1.1014200901761906,1.143110278244762,2.498604955857143
2.45215475,1.3985914728990476,0.9367371594619048,1.3681082686495238,2.607358655047619
2.46210075,1.3872019878038095,0.7791469848428572,1.5683926958209522,2.6849844442380952
2.47204675,1.3717699883752381,0.6320221011285715,1.6955947792733335,2.7103835097142857
2.48199375,1.3612603700419048,0.4919686311761905,1.7198304857714288,2.6917006825238095
2.49193975,1.3545765709942859,0.3762653339809524,1.6344825213380954,2.6845975002857143
2.50188575,1.3605070885657145,0.28171698454761906,1.4658540287190476,2.7116253453809525
2.51183175,1.3853999385657143,0.19308850939523814,1.262070572052381,2.755012312333333
2.52177875,1.4317963974847618,0.10163095641428574,1.0596792539095239,2.786782799047619
2.53172475,1.5001109528561904,0.009100634271428588,0.8924310382904763,2.8129804949047617
2.54167075,1.5884737573228571,-0.08983383689047617,0.7957645071428571,2.842727208238095
2.55161675,1.684036991941905,-0.19815095912857142,0.7788641883714286,2.879546951285714
2.56156275,1.7626983468,-0.29945969223333335,0.8042926990190477,2.915629537285714
2.57150975,1.794907843857143,-0.3854355223380952,0.8125227107380952,2.9177461843333337
2.58145575,1.8234040613809523,-0.5020717567190477,0.7860185351761906,2.920277674333333
2.59140175,1.8088639850952382,-0.6029264396190476,0.7441191698380952,2.881340003904762
2.60134775,1.756229117857143,-0.6756520056714286,0.6913107099238095,2.8080228983333333
2.61129475,1.6945729400952383,-0.7194071798380952,0.5987303523,2.7491085883809525
2.62124075,1.6248918243095238,-0.7407542365095238,0.43565203682380954,2.7137661165238094
2.63118675,1.5346745666904762,-0.7368638194190477,0.18855989663333336,2.6832363326666666
2.64113275,1.4263437861428572,-0.6942717678380953,-0.13165192589047617,2.6515499613333335
2.65107975,1.3373075655780955,-0.6246347567619047,-0.49393193127142854,2.609749030095238
2.66102575,1.2600059967980952,-0.5228434473761905,-0.8520025539857142,2.5482855975238095
2.67097175,1.2087345462504762,-0.42171326317142854,-1.1619178474619047,2.4950642056666665
2.68091775,1.1794395677504763,-0.32457894085714284,-1.3858574639380952,2.483195012142857
2.69086475,1.1504329022076192,-0.2302770098,-1.510579019295238,2.5070260723333333
2.70081075,1.1133501876933334,-0.14816347448095235,-1.5424680349619047,2.5078032416666667
2.71075675,1.0641077044552383,-0.07643535986666666,-1.4993880889142857,2.4525566564285715
2.72070275,0.9986186350790478,-0.01042640688571429,-1.4403862581999998,2.3750351069523807
2.73064875,0.9241484147361906,0.055990347623809514,-1.4050024174380953,2.311362983904762
2.74059575,0.8458943219171429,0.1295899471380952,-1.397077825295238,2.2666528760952382
2.75054175,0.7634145786228572,0.216572598147619,-1.4258214287666666,2.240711183809524
2.76048775,0.6707755426409525,0.32477601986190474,-1.4851206878666667,2.2149604850952382
2.77043375,0.6135635689885715,0.40961261743333327,-1.5517674467809524,2.1685726637142855
2.78038075,0.6012595167028572,0.4634703184285714,-1.5842150107904762,2.147562335285714
2.79032675,0.5641565214171429,0.5262311848761905,-1.5588596460380952,2.1170005944285712
2.80027275,0.5476823324171429,0.5599246095519048,-1.4666480249857141,2.1510457266666667
2.81021875,0.49891094161714294,0.603238611285238,-1.3266970901857142,2.2229857494285716
2.82016575,0.43628441842190474,0.6235353688090476,-1.1499170499,2.285011491190476
2.83011175,0.3840741617314286,0.6297672477185714,-0.9443862781380952,2.3034776736666664
2.84005775,0.34112808386476196,0.6420981066804762,-0.7410890592333332,2.2544243880952384
2.85000375,0.32668708746,0.6519726895661905,-0.5594443304714285,2.1412836726952382
2.85995075,0.30366233192476194,0.6759535966661905,-0.40525097050476183,2.023546685552381
2.86989675,0.2781013570428572,0.7018290016614286,-0.2992331822666666,1.942560890695238
2.87984275,0.25767466168571435,0.734336638837619,-0.24142632750476184,1.9047093854571426
2.88978875,0.23752703774809528,0.7682674465709523,-0.20083813064761896,1.8825675049809523
2.89973475,0.2305503140528572,0.8016181965614285,-0.14443274211428564,1.8550992724571427
2.90968175,0.2451157978528572,0.8317483558661904,-0.07210811406666659,1.8371681259333335
2.91962775,0.2686955163766667,0.8542734176376191,0.010129799880952459,1.8365973257904764
2.92957375,0.29561624341952386,0.87590122419,0.1257100132190477,1.8451218861238095
2.93951975,0.3221178451766667,0.890272079237619,0.2653782212666667,1.8507072188380953
2.94946675,0.33816483417666676,0.8988796122614285,0.3926863064095239,1.8402586778857146
2.95941275,0.3417404187280953,0.8987501799661904,0.474270418104762,1.8027958795380954
2.96935875,0.3460375140179524,0.8770101068899999,0.4964971605238096,1.7718820042190475
2.97930475,0.32428969684223813,0.8612082432614285,0.48845367498571435,1.7579425980333332
2.98925175,0.2888842004850953,0.8424462823947619,0.4971866864714287,1.726654897090476
2.99919775,0.2583201516708096,0.8148791108519049,0.5557796297571429,1.7641351774238097
3.00914375,0.226118532699381,0.7654748442190475,0.6609036849952381,1.8586781096619047
3.01908975,0.24836958457080957,0.6512117162047619,0.800932025852381,2.008421729566667
3.02903675,0.2947846083946191,0.5311791683714285,0.9512555870904764,2.1729302354238094
3.03898275,0.3374276369089048,0.42227608552857143,1.0864475566142857,2.326375975804762
3.04892875,0.3820555567231905,0.29831800948571424,1.201184016757143,2.4604366444238095
3.05887475,0.42049968575652386,0.1646852139285714,1.2907987222809525,2.563841870490476
3.06882175,0.46743732188509524,0.027916988214285714,1.3554145204476191,2.610197259585714
3.07876775,0.5244354893184286,-0.10916694540476192,1.4069919744000001,2.614089504919048
3.08871375,0.5756718261089048,-0.2507336747380952,1.4487968932952382,2.6040759088238095
3.09865975,0.6104357802560477,-0.39074923521428573,1.4711014872,2.600845296728571
3.10860675,0.622927813541762,-0.5278691292142857,1.4601314980476192,2.6133157969190477
3.11855275,0.6112541885798572,-0.6618267654523811,1.4190474851428572,2.625146716347619
3.12849875,0.5803820680655715,-0.7871686268333333,1.3502315484333334,2.6269575880142857
3.13844475,0.5393261130989048,-0.9027591980714286,1.250104468,2.616247290395238
3.14839075,0.493974927514619,-1.0020432909809525,1.1317077622380953,2.6009369649190477
3.15833775,0.45664002399557146,-1.0897403046857144,1.0218640294285715,2.6014558194428568
3.16828375,0.4318029348479524,-1.1659468713761905,0.9593786225428573,2.6220126753142856
3.17822975,0.4162856618209525,-1.229889891695238,0.9442599782190477,2.628456705014286
3.18817575,0.4053681792966667,-1.2778386332238096,0.9218591001619048,2.642476275914286
3.19812275,0.38375745148714285,-1.2989239295380952,0.8401631674095239,2.6773432563333337
3.20806875,0.34358330014904764,-1.288449561542857,0.660225129504762,2.624408155
3.21801475,0.2985605157728572,-1.24104617034,0.37933900640952395,2.474156334047619
3.22796075,0.26406954132142857,-1.1559863483371426,0.04035467012380962,2.260194820047619
3.23790775,0.24052702745952384,-1.0535985394419047,-0.3007097991619047,2.0286839904285716
3.24785375,0.22577502096428578,-0.9451808172609524,-0.6071343883999999,1.8172839023809522
3.25779975,0.22808917315476196,-0.8275889947133334,-0.8521661090666667,1.6641972494285715
3.26774575,0.24201239774047625,-0.7045504489895238,-1.0338423014476188,1.5930658017142856
3.27769275,0.25472399049285716,-0.5843405634514286,-1.1619377281047618,1.5867170181904762
3.28763875,0.26649282413571435,-0.46496914078952384,-1.2441441227714285,1.6055488367619049
3.29758475,0.2775260954404762,-0.342970438832381,-1.2902512559047619,1.619678176904762
3.30753075,0.2825328364928572,-0.21868042192761905,-1.317578970047619,1.6270782984285712
3.31747675,0.27807965970238097,-0.09229866102285714,-1.336088331190476,1.6295092918095238
3.32742375,0.26906690245476195,0.029518763310476176,-1.350439458857143,1.6283496884761905
3.33736975,0.26003231038333335,0.14787904921523806,-1.3577723127619048,1.6271594204761903
3.34731575,0.2516206068814286,0.26379583940571427,-1.3521539738095238,1.6231279012857143
3.35726175,0.2434337340419048,0.36800360812,-1.3305227563571427,1.610469313047619
3.36720875,0.23256616167523814,0.45736202462,-1.2919434678714286,1.5899726255714284
3.37715475,0.21836642121333338,0.5316871243771428,-1.241925689106857,1.5757247802380954
3.38710075,0.2081093260085715,0.5943387731961904,-1.1856444285973333,1.5700677246047618
3.39704675,0.20328449775142862,0.6441469571438095,-1.1071418552401906,1.5592431674666667
3.40699375,0.20656747788476193,0.68249390232,-1.0034398985354285,1.5487702305142856
3.416939375,0.22735574086571433,0.7106041270533333,-0.8839001734878094,1.542114277990476
3.426885375,0.25624114107047624,0.7293151196885714,-0.7469339359639999,1.543815158752381
3.436831375,0.28207117618857147,0.735339297147619,-0.5992552931068571,1.556664664942857
3.446778375,0.29782518836000005,0.7323286354157142,-0.4601761224878094,1.5726588557047618
3.456724375,0.3050788508028572,0.7243825477814285,-0.33968405310685706,1.5821942988476192
3.466670375,0.3056552922933334,0.7122589586933333,-0.2315971302020952,1.5772023635619048
3.476616375,0.2980184266552381,0.6931997782885714,-0.11476630882114283,1.5517088263714287
3.486563375,0.2820783164028572,0.6666904515933333,0.01541966451219052,1.5099968098
3.496509375,0.2636002587409524,0.6319547746457143,0.1400952217788572,1.4543477122285715
3.506455375,0.2443626617028572,0.5989660786742856,0.2449804321931429,1.3857291016619047
3.516401375,0.2345293852171429,0.5687278572647618,0.33619510299314287,1.3216052647333334
3.526347375,0.24200167435523812,0.5382030665885713,0.42370191514076194,1.2717372276380954
3.536294375,0.2661480107076191,0.5118527145647619,0.5079535544836191,1.236922913495238
3.546240375,0.3050540523885715,0.4849383428980952,0.579004519740762,1.213090597352381
3.556186375,0.363492094952381,0.4589502258647619,0.6210833389121905,1.2061035157333333
3.566132375,0.44275928400952386,0.4405072305980952,0.6220251861312381,1.2279517774000002
3.576079375,0.5430277591428572,0.4337943625123809,0.5885703139312382,1.2774355699714286
3.586025375,0.661879110257143,0.43016931156,0.533770459452381,1.3375555130666665
3.595971375,0.7795487373238095,0.4167927059219047,0.4989787745333334,1.3882800524619046
3.605917375,0.8809499243142858,0.38342605707095234,0.5190020633666668,1.4438603754095238
3.615864375,0.9587596356809523,0.3235565273804762,0.5875571307095239,1.5292185466
3.625810375,0.9992075202333334,0.24472160941380952,0.6895290076619048,1.6427717849809524
3.635756375,1.0037991577,0.1609925301947619,0.7959324058047621,1.7594396217904762
3.645702375,0.9907307316523811,0.07999542325666666,0.8699476866619048,1.845615985647619
3.655649375,0.9802108928571429,0.008022574807619042,0.8903678622333334,1.8841008038857143
3.665595375,0.9798284118619046,-0.05125631650095239,0.8591370481238096,1.8840598115523812
3.675541375,0.9911371705714287,-0.10055190847000002,0.7934142606761906,1.885016659742857
3.685487375,1.0241939953047619,-0.14454077634142856,0.7073352272476191,1.9093083201714285
3.695433375,1.0836670854904762,-0.18058688392238095,0.6134601568428573,1.953828548314286
3.705380375,1.162235791547619,-0.20949283117,0.5377017653095238,2.0197266867904764
3.715326375,1.255653867204762,-0.24311341624619048,0.4970623635476192,2.107899226547619
3.725272375,1.3475871607857144,-0.2867283407509524,0.47202141191904773,2.195304249
3.735218375,1.4219847521047622,-0.3385370242414286,0.44256547834761906,2.2652826395714287
3.745165375,1.4693451349619049,-0.39577946955095245,0.4081628560238096,2.310292597047619
3.755111375,1.491873719009524,-0.4561852446080953,0.37167664800952394,2.3351866307619047
3.765057375,1.4877718867714285,-0.5206817178128572,0.34610435154285724,2.3386738850476188
3.775003375,1.4596771432285716,-0.5858018800985715,0.337634047104762,2.3205547337142858
3.784950375,1.409435967752381,-0.6509386512604762,0.332583612057143,2.2879827093809526
3.794896375,1.3393285673142858,-0.7088153941700001,0.3135096882952381,2.257949038809524
3.804842375,1.2513997567757142,-0.7492888185366666,0.2432776673238096,2.2532469143809526
3.814788375,1.1590048933566668,-0.7616532433000001,0.09643570532380959,2.253909198047619
3.824735375,1.0788068445566668,-0.741736178904762,-0.11597027829523802,2.218738870095238
3.834681375,1.020453136794762,-0.6926840260238096,-0.36960069153333325,2.143267632952381
3.844627375,0.9858845536090476,-0.6243919441770001,-0.6341490536761905,2.045948098952381
3.854573375,0.962087771137619,-0.548598399747,-0.8711022611523809,1.963044927142857
3.864520375,0.9337234483376191,-0.47475941242319053,-1.049008642247619,1.9274926907142858
3.874466375,0.8927822588995239,-0.40961341100890475,-1.1615938003285713,1.9411738243333332
3.884412375,0.8368785301328574,-0.351952486047,-1.2210359264047619,1.9595936906190476
3.894358375,0.7669630715185715,-0.2946678433327143,-1.2501776138809522,1.9521451567619048
3.904304375,0.682268583934762,-0.24019867672319048,-1.2646997586666666,1.9176312610000001
3.914251375,0.5804240588252382,-0.18607109888509524,-1.2740152920476189,1.8573118828095236
3.924197375,0.4676373675871429,-0.1298307410422381,-1.2890190246571427,1.7807134629999999
3.934143375,0.3620529729204762,-0.06898128761842856,-1.3038033753095237,1.7045579761904763
3.944089375,0.2768904209157143,0.002179131967285707,-1.3113941192952379,1.6444435642380952
3.954036375,0.22260408767285716,0.08160194572919048,-1.3070215435857142,1.6091775291904764
3.963982375,0.19107841376809528,0.16130701292919047,-1.2858552354904762,1.5889429173809526
3.973928375,0.16794395724428574,0.23877347361014284,-1.2501505496152379,1.5730353070952379
3.983874375,0.14276731193000006,0.3138993634768096,-1.1994131177961902,1.5546653699047621
3.993821375,0.11591358031666672,0.3849346944101429,-1.1306341577914285,1.530200524252381
4.003767375,0.0830713623214286,0.45128561205776196,-1.0435460341485714,1.4984535230142857
4.013713375,0.054009257869523854,0.5139611926958572,-0.9447738927961905,1.457827935347619
4.023659375,0.03249310355047623,0.5759330191625238,-0.8499331686866666,1.4120631372523809
4.033606375,0.011074545964761942,0.6360546473815715,-0.7635472678057142,1.3683068523
4.043552375,-0.013454555892380916,0.6927725695958571,-0.682860898615238,1.3330628152047619
4.053498375,-0.03661490809714282,0.7462737017966666,-0.5995475146295237,1.3056855836809522
4.063444375,-0.046492771344761874,0.7924639488904762,-0.5048195304009523,1.2755405231095236
4.073390375,-0.04101956257333331,0.8330681977476191,-0.39101848556285707,1.250484631204762
4.083337375,-0.017218352922380924,0.8697784933428571,-0.2572932761819047,1.240149322252381
4.093283375,0.023293870158571456,0.9054884974142856,-0.1142256918961904,1.2507026658714284
4.103229375,0.06401021674904765,0.9346499401571429,0.03211029100857151,1.2766584237761904
4.113175375,0.0920948581709524,0.9562737093476189,0.18026447958000008,1.3154886556333334
4.123122375,0.1000743210519048,0.9685372974904763,0.314700766084762,1.360548294442857
4.133068375,0.07692864431857145,0.9698264275571428,0.41855054594666674,1.388858669442857
4.143014375,0.015233554732857172,0.9629225086571428,0.490312337737143,1.4023002438714285
4.152960375,-0.0817709176433333,0.9488715519904761,0.530979806132381,1.4145040757761906
4.162907375,-0.20808775701952376,0.9268934971999999,0.5332772050038097,1.4350987872523808
4.172853375,-0.335528344257619,0.901318611247619,0.522672527637143,1.4585211746809523
4.182799375,-0.42850091778142857,0.8621081576190475,0.5707924115809524,1.4824988014428573
4.192745375,-0.48140224400523807,0.7937045749142858,0.7312894041476191,1.6097642974904762
4.202691375,-0.5026956276728571,0.6926713988,0.9987013148571429,1.8492810554761903
4.212638375,-0.4955428531919047,0.5695468851095238,1.324479408261905,2.1492739667619047
4.222584375,-0.4753987602104761,0.4420408717190476,1.647727495004762,2.4396387363333334
4.232530375,-0.4491571333166667,0.3191254238,1.9201308396095238,2.6637239933333334
4.242476375,-0.41662914225380954,0.2045069521333333,2.1158970396809527,2.798688752761905
4.252423375,-0.37291896294904764,0.09769227194285714,2.241309819490476,2.8595941895238095
4.262369375,-0.32027055838238094,-0.0072188193428571485,2.308710117457143,2.8771865312857146
4.272315375,-0.27691654150619044,-0.10806922815238096,2.3331720276714285,2.8864818333333333
4.282261375,-0.24546171899190475,-0.2065912478571429,2.3248516903904766,2.8896221168571428
4.292208375,-0.22650564797142853,-0.3053006290571429,2.2859026630000003,2.8774148213809525
4.302154375,-0.21925820341904761,-0.4031030514380953,2.2203910992538094,2.846349358095238
4.312100375,-0.22238096810476185,-0.49891810269047615,2.133509855682381,2.8035563727142856
4.322046375,-0.2387505511238095,-0.5939272823238095,2.032366918977619,2.7513878435714285
4.331993375,-0.25436786200857137,-0.689449012152381,1.930776698144286,2.7047939112857144
4.341939375,-0.24686481407952374,-0.7778559892095238,1.8447453334442858,2.6804404093333334
4.351885375,-0.21034615750095234,-0.8596783332,1.7740360126300003,2.671733291047619
4.361831375,-0.1507607154628571,-0.9390740409047619,1.7117185321823811,2.6658267450952384
4.371778375,-0.07394235947714282,-1.0118873291380952,1.6571353866300003,2.6593557890952377
4.381724375,0.006723453993809566,-1.0738764327380952,1.5783827194680953,2.6737287877142855
4.391670375,0.07286452794142861,-1.1116706768142857,1.4027431090395237,2.721225036809524
4.401616375,0.11876120653666672,-1.1119600722190477,1.0865116253728573,2.694132833
4.411562375,0.14432868078904765,-1.076380586352381,0.6490229502776191,2.5695899336666668
4.421509708,0.15755928267000005,-1.0157477026809525,0.147396974182381,2.385849296714286
4.431455708,0.17174052608857146,-0.9474399447,-0.3426347807699999,2.2031737929047615
4.441401708,0.18204092027571434,-0.882553364747619,-0.761521151865238,2.076011528714286
4.451347708,0.1856232935176191,-0.8237750786238096,-1.079640478674762,2.0202415258571427
4.461294708,0.18487992359380956,-0.7696323119309524,-1.313828036722381,2.0222632370952383
4.471240708,0.18036629598904766,-0.7121633426880953,-1.4893777392938095,2.057159032238095
4.481186708,0.1775202960271429,-0.6464733553357143,-1.631450016117619,2.1025650774285713
4.491132708,0.17749692457000005,-0.5723810583166667,-1.7628909689604761,2.1534999836190476
4.501079708,0.17478898677000004,-0.4896500988166667,-1.8767340580461904,2.198820786857143
4.511025708,0.1650362243604762,-0.4037800615880953,-1.9629681540619046,2.233336213047619
4.520971708,0.15540732894619053,-0.3169913432261905,-2.0249575221571425,2.2605585096666667
4.530917708,0.15580827391285718,-0.22315898535000003,-2.0719093551666665,2.284829261
4.540864708,0.16498789607857148,-0.11784119239761907,-2.104743280904762,2.3013648510952383
4.550810708,0.17883591433523813,-0.009778479730952413,-2.120825852647619,2.312505850904762
4.560756708,0.19066194627571434,0.09948518145952379,-2.104456238304762,2.315617492761905
4.570702708,0.20043502950380954,0.20756166293571426,-2.0316408339380954,2.3133519917142857
4.580648708,0.21422439113714292,0.30754299453095235,-1.8941247354142856,2.3187235173809526
4.590595708,0.23240344724714287,0.4001800562261904,-1.7071977433666665,2.3227325083333334
4.600541708,0.2526071922709524,0.48319358939285706,-1.499645839747619,2.2972951804285713
4.610487708,0.278849652742381,0.56076975495,-1.2986306220333332,2.2333951445714284
4.620433708,0.3175655328614286,0.6410731315119047,-1.1261713400190476,2.148420705047619
4.630380708,0.3603549453614286,0.7254970687928571,-0.9880508621571428,2.069420583904762
4.640326708,0.3975313510566667,0.8085877295261904,-0.8720126169571427,2.0030782538571428
4.650272708,0.42910471107571435,0.8875957529071428,-0.764176428195238,1.9424653628095239
4.660218708,0.45238994570904767,0.9615271401642858,-0.6548902970238094,1.8834770484761902
4.670165708,0.4618630998376191,1.0274645622333334,-0.5324952652419046,1.8235801643809522
4.680111708,0.4522915941461905,1.0787362625142858,-0.3971044625419047,1.7679621493809525
4.690057708,0.4252128008509524,1.1150741183047619,-0.248759014327619,1.7236632715714284
4.700003708,0.3863816261652382,1.1375967576809525,-0.08613683732761897,1.6849751128571429
4.709950708,0.34853344152238097,1.1499227439666666,0.07034693267238104,1.654391282904762
4.719896708,0.3157079837985715,1.1582838586142858,0.20814244457714293,1.6371461132380951
4.729842708,0.2983689707061905,1.164697822604762,0.3312883145295239,1.626242544190476
4.739788708,0.3001703064252381,1.1632536925952381,0.4398079313866668,1.6175553274761907
4.749734708,0.3118314503633334,1.1466797528761905,0.5242787856152381,1.604326479190476
4.759681708,0.3231222863109524,1.1143349885,0.5961829710295239,1.588604561190476
4.769627708,0.33055004960142864,1.0581381924004762,0.6775791643819049,1.5982865977142857
4.779573708,0.3337099858733334,0.9705934499290476,0.7843840156676191,1.6681312865238094
4.789519708,0.32807888748952385,0.8528527530719048,0.9302910079057143,1.802632182095238
4.799466708,0.307861638184762,0.7106907215004762,1.122977089667619,1.9933276835238096
4.809412708,0.2739919739038096,0.5595860488338095,1.3527282538104763,2.220965158809524
4.819358708,0.2347290623976191,0.4065065974052381,1.58500800462,2.440580555190476
4.829304708,0.1824969882880953,0.2556297085480952,1.7809290445580954,2.5939972957619046
4.839251708,0.11853836148809528,0.1087087952147619,1.9199208132676189,2.6498218110952383
4.849197708,0.05777091004047624,-0.02933430449952383,1.9895413268438096,2.6330371980000002
4.859143708,0.01456450577761909,-0.15320689288047623,1.9943412504866667,2.6095318131428575
4.869089708,0.003732977320476235,-0.26625740582809526,1.9527594446485714,2.616979644666667
4.879036708,0.033274029668095284,-0.37334545729,1.8918358012,2.642371521714286
4.888982708,0.09562407003571434,-0.4729122770185714,1.8369103429380953,2.6679875676666667
4.898928708,0.17963030730238097,-0.5631112864471429,1.789347308814286,2.6871967564761907
4.908874708,0.2791861112928572,-0.6471703157090476,1.7449000053190478,2.706244599761905
4.918821708,0.37929576494047623,-0.7276767716519048,1.705456916052381,2.7250856423333336
4.928767708,0.46595960001190484,-0.8104843018566668,1.6723045954857145,2.7350306054761906
4.938713708,0.5200482416566667,-0.8982271048280953,1.647581899447619,2.737303473666667
4.948659708,0.5407177243661905,-0.9904101789328572,1.6137825705809525,2.730995745952381
4.958605708,0.541698023994762,-1.0712805057138095,1.545178943495238,2.7306669843333333
4.968552708,0.5340469962614286,-1.129087276942381,1.4206025382857144,2.7736096553809526
4.978498708,0.5293079132471429,-1.1527249942666669,1.213643792904762,2.842813083
4.988444708,0.5246665292019048,-1.1363256217714286,0.8989417459523811,2.890429168333333
4.998390708,0.5141392856714286,-1.0749188381871428,0.47355104352380956,2.8795686032380954
5.008337708,0.5032762553428572,-0.9781508996299999,-0.03040020319047612,2.8022041491428573
5.018283708,0.49117299402857145,-0.8646152696919047,-0.553161692095238,2.6826380632380955
5.028229708,0.47293122478714295,-0.7474056044252381,-1.0262648945714286,2.566294828238095
5.038175708,0.45785003223000004,-0.6374920252204761,-1.3947690661428571,2.498927476095238
5.048122708,0.44747322224428576,-0.5371543754157143,-1.6422396882857142,2.495140953
5.058068708,0.4326564265109524,-0.4472468079204762,-1.7821253570619047,2.5369192208095237
5.068014708,0.4079655107928572,-0.3697885124490477,-1.844902790609524,2.5761437384761905
5.077960708,0.37067641916428573,-0.29461538543952387,-1.8757358270380953,2.5958552624761904
5.087906708,0.3160498649738096,-0.21250651397285716,-1.9134202687523807,2.6133412370952382
5.097853708,0.2533964185028572,-0.1232951271061905,-1.9768636166666664,2.635977755095238
5.107799708,0.18707052728380957,-0.03064194382047621,-2.057744948757143,2.654119102238095
5.117745708,0.11371145540761907,0.06268346042714283,-2.1338941848809525,2.647387656904762
5.127691708,0.04140553319809527,0.15121996725095235,-2.1822637171095236,2.6138915435714285
5.137638708,-0.012574569520952346,0.23482308075571426,-2.1902995455809524,2.5811635504761905
5.147584708,-0.038190495606666625,0.31420091269857137,-2.1553019829714284,2.586897208714286
5.157530708,-0.03576555782095234,0.3920901827414286,-2.0657535458666665,2.640785650047619
5.167476708,-0.017503499092380907,0.4621833184080953,-1.9134343577238095,2.715541551904762
5.177423708,0.00043540526000004513,0.5191417143319047,-1.7115807049619047,2.744898606285714
5.187369708,0.007155730288571474,0.5663426109033333,-1.4772719146761903,2.7064051915714287
5.197315708,0.010787322814761949,0.6114741360890475,-1.243465957057143,2.5855021942380954
5.207261708,0.020001732432619095,0.652993446352381,-1.0359225457852381,2.4148162371142856
5.217208708,0.03186123620214291,0.6928662363666666,-0.854566780837619,2.255989628495238
5.227154708,0.04696248679880958,0.7316042349523809,-0.697497286837619,2.1195586488285714
5.237100708,0.07044512239071433,0.7621634406857142,-0.555050119985238,1.9962372083523812
5.247046708,0.09901811421452386,0.7818575451809524,-0.40530317770904756,1.8739818964571429
5.256992708,0.13536961699547623,0.7991406616761905,-0.2424349164709523,1.7846886279333336
5.266939708,0.18356466030023816,0.809968298947619,-0.069170055185238,1.7376057161238099
5.276885708,0.2365425833097619,0.8185748435142857,0.10671625205285724,1.7163689490285716
5.286831708,0.29138700368595244,0.8269819980238095,0.2816989974814287,1.7025959911238095
5.296777708,0.33932146478595243,0.8222497907095236,0.46065612319571436,1.687989131552381
5.306724708,0.3610874657569048,0.8069358215380953,0.6521035698147619,1.6806553778857143
5.316670708,0.3556497483659524,0.7818954964142858,0.8329173814338097,1.6747177320761906
5.326616708,0.3278061305611905,0.7576545692095238,0.9698069368623811,1.6689005174095237
5.336562708,0.2826168554230953,0.7348203428333333,1.040981640357619,1.6701981171238096
5.346509708,0.21740160628500005,0.7114738307714286,1.0587171921242857,1.6819092547904764
5.356455708,0.14100795827547621,0.6836839916952381,1.0522216316004762,1.6802909986476189
5.366401708,0.05680655279928576,0.6432450937428571,1.050162715552857,1.6800869802666667
5.376347708,-0.032116816929285676,0.5870097895619047,1.080136016314762,1.7128995698857143
5.386294708,-0.11205437709119044,0.5217978120714286,1.1315767011242859,1.770085499457143
5.396240708,-0.17014377418642854,0.4506024484142857,1.1796423173623811,1.8253423909809523
5.406186708,-0.20457502350547618,0.3793992049333334,1.2190786406004763,1.865284872552381
5.416132708,-0.21677340822809518,0.3132840692952381,1.2524837557809525,1.8646536481619047
5.426079458,-0.21190303781999992,0.24676760584285712,1.2758011988285716,1.8268513949190477
5.436025458,-0.201921386497619,0.17549692449999996,1.300084212061905,1.7869082834285714
5.445971458,-0.1919479143180952,0.10234442812857142,1.3350177058809525,1.7519678469666669
5.455917458,-0.1791332870085714,0.029365747228571427,1.3634099752380955,1.7572907695285716
5.465863458,-0.16515386127999998,-0.048368780442857154,1.3770711314476192,1.773935899147619
5.475810458,-0.1614178211228571,-0.12600311190000002,1.3633824098000003,1.773159821195238
5.485756458,-0.1750383095990476,-0.20835376574761905,1.3225209809238097,1.7512366713857144
5.495702458,-0.21804013266095235,-0.2981138859380953,1.2641296273285716,1.7151583408142859
5.505648458,-0.2770897539371428,-0.385761045152381,1.192257267466667,1.678902489195238
5.515595458,-0.3183865323990476,-0.46827310997619054,1.1000527744380955,1.6307216543857141
5.525541458,-0.3285285714557143,-0.5483885681857144,0.9953257729809525,1.586382463004762
5.535487458,-0.32186210520333325,-0.6331254428857144,0.8953828798666669,1.5691471457666668
5.545433458,-0.3120216014890476,-0.7170458096047619,0.8054134432476191,1.5863496067666667
5.555380458,-0.28914830146523807,-0.7937144037666667,0.7001560158047619,1.617921718147619
5.565326458,-0.2582315576604761,-0.8518384281904762,0.553741234709524,1.6444334303857142
5.575272458,-0.21865696346523805,-0.8840043513095239,0.35144185704285724,1.639208624195238
5.585218458,-0.17241650339380948,-0.8919762223761906,0.09646160013809532,1.5841124588619049
5.595164458,-0.13150845686047613,-0.8860853196666667,-0.1727164202904761,1.512632655195238
5.605111458,-0.1009691891080952,-0.8787947327523811,-0.40796407852857136,1.4547683309095238
5.615057458,-0.08966853296999995,-0.8769389935666667,-0.5791713881476189,1.4422521348142856
5.625003458,-0.09361108077476185,-0.8843417634904762,-0.6866014460285713,1.4878558172809524
5.634949458,-0.10534766598095233,-0.8932366453952382,-0.7497271787380951,1.547609912952381
5.644896458,-0.12046794613333328,-0.8911359914095238,-0.8102610078285712,1.603929867157143
5.654842458,-0.13700181677047615,-0.8719826986761904,-0.9078016698809522,1.6806508309047619
5.664788458,-0.1621377021228571,-0.8352517568447618,-1.0517789138476188,1.7610429510952377
5.674734458,-0.19621207289904757,-0.7821674893399999,-1.2211703845809523,1.823618955095238
5.684681458,-0.22566566410380945,-0.7174276884352381,-1.3793691150761904,1.8663607283333334
5.694627458,-0.24475313041333327,-0.6379613129304762,-1.4933681577714286,1.8877129991428572
5.704573458,-0.24851587111333331,-0.5617355896685714,-1.5652390976047619,1.8928866841428573
5.714519458,-0.25002745467047616,-0.4912446066780952,-1.6173111146285717,1.888101186047619
5.724466458,-0.264681534227619,-0.41425980343047625,-1.630531279404762,1.8763977837333334
5.734412458,-0.27989139337523805,-0.3416412970828572,-1.6183180886961903,1.8536012313285715
5.744358458,-0.27100921176095233,-0.2647036335304762,-1.5825655391866669,1.814798049838095
5.754304458,-0.2204459121180952,-0.17782252916857144,-1.519106849300952,1.7796432019428574
5.764250458,-0.13968211080857137,-0.08794863886380953,-1.4405263130485713,1.7513921309904763
5.774197458,-0.061599679041904706,-0.0021340666542857267,-1.3590506811247618,1.7180629299904762
5.784143458,-0.017318194570476137,0.07532582286952379,-1.2845596317961903,1.6642274726095239
5.794089458,-0.003125843179999942,0.14009686461238094,-1.2275966416295236,1.6082102609904763
5.804035458,-0.009987907499047563,0.1929489698123809,-1.166652198810476,1.5463555322619047
5.813982458,-0.03363114313238089,0.24066039791714283,-1.0888434393342856,1.4856588207095238
5.823928458,-0.0568882032371428,0.28243602505523807,-0.9958570900533332,1.4384250269476189
5.833874458,-0.08321599128952374,0.3270372634695238,-0.8841546944485714,1.4074915891380952
5.843820458,-0.10837334079428564,0.3767989063695238,-0.764570474910476,1.383515842042857
5.853767458,-0.11962833121809516,0.41723897376476193,-0.6523786395057142,1.3333421461761905
5.863713458,-0.12262672597619041,0.45136109680285713,-0.5366559768533332,1.2573207460619047
5.873659458,-0.11397756460761899,0.48151901645714285,-0.39065918813428563,1.170387864752381
5.883605458,-0.09622930732666661,0.503163348352381,-0.21916664575333325,1.1000205602761906
5.893552458,-0.0734401602123809,0.5201650606333332,-0.054292483277142776,1.0534233383714287
5.903498458,-0.0385885709219047,0.5257626976333333,0.0558532443038096,1.022156953704762
5.913444458,0.0071053119638095855,0.5270023769619048,0.11299989274666677,1.0054609367142857
5.923390458,0.06676806426857149,0.5198424335523809,0.15138441324190482,0.9945011065333333
5.933336458,0.13103416413523816,0.47776944765238094,0.1972155577800001,1.003194078657143
5.943283458,0.17069789183523815,0.4127585586904762,0.323442437052381,1.1081941165857143
5.953229458,0.172850664354381,0.32441668061428575,0.5353391282285715,1.313427285457143
5.963175458,0.12341663433533338,0.2089680574904762,0.7933677613904764,1.5574710744476192
5.973121458,0.022372776616285773,0.07994864547142856,1.062118071947619,1.7855401721619049
5.983068458,-0.09300189314561899,-0.04509855802380954,1.2803131888809525,1.950636251209524
5.993014458,-0.17732448219323804,-0.15317270061428573,1.4218767579333336,2.041850049209524
6.002960458,-0.2129108872503809,-0.23897170813333335,1.507744846109524,2.0655169637333337
6.012906458,-0.1934703648413333,-0.30117003067619047,1.5475094765619049,2.065119838995238
6.022853458,-0.12273468630799994,-0.3496677979142857,1.5479457345380954,2.081291953452381
6.032799458,-0.025664223946095185,-0.3987892820761905,1.530365690861905,2.1107767990714286
6.042745458,0.08218062078723813,-0.4581510924619047,1.5112848339952383,2.138076384261905
6.052691458,0.18520402551580956,-0.532649409004762,1.500253894604762,2.168298549452381
6.062638458,0.26220366608247625,-0.6133430176142858,1.5240117165333336,2.221716983652381
6.072584458,0.31187405935390483,-0.699552569252381,1.588096225547619,2.294699870052381
6.082530458,0.34401419555676194,-0.789558300347619,1.6545231848285715,2.3675939380285715
6.092476458,0.36335191573295245,-0.875868479804762,1.682322936352381,2.4051264719333334
6.102422458,0.36604319419009534,-0.9544830969666668,1.6647888907809525,2.398561458504762
6.112369458,0.34697260214247627,-1.020579062090476,1.6238572117714285,2.3809204469714285
6.122315458,0.3159875364091429,-1.070225459152381,1.567610951042857,2.3969150199142857
6.132261458,0.27588922430373813,-1.0962353222571428,1.491234842957143,2.4411094051904763
6.142207458,0.23375911667992863,-1.0924885378428573,1.3491316037476193,2.500271960761905
6.152154458,0.20557608018945242,-1.0558575833952382,1.0958364587000002,2.4921504106666665
6.162100458,0.19998650268935722,-0.9895850462619998,0.7435683622238096,2.3963185143333336
6.172046458,0.2215537722884048,-0.9000198053953332,0.3372274986047621,2.242633883142857
6.181992458,0.2598858592693572,-0.8005925392286667,-0.06520976387142843,2.076576067571428
6.191939458,0.3000292431217382,-0.7042323743667619,-0.39517062125238084,1.962311258666667
6.201885458,0.33146430084554773,-0.6216798245286668,-0.6198478222523809,1.9260413471904758
6.211831458,0.34441855478840483,-0.5519484365905715,-0.7587969062619045,1.9488565660952382
6.221777458,0.3320586294222143,-0.491831305162,-0.8541072453428571,2.0005097255142856
6.231724458,0.2906015724317382,-0.43754189866676196,-0.9363429039380952,2.0425936185142852
6.241670458,0.23304082182378577,-0.37874490146676193,-1.0226834471619046,2.0637808592285714
6.251616458,0.17897218339045246,-0.3130627521524762,-1.1252403798047619,2.0720107843238096
6.261562458,0.13590996519997628,-0.24310531367628574,-1.2407989584285712,2.0722976353714286
6.271508458,0.10927503473807149,-0.17025083041914288,-1.3714427130476188,2.0680627500857143
6.281455458,0.1062557692475953,-0.09963712550961908,-1.530800640142857,2.0598411203238096
6.291401458,0.12215492637616673,-0.03626322028104765,-1.7026075399523808,2.0474105940857146
6.301347458,0.15232634511426196,0.01322764085799997,-1.8436529900476186,2.0421699441809524
6.311293458,0.1974547761237858,0.04209922875799997,-1.9285414747142853,2.0644054263714287
6.321240458,0.25201459808569054,0.04859165681514283,-1.946571280647619,2.103733365047619
6.331186458,0.30860414085235727,0.040106720415142835,-1.9083055421761903,2.1159516194761903
6.341132458,0.37207885543395247,0.019604990143714265,-1.8487281783761902,2.107719550571429
6.351078458,0.4408245802815715,-0.0036782188467619254,-1.7850413635619047,2.0815710316190477
6.361025458,0.5135269976482382,-0.028460737465809544,-1.7309406132761904,2.055335805714286
6.370971458,0.5837524156815715,-0.058817351075238125,-1.6986688277047617,2.045344260238095
6.380917458,0.6471569605206191,-0.09182324064666669,-1.6893742328952381,2.0531294624761904
6.390863458,0.7102266922110952,-0.12425033939904766,-1.7041229155142856,2.080283791952381
6.400810458,0.7801235075968096,-0.15788213163714288,-1.7382363234190474,2.123935549047619
6.410756458,0.8483780089206192,-0.19517579836571433,-1.7780687815619047,2.1728760255714286
6.420702625,0.9035273581158572,-0.2397974324228572,-1.799438433561905,2.2045232192380952
6.430648625,0.947024889325381,-0.29671229443714287,-1.767139193942857,2.1915814984285715
6.440594625,0.9816412051920477,-0.37267756601333335,-1.6588400727666666,2.163325879238095
6.450541625,1.0013687511666667,-0.4622795747228572,-1.4817462597666666,2.185028081285714
6.460487625,1.0031673190238095,-0.5616104453514287,-1.2613853062904763,2.2501663357619046
6.470433625,0.9932615936238095,-0.6573996574466667,-1.0228889350523809,2.3326252552380953
6.480379625,0.9803314751047619,-0.7346827661323809,-0.8107096006238095,2.3879675772380953
6.490326625,0.9531490486142857,-0.7867023252800001,-0.6643943613857142,2.3665880126666665
6.500272625,0.9030709460409525,-0.8025098690561905,-0.5896934805666666,2.2825762433047623
6.510218625,0.8306677042314287,-0.7982986347338096,-0.5727729749476189,2.2467190640666663
6.520164625,0.7320322555028573,-0.7787351876671428,-0.5728704842333331,2.224768070447619
6.530111625,0.6227118345695238,-0.7489568497633333,-0.548668468832857,2.1949982380952386
6.540057625,0.5105825156647621,-0.7237963225776191,-0.4661661214947618,2.206329327047619
6.550003625,0.40270396243142853,-0.7073500818633333,-0.2979819615804761,2.280133146047619
6.559949625,0.3137726589504763,-0.6973279960014286,-0.05168159001380938,2.4017392347619047
6.569896625,0.2456256437171429,-0.6894664006347619,0.25180580355761917,2.533145873380952
6.579842625,0.21089456798380957,-0.6735128713728572,0.5923891305100002,2.6520662381904763
6.589788625,0.20552696322190483,-0.6464559807738096,0.9629097561290477,2.7639173440952383
6.599734625,0.22681219950761905,-0.6165349568842857,1.354429264557619,2.8696729553333333
6.609680625,0.26340752074571433,-0.5740849508747619,1.7583643609385713,2.971904545857143
6.619627625,0.2896221268885715,-0.500442179417619,2.145849401938572,3.0682642773333333
6.629573625,0.33627215310761904,-0.42073382664619047,2.4742197887957142,3.1685430242857144
6.639519625,0.38141430073619054,-0.32362865687476194,2.7136361498433335,3.284808895142857
6.649465625,0.3997767366838096,-0.20268837058904765,2.847792688857619,3.3835954841428566
6.659412625,0.39641851193142863,-0.07477696416047622,2.8837393102385716,3.403341002952381
6.669358625,0.3697000985504762,0.05582843550619045,2.839656483143333,3.3496343914761906
6.679304625,0.316895356664762,0.1848579548395238,2.748541382095714,3.266650407380953
6.689250625,0.2415171315980953,0.29523871260142853,2.66535176418619,3.211802373857143
6.699197625,0.1574070766933334,0.3820371832823809,2.6287673229480952,3.227264260666666
6.709143625,0.07398231021904765,0.44670688721095236,2.635091587867143,3.311379180028571
6.719089625,-0.005276464780952344,0.5123905818447619,2.6510258073861905,3.37866908907619
6.729035625,-0.06238913671904758,0.5901472941161905,2.628057526671905,3.4614719708857145
6.738981625,-0.09234321130952376,0.7058714185361904,2.5281664231571432,3.591363565190476
6.748928625,-0.10072351040476187,0.861238718412381,2.3452354183000006,3.7043345430476196
6.758874625,-0.10803049040952378,1.0207587525885713,2.137112325204762,3.7139912862380955
6.768820625,-0.14217357469047615,1.1538568063361905,1.954956299161905,3.634726206380953
6.778766625,-0.21866684288571425,1.2546091350885713,1.7979781053047619,3.5369074769999997
6.788713625,-0.34772099015238095,1.3158630626933332,1.665246142971429,3.44854878147619
6.798659625,-0.513944474247619,1.3428102205466668,1.5155618215904763,3.3447167732380954
6.808605625,-0.6908091460095237,1.354130430047619,1.296046848861905,3.1892485497619045
6.818551625,-0.8604426079142856,1.3555001542333334,0.9773668854333334,3.0290504679047623
6.828498625,-0.987347221247619,1.3464070238761905,0.5797417701000002,2.943575265047619
6.838444625,-1.0826322676476192,1.3572000790333334,0.14826197224285728,2.941793653952381
6.848390625,-1.1294618834285715,1.3754975064619046,-0.2816459827095237,3.0077098431904763
6.858336625,-1.1122746195238096,1.3957813444142857,-0.6908252797095236,3.1224482376190474
6.868282625,-1.045692018138095,1.4231172306999997,-1.064689900090476,3.265955813238095
6.878229625,-0.9560224462285715,1.4449362272714286,-1.391874555138095,3.424696451380952
6.888175625,-0.8671332618476191,1.454247277795238,-1.6623818426142856,3.557578943523809
6.898121625,-0.7920215149333332,1.4466240260904764,-1.8803115516571425,3.645190170809524
6.908067625,-0.7246291986261904,1.4315203548190476,-2.0359369504190474,3.6914205533333337
6.918014625,-0.6393235229657142,1.4098944694904763,-2.13923338877619,3.7040708253809527
6.927960625,-0.5310864492514286,1.3714952335190476,-2.2075014692,3.6915968627142863
6.937906625,-0.42180257689428563,1.324845889504762,-2.232785414390476,3.653910484714286
6.947852625,-0.3202682561180952,1.252171778952381,-2.2092100812952378,3.575564672952381
6.957799625,-0.2181974393799999,1.162382186,-2.1419562978666664,3.4662467720476196
6.967745625,-0.11681430395142851,1.0896970353333333,-2.083190638947619,3.3875547407619044
6.977691625,-0.0215000806323809,1.0421823521428573,-2.058173772280952,3.343212457285714
6.987637625,0.06551542963428576,1.0079659218809525,-2.035597589090476,3.3143507208095238
6.997583625,0.13818769903904768,0.9885303339333331,-1.9972205307571427,3.311199594619047
7.007530625,0.1955842915628572,0.9737867328047619,-1.9090903776142856,3.3549242262857137
7.017476625,0.22911113327714294,0.9651353456666667,-1.7313856697904757,3.4674560856190473
7.027422625,0.24724769265809532,0.9511014016147619,-1.455580610028571,3.5774776909523807
7.037368625,0.25658375742952383,0.9204066797195238,-1.101491996885714,3.607729258047619
7.047315625,0.2607593306961905,0.8728197416290475,-0.6917768165047616,3.5654541920476186
7.057261625,0.26760474263428574,0.8024646924604761,-0.2509559524095235,3.4895855846666666
7.067207625,0.2723117790628572,0.7059015595985715,0.2133851695904764,3.4230238175238092
7.077153625,0.27936925696761905,0.5824953632414286,0.6983870939714287,3.3981917924761906
7.087100625,0.2992660927771429,0.4423131014319048,1.1784448355428574,3.4060348473333333
7.097046625,0.35388345153904766,0.27220452538428563,1.6244187394000005,3.4653762193333337
7.106992625,0.41038254691047615,0.10771818642238093,2.006581561209524,3.5428487416666665
7.116938625,0.48518559127000005,-0.059812588891904786,2.2927715544000002,3.624971655619048
7.126885625,0.5728728326571428,-0.2192736497538095,2.467732943542857,3.684173997904762
7.136831625,0.6854550784666666,-0.35193799325857145,2.5556889610380957,3.741146647333333
7.146777625,0.8279509338238095,-0.46940571562523803,2.5739275960857144,3.832322815809524
7.156723625,0.9765692694761906,-0.58757385093,2.5332078925619053,3.960296336714286
7.166669625,1.103019773404762,-0.7236486525966667,2.4530448213238096,4.100786805761905
7.176616625,1.2005176080714286,-0.8895942755966667,2.369043609880953,4.21769761152381
7.186562625,1.2748378421333333,-1.0743652460728572,2.308553022357143,4.301608488666666
7.196508625,1.3410935580571428,-1.259020163239524,2.275475239880952,4.367198897285714
7.206454625,1.427630703461905,-1.4283997585395238,2.2595933389761904,4.417666753333334
7.216401625,1.546614904747619,-1.5685749897776189,2.2332245682142857,4.43983155152381
7.226347625,1.6867668306523806,-1.6803533365395236,2.157326316833333,4.406087700904762
7.236293625,1.8301831526523809,-1.7600868601638093,2.0108344638333335,4.316380038047619
7.246239625,1.9515919088333331,-1.810186096235238,1.781670638571429,4.2141384331904765
7.256186625,2.0194798541095236,-1.8390251903209525,1.484514108904762,4.156301661619048
7.266132625,2.0301120934285715,-1.8445920598266663,1.1512824026666668,4.120958425476191
7.276078625,2.0158725779999997,-1.821534177469524,0.7884400900476193,4.075571605476191
7.286024625,1.9795361074285716,-1.7649781535123812,0.3930940244285716,3.9944161095714286
7.295970625,1.9277830212095237,-1.6712967651933337,-0.011312385333333178,3.896827237142857
7.305917625,1.8604362426714287,-1.5334102316266667,-0.417126164190476,3.789431383238095
7.315863625,1.8145591000619046,-1.3770860488409524,-0.7942003769523809,3.7065977266666668
7.325809625,1.7711868037,-1.2009965786790477,-1.1000715968095236,3.6479071946190476
7.335755625,1.720129939866667,-1.026630923355238,-1.3035105689999997,3.6256742624761906
7.345702625,1.6448280348666666,-0.8629322461171428,-1.419406225685714,3.6135254060952384
7.355648625,1.539386277438095,-0.7137338144504761,-1.483309359638095,3.584534347952381
7.365594625,1.4162423078190476,-0.5680852134504761,-1.5246106940190476,3.545878522571428
7.375540625,1.2844084603857142,-0.40793653397428564,-1.5756040389714285,3.5197240427619043
7.385487625,1.1658880912666667,-0.22077004278380952,-1.6717756729238094,3.5276222314761907
7.395433625,1.0842158675666667,-0.008301619259999995,-1.8453073343095237,3.572822665047619
7.405379625,1.0113109633904762,0.21086477588285713,-2.0712536595476188,3.581303944857143
7.415325625,0.9171875185809524,0.40551662193047616,-2.309132286357143,3.5056760704761905
7.425272375,0.8022060601047618,0.5699242184019047,-2.528376449452381,3.37615071447619
7.435218375,0.6765145978190477,0.7043569200352381,-2.6773655090333333,3.2539289933809528
7.445164375,0.5513173853571429,0.8016359609161905,-2.7095872870047617,3.183643786095238
7.455110375,0.4551147298380953,0.8700444023733331,-2.6129980783142854,3.155097992190476
7.465056375,0.41563818092380955,0.918459264444762,-2.439847237742857,3.0994158461904764
7.475003375,0.43153795759047614,0.9623202175095238,-2.2409107887428568,3.0383998929047618
7.484949375,0.4719353054952381,1.0061218909666667,-2.034170590028571,2.9874487808571426
7.494895375,0.524210144352381,1.0497122571761905,-1.8311770364761906,2.9431223097142856
7.504841375,0.5769937118095237,1.0821570646190477,-1.6370991224761904,2.8892283838571426
7.514788375,0.6193064996809524,1.0995693071238097,-1.4417414200333332,2.810203900952381
7.524734375,0.6516087742904763,1.0979338269857142,-1.2397982213523808,2.7141340530952385
7.534680375,0.6679352897809524,1.0721549149761904,-1.0350301771142856,2.625828652285714
7.544626375,0.6562987911571428,1.018803958752381,-0.8269857429714285,2.555955876190476
7.554573375,0.6143280863,0.9324954221095239,-0.6078672393047617,2.495524068571428
7.564519375,0.5567040022990477,0.8246722642761904,-0.37340784144761885,2.4283760531428573
7.574465375,0.4903581209276191,0.706108383852381,-0.13369538859047603,2.3321769066666667
7.584411375,0.421703522132381,0.5879224981095238,0.09123006846190493,2.1958661393333334
7.594357375,0.3476870526895238,0.4776254529619048,0.2812205003128573,2.039647513857143
7.604304375,0.25371677015142863,0.3750885539952381,0.4440256394890478,1.9042085642857143
7.614250375,0.1669210864704762,0.28606308075238096,0.5753659366842859,1.819023283142857
7.624196375,0.1099868033276191,0.21886956543333336,0.6738276743842858,1.7866986583333333
7.634142375,0.073286051232381,0.16311176994761906,0.7719099556319049,1.796879111714286
7.644089375,0.047324156184761955,0.10378782724285715,0.8819676965461906,1.859826444
7.654035375,0.016699614789523858,0.04479299924761905,0.9845359616604762,1.958471817761905
7.663981375,-0.032523120167619005,-0.011021472466666663,1.0719747511842859,2.056336123619048
7.673927375,-0.10194343795333329,-0.05926533132380952,1.1679806026604762,2.1486958685714286
7.683874375,-0.1902498672723809,-0.1050050087,1.2825231858033335,2.2222214963333338
7.693820375,-0.29735859974857143,-0.1617618706095238,1.414003120089048,2.2821002005714286
7.703766375,-0.4121789326009523,-0.22970782516190477,1.5736469482033335,2.35513584547619
7.713712375,-0.5229353113295238,-0.30448733709047615,1.761070814346191,2.4572935742380957
7.723658375,-0.6236467513533333,-0.37479602618095237,1.9501357989985717,2.580695260857143
7.733605375,-0.7159770987295238,-0.43012272873333335,2.1027948495557145,2.6975416004761903
7.743551375,-0.8027687128533333,-0.46815229539523817,2.1861606635557145,2.772644662714286
7.753497375,-0.8843038645866667,-0.48255501777142856,2.1929152278414286,2.7927622260952383
7.763443375,-0.9493423154914286,-0.4735784836761905,2.1360017719509528,2.766632295761905
7.773390375,-0.9997928473952381,-0.4498212464809524,2.0396137353585715,2.7224325827142857
7.783336375,-1.0339414813095238,-0.4219754133476191,1.9269491108347618,2.694883369904762
7.793282375,-1.0480705853190475,-0.40888413790952377,1.8181636405442858,2.711346873904762
7.803228375,-1.0438000609285714,-0.411007916247619,1.7273799930742857,2.759618924190476
7.813175375,-1.0000989387238095,-0.42397782019523805,1.649918363326667,2.795386606619048
7.823121375,-0.9269302302761905,-0.44541369885238097,1.565928317274286,2.821639563761905
7.833067375,-0.8537048838666667,-0.47046886478571426,1.4589396406695239,2.8531072027619047
7.843013375,-0.7898347449095237,-0.4980153761523809,1.3101926001361908,2.8804837523333333
7.852959375,-0.7366349113714284,-0.5226015814619048,1.115571925279048,2.8742728829999997
7.862906375,-0.6916065338428572,-0.5486698610142857,0.9011752988504763,2.827111590095238
7.872852375,-0.6551302243380952,-0.584321003095238,0.6800724172314287,2.7616676798095234
7.882798375,-0.6277900257000001,-0.6292642479428571,0.4362304100409526,2.703408731190476
7.892744375,-0.6085670936719048,-0.6825564535761904,0.15174574337428587,2.6666713448095236
7.902691375,-0.5899621357671428,-0.7241117102904762,-0.18469001433999982,2.653243966428571
7.912637375,-0.5639627036766667,-0.7523586902619047,-0.5686398009590474,2.641196844095238
7.922583375,-0.5250995694338094,-0.7687335671,-0.9761189782447617,2.6157836785714284
7.932529375,-0.482090329457619,-0.7756501688857143,-1.3766673394352378,2.5851688014761907
7.942476375,-0.4393399575480952,-0.7851396847761904,-1.7305887500542856,2.5619623434761905
7.952422375,-0.39453583119238095,-0.7996673426619048,-2.001105476578095,2.555203090809524
7.962368375,-0.3446947792609524,-0.8237523023761905,-2.1823102720066663,2.567631397714286
7.972314375,-0.30295910637999995,-0.8558142982095237,-2.289284469782857,2.593669714857143
7.982260375,-0.27520103718476185,-0.8896335633333333,-2.3516410987142855,2.6252368485238096
7.992207375,-0.2508975395085714,-0.9192583422190476,-2.385530864523809,2.6498014885714287
8.002153375,-0.2258331589942857,-0.936555659095238,-2.3960282037142857,2.6555468936666666
8.012099375,-0.18829500903999993,-0.9414070243095238,-2.382660410666667,2.6357267573809526
8.022045375,-0.13996812146380946,-0.9372053404380951,-2.3516751239523805,2.6055126417619046
8.031992375,-0.08398067658285709,-0.9187135487809522,-2.3099485299047617,2.5698937586190476
8.041938375,-0.017793115516190432,-0.8932522380333333,-2.265108321380952,2.5329032293809526
8.051884375,0.05297086981238099,-0.858506509457143,-2.2274872801904757,2.4993149806190478
8.061830375,0.11189108316000003,-0.8175645699761905,-2.194297982952381,2.458833325904762
8.071777375,0.14343372963380957,-0.7798970434333332,-2.1647739710952383,2.4099722764285714
8.081723375,0.14516215961952383,-0.7428361515809524,-2.1208790624190472,2.3567798557142856
8.091669375,0.12727524850047622,-0.7039099422333334,-2.0356409699671425,2.2917189184619047
8.101615375,0.10264461479142861,-0.667446496595238,-1.8898119963052378,2.204503341147619
8.111561375,0.08332104626761909,-0.6280207958238095,-1.6630957598290474,2.1091662366238095
8.121508375,0.0713040052819048,-0.5825296947190476,-1.3805992856861902,2.019769652242857
8.131454375,0.0645885720771429,-0.5309384441238095,-1.0863237905433332,1.9340224515285716
8.141400375,0.07349278516761909,-0.47312249833809517,-0.8130450064004761,1.8435297037666667
8.151346375,0.09525667173904767,-0.4120053955809524,-0.5814594314480951,1.7521177393857141
8.161293375,0.12731187365476196,-0.3476861208571429,-0.39090223735285695,1.6844591146238097
8.171239375,0.1721895374471429,-0.2830058780190476,-0.20750094930523788,1.6672880528619047
8.181185375,0.2232329474471429,-0.23209201341952376,0.014051193361428734,1.7250792352904762
8.191131375,0.2618308539042858,-0.21199009346238093,0.30685043359952396,1.8657331903380951
8.201077375,0.2670125224185715,-0.22380332071476192,0.6670508071233334,2.075615679909524
8.211024375,0.2286464537138096,-0.2628248118195238,1.0597100771233334,2.320994611766667
8.220970375,0.14530321759761908,-0.323031273405238,1.4352593360757144,2.568425153004762
8.230916375,0.029925577245238127,-0.3743971347433333,1.7517497121709527,2.7582611597666666
8.240862375,-0.08288244327380949,-0.4079752300719047,1.9846397452185713,2.854802682147619
8.250809375,-0.18080649470238092,-0.42282907209571424,2.1351444309328573,2.8646597882428573
8.260755375,-0.25770832144523803,-0.42446301386238094,2.2254694617804764,2.8109374355761902
8.270701375,-0.29098913935047616,-0.41683999881476186,2.2702978923471426,2.7577169433
8.280647375,-0.2596585031719047,-0.3956956943490476,2.2917294134376194,2.7454770199619047
8.290594375,-0.17719669656714285,-0.3726817496347619,2.307202788842381,2.7541988677238094
8.300540375,-0.07688175695761902,-0.36397626879190476,2.3451768348,2.789865068452381
8.310486375,0.00809013232809527,-0.37249069186333333,2.4232659821857143,2.870729826909524
8.320432375,0.061315514375714315,-0.40576114009666664,2.51554838242381,2.9717591468619045
8.330379375,0.08726082143285717,-0.4568545838157143,2.598327497947619,3.061717375338095
8.340325375,0.10039149770428574,-0.5127306740442857,2.6494242272333333,3.117404489433333
8.350271375,0.09329519670904765,-0.5676742656347619,2.6456206413285717,3.1126721742904766
8.360217375,0.08078646231380955,-0.6141559477157142,2.58885464662381,3.0627323066285714
8.370163375,0.0780982153566667,-0.6462799797109524,2.4867292384809523,3.0464483267238096
8.380110375,0.08294591910428574,-0.6605381366395238,2.317655550004762,3.0511850336285713
8.390056375,0.09463313884238098,-0.6493418463438095,2.058469585766667,3.0253661945809522
8.400002375,0.12358583858523813,-0.6046034350390477,1.7013047246238096,2.935972244533333
8.409948375,0.17707113807095243,-0.5293693229438096,1.2626201825285714,2.7920726369619047
8.419895208,0.26169612734714287,-0.4270692710057143,0.7799238988142859,2.627661887057143
8.429841208,0.36996648929000003,-0.3107183737580953,0.3001539516238097,2.4814855087714287
8.439787208,0.4764809915090476,-0.2059197787057143,-0.1265049004714284,2.3975476126285713
8.449733208,0.5556830171471429,-0.1240991610295238,-0.47218619204285694,2.4050220720571427
8.459679208,0.6059687428401905,-0.06191709235333333,-0.7280290802809523,2.4880507745809526
8.469626208,0.6350578967597142,-0.009647348948571433,-0.9051279886999998,2.6170213476285715
8.479572208,0.6399527006125715,0.03475587768,-1.023976600647619,2.7399547875238093
8.489518208,0.6118130640411429,0.07509604817619048,-1.1184725061190472,2.824803066719048
8.499464208,0.5626402523078097,0.12497810195238095,-1.221301473533333,2.8890699390523813
8.509411208,0.5099098423030477,0.1896865019142857,-1.3636278814666665,2.925402832766667
8.519357208,0.46964635731733345,0.2694116863,-1.5640574030857142,2.9084857018619044
8.529303208,0.44891022678876197,0.36031273752857146,-1.8050738407523808,2.8347311645285718
8.539249208,0.4393048907792381,0.4539167477142857,-2.047641572561904,2.727763335290476
8.549196208,0.4285759513792382,0.5420329650190476,-2.2434823107095236,2.6311832484809523
8.559142208,0.423859453236381,0.6192552418190476,-2.350321270780952,2.5944637830047617
8.569088208,0.4164622694935239,0.6854757874380952,-2.372243512485714,2.6169137829523814
8.579034208,0.3872516962292381,0.7387996237238095,-2.3399096072190475,2.6113431794285713
8.588980208,0.33123549035304767,0.7824124599476191,-2.2736967673761903,2.567304216
8.598927208,0.26000978381971435,0.8236244154809523,-2.1833339523571427,2.505099857857143
8.608873208,0.18296142341971433,0.8619989400285714,-2.0690726481095236,2.4322742145714282
8.618819208,0.10621016770542864,0.8965842252190477,-1.9201695982895235,2.3459843615238096
8.628765208,0.039496870610190526,0.9248998890904762,-1.732977254065714,2.245783077761905
8.638712208,-0.011509919456476135,0.9509041973190475,-1.5195867385514283,2.1344099934285716
8.648658208,-0.047306477970761845,0.9725520235999999,-1.299937502608571,2.0141096645238097
8.658604208,-0.06953873696123804,0.9933856529714286,-1.0803045831561904,1.8903252143333336
8.668550208,-0.07477241784952375,1.0178218075857142,-0.8711159324895237,1.7762736022857144
8.678497208,-0.06544775428333328,1.0407362104190476,-0.6800063157371428,1.6801905050952382
8.688443208,-0.049269532707142794,1.0629548642142856,-0.5137827829419046,1.600274012952381
8.698389208,-0.035144593102380904,1.089609884042857,-0.3847227606161903,1.5346345242380954
8.708335208,-0.03505139874999995,1.1216112080333334,-0.29449796773047604,1.491174146047619
8.718281208,-0.05438164981190471,1.1517783718809522,-0.22341581731619028,1.460640692190476
8.728228208,-0.08698031561666661,1.1713883460714285,-0.13037870863714268,1.4231463149523809
8.738174208,-0.12741673545952376,1.160474880004762,0.03403087864857162,1.4210905344761906
8.748120208,-0.18543204693571422,1.1006749739380952,0.2838235693152383,1.5314508465714285
8.758066208,-0.26308925387857135,0.9870823545095239,0.6164110237961906,1.7691304635714284
8.768013208,-0.35104450916428565,0.8389933066999999,1.0072863918200001,2.101626845238095
8.777959208,-0.4278575173690476,0.6817324556285714,1.3963985458961905,2.448540576190476
8.787905208,-0.4793482306619047,0.5337396362952381,1.7192480474390477,2.7289522227142857
8.797851208,-0.4977341807523809,0.40302155243809523,1.9479265816438096,2.8995724803333336
8.807798208,-0.482457252647619,0.2851939339619048,2.083991707529524,2.967726855190476
8.817744208,-0.43633122397619045,0.17709100077142856,2.140396594881905,2.9702774752857146
8.827690208,-0.3675464532809523,0.07568134748571427,2.1393099037749046,2.9599041891428572
8.837636208,-0.29023091341428564,-0.024009920466666664,2.113025527815381,2.953456983857143
8.847582208,-0.21275359362380947,-0.12580543422857143,2.0897355109963334,2.9542455486666666
8.857529208,-0.14766895143333328,-0.22755914041904765,2.072264587505857,2.9574002033333335
8.867475208,-0.10873871169047615,-0.3364648267047619,2.042443035892048,2.95185088152381
8.877421208,-0.10420759116523805,-0.4540235985619048,1.9908614610444286,2.9481910396190476
8.887367208,-0.13418628669857138,-0.5778291458476191,1.9231278439587145,2.955545509333333
8.897314208,-0.18664195416047613,-0.7020273893714285,1.8577532442634763,2.970198076714286
8.907260208,-0.24581867232714277,-0.831506684895238,1.813308697309191,2.9919045677142857
8.917206208,-0.2975688418938095,-0.9718771296095238,1.8003897755187144,3.001833964857143
8.927152208,-0.33664423527952375,-1.1112896542285715,1.8014074137949048,3.0002336847619047
8.937099208,-0.3654952639461905,-1.236067363752381,1.7663341715206193,3.008796609
8.947045208,-0.39389807571761903,-1.325064756447619,1.6347877181920476,2.9974555793333333
8.956991208,-0.41264839435095235,-1.3592537256904762,1.3842248935253811,2.898972835
8.966937208,-0.4204443616842856,-1.336092716547619,1.014041095382524,2.702323994190476
8.976884208,-0.4187099173985714,-1.271941389185714,0.5544464367634765,2.431872456
8.986830208,-0.4167262007795238,-1.1900533545047618,0.07475642938252405,2.1590511943809525
8.996776208,-0.42165026287476187,-1.1109098706142857,-0.3453491975222378,1.9541118233333332
9.006722208,-0.4372769832509523,-1.0425828655571427,-0.6665228592365235,1.8514579397619046
9.016668208,-0.4667273776319047,-0.9794472691638095,-0.8983852580460473,1.845897784857143
9.026615208,-0.5048299335557143,-0.9123291898447619,-1.0643213862650949,1.9075147553809522
9.036561208,-0.5429125958938095,-0.8366193998019048,-1.1931899262161902,1.983396418904762
9.046507208,-0.5812285687723809,-0.7457631633304762,-1.3157408002423807,2.0547734218095237
9.056453208,-0.6323425403904762,-0.6440421876161905,-1.452728895223333,2.119462225142857
9.066400208,-0.6862002822809523,-0.5359428045209524,-1.5885976660566665,2.1811418795714284
9.076346208,-0.7216959954571428,-0.4174128240447619,-1.693839640133333,2.2417311466190477
9.086292208,-0.7362505679347618,-0.2890628486161904,-1.7575755437142855,2.2881590062857144
9.096238208,-0.7344229267109523,-0.15492593952095235,-1.7905661469999994,2.3132230431904763
9.106185208,-0.7279429031014285,-0.022346784378095192,-1.8056910840523808,2.322869245333333
9.116131208,-0.7282267262538095,0.10779096328857148,-1.803299712071428,2.319683834095238
9.126077208,-0.7310038056395237,0.2360275306219048,-1.7929546232333333,2.3142646810952376
9.136023208,-0.7274248920014286,0.3657043019552381,-1.7891403174,2.315662070904762
9.145970208,-0.7239863602680953,0.4975603305742857,-1.7912508838095236,2.330598345904762
9.155916208,-0.7167403305061905,0.6310736480028571,-1.795412291480952,2.3536880680476195
9.165862208,-0.6958269005728571,0.7661953465504762,-1.8004413424333332,2.3783284856190474
9.175808208,-0.651644364572857,0.9043043318838095,-1.799323243433333,2.395491226952381
9.185754208,-0.588618565322381,1.0405022661409524,-1.7754551040523805,2.3979728202380954
9.195701208,-0.518360219717619,1.1613350402695237,-1.7045482030523809,2.372103540714286
9.205647208,-0.45464018977952375,1.2581237782361907,-1.575642602933333,2.325682811
9.215593208,-0.41396367995523803,1.3298268681790477,-1.393018214933333,2.2940409024761905
9.225539208,-0.39694368816476183,1.3772211753285715,-1.1606932735047617,2.2929555092380953
9.235486208,-0.4021444384361904,1.3997579385142858,-0.8868161521238094,2.3175168372857144
9.245432208,-0.4306265678361904,1.4081591135476192,-0.5960616831714284,2.355243135714286
9.255378208,-0.4647412977766666,1.4096575043285715,-0.3329288483619045,2.3696462567619045
9.265324208,-0.4779903471014285,1.4091693522809523,-0.12138694398095216,2.336887557142857
9.275271208,-0.4726217217014285,1.4090185567571427,0.049065685019047844,2.2843288666190475
9.285217208,-0.4569059852961905,1.3923960990857143,0.21529771020952404,2.243985513476191
9.295163208,-0.4363540851295238,1.3393243125857144,0.4297194518285717,2.2669036327619048
9.305109208,-0.4160150488457142,1.2390070096952381,0.7310512833047621,2.3991819810952384
9.315056208,-0.38710906156952374,1.096431635647619,1.1238523065428574,2.6507122036666666
9.325002208,-0.3402323513409523,0.9297743786952382,1.5752841685714287,2.990747597
9.334948208,-0.2842330023314285,0.7494911183619047,2.0258390874952386,3.3487125517142857
9.344894208,-0.2310722694314285,0.5656019427904763,2.412176570685715,3.641522282571428
9.354841208,-0.16043045958857136,0.3880635673619048,2.6792163200714287,3.7994169965238096
9.364787208,-0.06474977944571424,0.22933173783809527,2.8262093629761904,3.8255999519523813
9.374733208,0.03942737143047624,0.09403602197619053,2.8742622266952385,3.7913890289047623
9.384679208,0.13579105162095242,-0.0262276579619047,2.8464239671238096,3.79689549047619
9.394626208,0.21632310479904765,-0.13896398049999995,2.778729999742857,3.830767611428572
9.404572208,0.28969753952761906,-0.24319595947142852,2.7040585220761906,3.8664078906190475
9.414518208,0.37192886754190485,-0.33992108808095234,2.633260045147619,3.894985999047619
9.424463875,0.4632686034938096,-0.43390319037619046,2.55411608792381,3.8993022708571425
9.434409875,0.5510787886557144,-0.5251770294238095,2.435017048052381,3.8579594576666665
9.444356875,0.6278655592414286,-0.6078331376428571,2.259475280976191,3.7746697391904767
9.454302875,0.6888946579223811,-0.6947361272904762,2.054064906166667,3.676246248904762
9.464248875,0.7330436011509525,-0.7930560978761905,1.8777472135761908,3.597109790333333
9.474194875,0.7576702314319048,-0.9023268035428571,1.766734761604762,3.558247400380953
9.484141875,0.7700804628652381,-1.021627050257143,1.7008166492904762,3.543239498476191
9.494087875,0.7758241453838095,-1.1334240384904761,1.6224106942000003,3.5299894164285712
9.504033875,0.7870220536695239,-1.2166765069904761,1.4685809475238099,3.4711557929999994
9.513979875,0.8059125057904762,-1.2511564100047619,1.1908841742904763,3.319875844761905
9.523926875,0.8272809900666667,-1.235572160242857,0.7838313982428573,3.0721393533809525
9.533872875,0.8438071931952381,-1.1898521824333332,0.2784067645285716,2.7597271008095237
9.543818875,0.8467197670142859,-1.1233311804333332,-0.25817434013809504,2.4431908615714284
9.553764875,0.8306191976790477,-1.0517567431714285,-0.7454288904238093,2.2025657613809524
9.563711875,0.7812143410885716,-0.989561420795238,-1.1163144937095235,2.0992736546190476
9.573657875,0.6961883111266667,-0.9462288054095238,-1.3568666346142855,2.117830538666667
9.583603875,0.5951567917314287,-0.9228763486809525,-1.4802624312857142,2.1806543381428574
9.593549875,0.4923569072504762,-0.9105505016190476,-1.5185162804761905,2.1947449006190474
9.603496875,0.39731121732666674,-0.8980630208074761,-1.530474755333333,2.1874695140952376
9.613442875,0.3021724905457144,-0.8792762510455715,-1.5685390989999999,2.1993860988095237
9.623388875,0.19971296883619055,-0.8443611620360476,-1.653770648142857,2.230756676666666
9.633334875,0.10668000366000006,-0.7866893779598572,-1.7752865092999999,2.2690225574285714
9.643281875,0.0345300333280953,-0.7114842304789047,-1.8927396136666663,2.3137169822857144
9.653227875,-0.01737537633380946,-0.6300280962074761,-1.9754209693047617,2.3585486742380954
9.663173875,-0.05743682085285708,-0.547011883059857,-2.014723307733333,2.377556236142857
9.673119875,-0.10004775145761899,-0.46419623635985713,-2.014201067842857,2.3676445383333333
9.683065875,-0.1517858637528571,-0.38452642646461904,-1.9849047911,2.3532532797142856
9.693012875,-0.20309602163857138,-0.3048046947312857,-1.9318990851142854,2.3516471461904764
9.702958875,-0.2462702009528571,-0.21999393628366665,-1.8714088874047614,2.345698284952381
9.712904875,-0.29078231979571423,-0.13003377170271427,-1.826266934685714,2.314524605804762
9.722850875,-0.3430725806623809,-0.03867504362652378,-1.7874058939571427,2.274195414233333
9.732797875,-0.4020537512290476,0.053615278187761926,-1.7564307702428572,2.2400857512333334
9.742743875,-0.45328436610047607,0.1542377987591905,-1.7283364861476187,2.2108724494714287
9.752689875,-0.47954819327190473,0.25866386352109527,-1.677319139766667,2.1690042693285716
9.762635875,-0.47287609124285707,0.35595393059252384,-1.5826752997523807,2.095576142995238
9.772582875,-0.43194967994761896,0.4488216370734763,-1.4359228279899998,2.0053547776142855
9.782528875,-0.36975012531428564,0.5278166991639525,-1.2472590737042857,1.925895594661905
9.792474875,-0.31212212226666664,0.5837693879210952,-1.0318484843709523,1.8641009264238093
9.802420875,-0.2650870134047618,0.6247937870687144,-0.7900372708471427,1.825213344090476
9.812367875,-0.22770875173809518,0.654199003004762,-0.5297391383709522,1.7973159379000003
9.822313875,-0.20223759121904752,0.6823868286428573,-0.2931843489899999,1.749632353995238
9.832259875,-0.19671132592857138,0.7105774943571429,-0.10864416255666652,1.6748581139000003
9.842205875,-0.21440981052380947,0.739046376147619,0.04654857008619062,1.6020705178523809
9.852152875,-0.25441300389666666,0.7620396606952381,0.19545780127666681,1.5482618662333334
9.862098875,-0.3004323139109523,0.7669151665571429,0.373528238514762,1.5259688783285714
9.872044875,-0.3323140675633333,0.7511584657095238,0.5986347365147621,1.5869619043285714
9.881990875,-0.3507399492728571,0.7111911039380953,0.8476871697385716,1.7450346909
9.891937875,-0.3646240723633333,0.6508889916666667,1.0998220044433336,1.962552761661905
9.901883875,-0.3815197307919047,0.5823508951714287,1.3322772552480953,2.184507570090476
9.911829875,-0.4023171700919047,0.5093075468666667,1.539939699105238,2.389078924042857
9.921775875,-0.4287545673157142,0.4363282673333333,1.741127548919524,2.582481746809524
9.931722875,-0.45881654043,0.3623989127000001,1.9418078604242857,2.7486418799523813
9.941668875,-0.49204905835380947,0.2808536710761905,2.1460323642338097,2.8696640761904764
9.951614875,-0.5326563734966666,0.18017354150476195,2.354127418519524,2.954711639952381
9.961560875,-0.5861830768204761,0.06274972893333337,2.549370766138572,3.0364818962857143
9.971507875,-0.6525020331714285,-0.05479649925714282,2.7059299095528573,3.1260843924761907
9.981453875,-0.7252780523761905,-0.17025091387619043,2.809072649695238,3.201444905428571
9.991399875,-0.7914242583047619,-0.2702985557333333,2.8485030978380954,3.2332454529523806
10.00134588,-0.8313542866476189,-0.3447436904761904,2.811217102080952,3.2025203695714284
10.01129188,-0.858268255895238,-0.4057887750333333,2.7028710361047623,3.1284968063809524
10.02123888,-0.8869949711952381,-0.4620534266619047,2.5493246566428573,3.057568119095238
10.03118487,-0.9003132130061903,-0.5239535551285714,2.3939209508809527,3.0283558762380953
10.04113088,-0.8970203152242856,-0.5907736561428572,2.270535567828572,3.044833573190476
10.05107688,-0.8831207196528571,-0.6678537689952381,2.168777866042857,3.0670608627619047
10.06102388,-0.8448629971576189,-0.7527542265142857,2.0766561250428572,3.0681720954761906
10.07096988,-0.788269809895238,-0.8185147563619046,1.9547185682333335,3.0357033701904763
10.08091588,-0.7293623890761904,-0.858918209047619,1.7451501548047623,2.956878974190476
10.09086188,-0.671953212847619,-0.8713720266047619,1.4491493969000002,2.8299695376190477
10.10080888,-0.6213557865904761,-0.8610255734142856,1.0848969307571432,2.674311755
10.11075488,-0.5753480900523809,-0.8394272953095239,0.6857865948047622,2.52088852952381
10.12070088,-0.5279131621380952,-0.8107471341285715,0.2958566101857145,2.3932292679047618
10.13064688,-0.464257798742857,-0.7773139940904761,-0.07380943095714265,2.305227723809524
10.14059388,-0.3775375241238095,-0.7408389793190475,-0.42703491152857126,2.259830366285714
10.15053988,-0.29113032612380946,-0.700956276895238,-0.7557517598619046,2.243231189142857
10.16048588,-0.21230913172857138,-0.6557004983761904,-1.0515837559571426,2.229150737095238
10.17043188,-0.12554163739047614,-0.5991034046904762,-1.3232446990523807,2.2042206677142855
10.18037887,-0.04101684607142851,-0.5349029955233332,-1.5693348771,2.1771001446190477
10.19032488,0.02176414282380958,-0.47105979554714283,-1.7972723741952379,2.1642619514285713
10.20027088,0.05364175644619054,-0.4171393344219047,-2.0059262273857144,2.186134315904762
10.21021688,0.047763808103333395,-0.37506051523238093,-2.1561949918666663,2.2476526718095236
10.22016388,0.019102719536666726,-0.34457444148080946,-2.2319401854142855,2.3069992526190473
10.23010988,-0.017266007296666608,-0.31900370427414276,-2.248158635333333,2.331143404857143
10.24005588,-0.06492656417619042,-0.2847703170741428,-2.2279346199714287,2.3292031975238094
10.25000188,-0.1014055588819047,-0.24267824419795234,-2.2087410510666663,2.320239334
10.25994887,-0.1055685475866666,-0.1832169058503333,-2.2037110255904757,2.3186117113809526
10.26989488,-0.08184676914380946,-0.09990335480747614,-2.210127648685714,2.335224154952381
10.27984088,-0.052584418872857086,-0.019739670997952336,-2.211992715542857,2.3578353664285716
10.28978688,-0.027185309625238036,0.05675086153061909,-2.1842753819333334,2.357802305809524
10.29973388,-0.004083526158571369,0.1258103069210953,-2.1113851610714285,2.3224988877142856
10.30967988,0.01303779344142863,0.188414746435381,-1.980461686809524,2.2547395876904766
10.31962588,0.01898219207952387,0.2469646152401429,-1.7955887659999998,2.1903993004999998
10.32957188,0.006517132555714342,0.3018878042258572,-1.5561065263809524,2.1626875556904763
10.33951788,-0.027078984706190422,0.35051018676395246,-1.2547171694285713,2.1754438095952384
10.34946488,-0.08806231152523804,0.3948545235830001,-0.9161873567619045,2.1981004903571426
10.35941088,-0.1483679773728571,0.44563913685919054,-0.5885208354285713,2.2046550641190477
10.36935688,-0.18157878574428568,0.5115073390068096,-0.3025981435238093,2.1955985309285713
10.37930288,-0.1850661086633333,0.5846226359401429,-0.0687302332857141,2.1735974797380955
10.38924988,-0.15456758522047614,0.6518596573444286,0.11541086676190492,2.1517001112142857
10.39919588,-0.09212164525857139,0.7116359239396667,0.26717724241904783,2.1329461410238095
10.40914188,-0.00023659467142852128,0.7569765984572857,0.41839498218095245,2.111533805452381
10.41908788,0.10779400879047624,0.7717259215010953,0.5970170902761907,2.106042268404762
10.42903563,0.206407140652381,0.7528235717733333,0.8044575627047621,2.154156341261905
10.43898163,0.28628621819523814,0.7009363685095239,1.0357983342285717,2.267955359738095
10.44892763,0.338273227824762,0.614374160157143,1.2765627847238097,2.412521401833333
10.45887363,0.3485332013914286,0.5016748421333335,1.5098987653904763,2.544227357309524
10.46882063,0.3173339979152382,0.36671380978095247,1.7266736493428574,2.6448709348809523
10.47876663,0.25896631164380957,0.21290179963809527,1.9070490311523813,2.7080447795
10.48871262,0.20404994963428577,0.05424336659047626,2.044423627057143,2.7589834727380955
10.49865863,0.1752415395066667,-0.10322712102857136,2.1570998068285716,2.8154942818809525
10.50860563,0.17081442633047625,-0.2578881050761904,2.247398553061905,2.897795243452381
10.51855163,0.1930937684590477,-0.40551753388095235,2.3104425361333334,3.0012751537619047
10.52849763,0.23564094092095245,-0.5512711758857142,2.3386672131809525,3.084100992523809
10.53844363,0.294861568892381,-0.6912907458619046,2.30439863132381,3.1096927409047614
10.54839063,0.36600876784952385,-0.8199573201999998,2.192779795214286,3.06590785652381
10.55833663,0.44317010132571444,-0.9371873671857142,2.018318008905238,2.9740968969047623
10.56828262,0.5254203918828572,-1.0477403811714285,1.8212324542195242,2.8881821445238094
10.57822863,0.6029388770971429,-1.1497403943619047,1.6217030139814286,2.842408092666667
10.58817563,0.6468268892019049,-1.2466653306809523,1.4283505166480954,2.843105845333333
10.59812163,0.6548276065352381,-1.3328277426285713,1.2493505948861905,2.873502305047619
10.60806763,0.6383623275352381,-1.406023146395238,1.0829458262290477,2.918813365761905
10.61801363,0.6026285656780953,-1.4609817806428569,0.916638650371905,2.965459896857143
10.62796063,0.5673667437257143,-1.4808398299242858,0.7110357350861906,3.0058778095714285
10.63790663,0.5520030280114285,-1.4632657309195236,0.4478167791814287,3.0146496077142855
10.64785262,0.5542884192114287,-1.4149430181614286,0.14044455118142873,2.9645237623333336
10.65779863,0.5745279645104762,-1.344378165347143,-0.17633334081857127,2.8746792221904762
10.66774563,0.6177088568104763,-1.2587875136233333,-0.46517373762809505,2.7855832216190475
10.67769163,0.6792875206771429,-1.1660324773995239,-0.719857735580476,2.71627439747619
10.68763763,0.7353387054295238,-1.074603408680476,-0.9308381680566665,2.6676594774285713
10.69758363,0.7764472818533334,-0.9789185972090476,-1.103315186628095,2.6269722327142855
10.70752963,0.7978799723904763,-0.8799819124614284,-1.2597401781995234,2.5856630665238094
10.71747662,0.7976059485428573,-0.7784381213138095,-1.420477407770952,2.536352161809524
10.72742263,0.7846524237619047,-0.6711120046661905,-1.5991667310090474,2.483702621857143
10.73736863,0.771667282252381,-0.5591061107542857,-1.7852940188661903,2.436506218095238
10.74731563,0.7484486536714285,-0.4524737244961904,-1.9519345138185709,2.399201152761905
10.75726163,0.7133033131428571,-0.3612734350438095,-2.082028602280476,2.3702678724285717
10.76720763,0.6816758211333334,-0.2851333177866666,-2.1624009760190477,2.3543443956666668
10.77715363,0.6465870176095239,-0.2235700167819047,-2.196640293952381,2.3365760073809523
10.78709963,0.5967521000714286,-0.1754749278110952,-2.1938630335714286,2.3015972254285715
10.79704662,0.542538790907143,-0.13492817657299996,-2.1604495651904765,2.2482773989047624
10.80699263,0.4796492717895238,-0.10068867763966664,-2.1101188768571424,2.1842769503333335
10.81693863,0.4106066197561905,-0.06859129223966663,-2.0432433804285717,2.108682836238095
10.82688463,0.33640880832285724,-0.03284890574442852,-1.9793668930476191,2.0419492936666668
10.83683163,0.26342992904666673,0.007269216741761942,-1.9333091271428569,1.9954820321428572
10.84677763,0.19736331135619056,0.056229415189380995,-1.9012708960952382,1.9668059066190478
10.85672363,0.1501408322990477,0.1168384227646191,-1.8696040467619044,1.9457453318095237
10.86666963,0.13041354137666675,0.1854045162836667,-1.818586951,1.9153727196190478
10.87661662,0.12333091869571436,0.2458903285598572,-1.7139043605523807,1.8533744021904763
10.88656263,0.11735667228142864,0.29630318422176194,-1.5360279673619046,1.8203927011428571
10.89650863,0.11953070361000005,0.3368608363360477,-1.2955288412190473,1.8560585038571429
10.90645463,0.12177308297190483,0.36762326063128575,-1.018718728647619,1.9490593407619048
10.91640163,0.13203790137190483,0.40293761701700004,-0.7435882148380951,2.0580139784761906
10.92634763,0.1461064971385715,0.4506005828455714,-0.4995252385999998,2.140021605809524
10.93629363,0.15582744443380958,0.5060021019122382,-0.30408670536190463,2.1647184729999998
10.94623963,0.15981804730047625,0.5753488822860476,-0.1641122145999998,2.1438163084285713
10.95618663,0.1610053975290477,0.6564585759803334,-0.08212303008095219,2.1272024342380953
10.96613263,0.1351938559719048,0.7397331177184286,-0.04937750869999982,2.13487659247619
10.97607863,0.0858252399385715,0.8118322381755715,-0.028625935223809344,2.1515255028571425
10.98602463,0.04133197662428577,0.8647694899755715,0.045356823971428754,2.1422362116190476
10.99597163,0.015201058752857202,0.8860871852714286,0.2089352434952383,2.1819367016190476
11.00591763,-0.010252723701904703,0.8723481079476191,0.44777356544761926,2.294029470047619
11.01586363,-0.031493625565238034,0.8349302853380953,0.735950136257143,2.4466700555238097
11.02580963,-0.0403918139319047,0.7881083022619048,1.0245529690666668,2.5976141132857142
11.03575663,-0.020458506113190413,0.7410039543619048,1.2833541586380954,2.6962967808095235
11.04570263,0.01733850842966673,0.6915281150095238,1.5126622708761905,2.72726281447619
11.05564863,0.07040240465347625,0.6319802100380952,1.7225132440190478,2.7156699045714285
11.06559463,0.13517556254871432,0.5575097791142858,1.908457653209524,2.7030097165714286
11.07554163,0.19823736220919055,0.47065302423333333,2.066585855209524,2.724766947285714
11.08548763,0.2578460816996667,0.38095509335714295,2.1715071512857143,2.7974906252380953
11.09543363,0.3077141300091905,0.28995509890000004,2.1997093025714287,2.84150469247619
11.10537963,0.3414501627758572,0.2027772622571429,2.1370695570476195,2.807840754190476
11.11532663,0.3558151740901429,0.11887065039523813,1.995960790009524,2.705315190238095
11.12527263,0.3432185870187143,0.0266276492619048,1.8184782763857146,2.5787090593333333
11.13521863,0.3253410801710953,-0.0759992272380952,1.6485329351095237,2.476746238380952
11.14516463,0.30905796980919054,-0.18781031142857138,1.5139542549809526,2.428953032047619
11.15511163,0.2873846524258572,-0.3149687218095238,1.4265730187714287,2.4258565894761905
11.16505763,0.27110163951919053,-0.4527749397142857,1.3796896260142861,2.429836259857143
11.17500363,0.2955222259287143,-0.5850923205714286,1.3551784043000001,2.430882257142857
11.18494963,0.3459324538191905,-0.7033844725238095,1.3144136493476193,2.447497576904762
11.19489663,0.3858254306587144,-0.8029798043761905,1.1977413988666668,2.510772806904762
11.20484263,0.40639308828585724,-0.875417311547619,0.9799155753428573,2.535730452666667
11.21478863,0.428243419680619,-0.9227910629523809,0.6917783758190478,2.4838247663809523
11.22473463,0.45148938051776194,-0.9539360900428571,0.3721180849142859,2.3746005976666664
11.23468163,0.46020101486061915,-0.9834089805523808,0.06072547848571448,2.2587032006190477
11.24462763,0.44180406295142866,-1.0183298611142857,-0.2060425980857141,2.178304060904762
11.25457363,0.4130643750133334,-1.0516964264380952,-0.41560973065714263,2.1312161265238094
11.26451963,0.382520953304762,-1.0748984148190477,-0.5914573348952379,2.105306527428571
11.27446562,0.35248605487142864,-1.0737689276619047,-0.7615235464666665,2.091467302619048
11.28441263,0.32873568120476193,-1.044047725408095,-0.954521424085714,2.089690326285714
11.29435863,0.3111937001571429,-0.97987887727,-1.1822574706571427,2.1070066865238095
11.30430463,0.2912629783285715,-0.889052545122381,-1.4304051725142855,2.147028419
11.31425063,0.2661349101619048,-0.7814471960747618,-1.6651494968952378,2.2096729392857144
11.32419763,0.24930377473809529,-0.6669894949795238,-1.8585759197142855,2.284051459952381
11.33414363,0.24240107923333343,-0.5481851269319047,-1.9985025189952377,2.3518721249047623
11.34408962,0.2268071780966667,-0.44007247624142853,-2.072890824385714,2.379472281
11.35403563,0.1985771341728572,-0.34070478207,-2.0811107566190477,2.3645156155238096
11.36398263,0.16503473124190482,-0.24572678756999994,-2.047710235680952,2.3334028318333333
11.37392863,0.13561106525333338,-0.15168699275095235,-1.990986340952381,2.292324781809524
11.38387463,0.107614906472381,-0.05535552098428568,-1.9204868795047618,2.241638735185714
11.39382063,0.0889042131628572,0.042161264915714314,-1.8497728252095238,2.182751998090476
11.40376763,0.09287073977095243,0.14001312412047623,-1.7899829290190474,2.1281861769
11.41371363,0.10000381905333339,0.235496986282381,-1.7340134643047618,2.0759958310904763
11.42365983,0.10199996102333338,0.3224451387252381,-1.673233968638095,2.0140037335666667
11.43360583,0.10994228973380957,0.40102364234904764,-1.5859575368238092,1.9290767639333335
11.44355283,0.12158995201380957,0.4689637357680952,-1.4331582644428569,1.8852566631238095
11.45349883,0.12287750019952386,0.521887566834762,-1.2030151419666666,1.9290528762666668
11.46344483,0.10316805372809529,0.556011625025238,-0.9321131674428569,2.0384559258380954
11.47339083,0.06473241882238101,0.5851269861252382,-0.6564328761571426,2.1605086969333334
11.48333783,0.015310319908095282,0.6116973605395238,-0.4214766041571426,2.2252449742666665
11.49328383,-0.03753398552523805,0.6390538374095238,-0.24522264625238077,2.193109629171429
11.50322983,-0.0829782010285714,0.6636811681476191,-0.12122361183333312,2.1016470248380954
11.51317583,-0.10890383986190473,0.6841527991904762,-0.033344638357142624,2.0289092342666666
11.52312283,-0.11747273601428568,0.6884451984285714,0.06321447107142882,1.944361634695238
11.53306883,-0.11190988995238091,0.6647045700952381,0.23771437567142883,1.8293714917333337
11.54301483,-0.10077781287142853,0.5976397631095238,0.5290504476714288,1.8595674968761904
11.55296083,-0.08858380659666662,0.49783742589523816,0.9109113861000002,2.0680614833523814
11.56290783,-0.06825329097761901,0.37669457534285716,1.3317199318904767,2.4032148485904763
11.57285383,-0.04210865651190473,0.24400085655714288,1.7238764805428577,2.7482573993761905
11.58279983,-0.03034698222619044,0.11164548273809528,2.02193094762381,3.012820538257143
11.59274583,-0.02723751560714282,-0.010813882361904741,2.202211465319048,3.1584828929285713
11.60269283,-0.02060184817257139,-0.11861550292857141,2.2906394088333335,3.1960128051666667
11.61263883,-0.014729613920190435,-0.20840381507142855,2.314353766461905,3.1815471065476193
11.62258483,0.01061701656552385,-0.28452824230476187,2.2872763966523815,3.205096251023809
11.63253083,0.06417333186742862,-0.3393057799285714,2.2307326240333336,3.2665585631666674
11.64247783,0.12865902949123814,-0.3865161016523809,2.1691161690761906,3.342952139038095
11.65242383,0.21017342879219053,-0.4304314338238095,2.102958710736667,3.3681714649428574
11.66236983,0.30935333860647624,-0.46632034875714284,2.0128259697366664,3.327232080085714
11.67231583,0.4040358677017143,-0.4993901539619047,1.8978303944509525,3.240965590419048
11.68226283,0.4879668812112382,-0.5406740720238096,1.7818781311652383,3.1463963169428575
11.69220883,0.5542165845969524,-0.5931364742238094,1.70570347359381,3.0878047503714288
11.70215483,0.5978485982921905,-0.6616901633047618,1.6839232635461905,3.079109351085714
11.71210083,0.6204463500288572,-0.7448021524714286,1.7078193581890477,3.074974206461905
11.72204783,0.6269269740193334,-0.8350723587238095,1.7545105167842858,3.024461377952381
11.73199383,0.6267574500098095,-0.9112003778190475,1.765173220831905,2.9993455498095236
11.74193983,0.6198044719288572,-0.954685883952381,1.6517520779461907,3.046754158295238
11.75188583,0.6016263546764762,-0.9561732067857143,1.3749953978033336,2.9911478114857144
11.76183283,0.5789273904193334,-0.9183174416333332,0.9531402004223811,2.812886581057143
11.77177883,0.5507242288907619,-0.8525827509142858,0.44110726632714303,2.5554403554380953
11.78172483,0.5168869487869524,-0.7726896261428571,-0.07335927891095223,2.3060333034857146
11.79167083,0.48982922634885717,-0.6928910731333333,-0.5035503225776189,2.141737077057143
11.80161783,0.46116037586314285,-0.6258475388571428,-0.8091696945299999,2.091116828866667
11.81156383,0.4239688161380953,-0.5718012790904762,-0.9962159141014284,2.1319961245809522
11.82150983,0.38355475580000004,-0.5303111631419047,-1.0822661569680951,2.195027223342857
11.83145583,0.32461650658095237,-0.49738666124619035,-1.0987409098252379,2.2039070559142857
11.84140183,0.24272522811904768,-0.46935345269857137,-1.0949660866347617,2.188210146914286
11.85134883,0.1584517513428572,-0.4322619743319048,-1.1216676753490475,2.1861398505809526
11.86129483,0.07142849178809527,-0.3798421593509524,-1.2069085521999998,2.189740535247619
11.87124083,-0.009920418729333302,-0.3166165367080952,-1.3423800742952379,2.1687903600571428
11.88118683,-0.06399947685790475,-0.24278544314142853,-1.4968315470571427,2.137875922390476
11.89113383,-0.09859412451504758,-0.16288612309380948,-1.6489734810095233,2.1041320295333334
11.90107983,-0.12452310287695235,-0.08800395074619044,-1.7785661846761902,2.0741387232
11.91102583,-0.13866728434838094,-0.017450903727142832,-1.8707054394761904,2.059031165009524
11.92097183,-0.13912693814838092,0.054364821668095274,-1.9226068570190473,2.0707062596333334
11.93091883,-0.12961248283885712,0.1250899438871429,-1.9371695425095237,2.0921770338095236
11.94086483,-0.11668150811980951,0.19352443330142863,-1.9175386018714284,2.0966332349523813
11.95081083,-0.1083105785007619,0.26077358072047624,-1.8663581738428567,2.073304708142857
11.96075683,-0.09880739387219045,0.33203906920619053,-1.7929693803952378,2.0316525474761904
11.97070383,-0.08114433365790474,0.4086053231966667,-1.7016337557666663,1.9748006409523806
11.98064983,-0.05279388059599997,0.48946698357285723,-1.5892071129095233,1.9063375719047617
11.99059583,-0.00860887692457141,0.5704952756585715,-1.4457001242666665,1.8261756946190477
12.00054183,0.04710571355638097,0.6462838917442857,-1.2637421518095235,1.755430840857143
12.01048883,0.11964744734685716,0.7161515058490476,-1.048817299047619,1.718198910428571
12.02043483,0.20806386001352384,0.7790728087490477,-0.8185006255714283,1.717292686142857
12.03038083,0.2990716368278095,0.8297256369242858,-0.5853385856190474,1.743116592857143
12.04032683,0.39444196553733335,0.8758813436952382,-0.35240372390476177,1.7860499505238097
12.05027383,0.485259258856381,0.9118695499190478,-0.12690267804761884,1.8214349206190477
12.06021983,0.5435884657516191,0.940039137809524,0.05688232652380971,1.8223054435238093
12.07016583,0.5579994977873334,0.9652401500000002,0.18122743258571447,1.7890015341904761
12.08011183,0.5269808327476191,0.9832240135238095,0.2721297228285716,1.7591697244761906
12.09005883,0.45793773692380957,0.9878164027761904,0.3732666452380954,1.7520019240000002
12.10000483,0.3734555850571429,0.9722263058095238,0.5035108400952383,1.771320045
12.10995083,0.29509008538095244,0.9357048056714286,0.6729606715714288,1.8380146388571428
12.11989683,0.22262273654285716,0.8802124459285716,0.872723777657143,1.9512131318571428
12.12984383,0.15151816134761906,0.8059891851761904,1.078683428804762,2.0743410876190476
12.13978983,0.0858505047714286,0.7285255924190477,1.2790432850333335,2.1871960465714286
12.14973583,0.036516961590476224,0.6442700131761905,1.4823024413952381,2.297159926095238
12.15968183,0.0111976894581905,0.5485144364761906,1.6995032810809525,2.4142798664761904
12.16962883,0.009470801329619074,0.43726908433333334,1.9236713288238096,2.5380693855714287
12.17957483,0.016504424001047645,0.31291511000000005,2.132166276957143,2.6582515063809526
12.18952083,0.018450020620095264,0.1755498278571429,2.301406054195238,2.76228119
12.19946683,0.009196673071523836,0.03177791861904765,2.4183882349333334,2.849803328952381
12.20941383,-0.004833478991809498,-0.10931276385714282,2.471580662,2.904122248095238
12.21935983,-0.030971131604190454,-0.24602207190476189,2.4586656661904764,2.9071320034761903
12.22930583,-0.0846404687370476,-0.3740838631428571,2.3938019739,2.863098902904762
12.23925183,-0.1614462671370476,-0.4921626474238095,2.2944489534428576,2.794848883904762
12.24919883,-0.24174297160371427,-0.605938507447619,2.168195260511905,2.7104176753333333
12.25914483,-0.30691629830109524,-0.7114592823238095,2.0377788790452382,2.6292807234285713
12.26909083,-0.33679133453442855,-0.8126188696714285,1.940768253211905,2.5875047216190477
12.27903683,-0.3201634942677619,-0.9155963424238094,1.8899046329166669,2.5935149093333334
12.28898383,-0.2616278101772857,-1.016737678104762,1.858938112945238,2.605766610809524
12.29892983,-0.17958562131538094,-1.1081625006,1.7999779645071432,2.6012282648095235
12.30887583,-0.09589979409157141,-1.1810743422714285,1.681845970602381,2.5853241624285714
12.31882183,-0.03203209147109522,-1.2352302791190477,1.487781811459524,2.5525746054761904
12.32876883,0.011610144390809547,-1.2733674902238095,1.2311176956976193,2.499728878809524
12.33871483,0.042314068690809545,-1.2994595624142857,0.9421048059833333,2.452420339238095
12.34866083,0.06370707125271431,-1.3227218884809524,0.6444325240309525,2.4212080438095236
12.35860683,0.08262105624138097,-1.3376884495095236,0.3291876884119048,2.4013784117142856
12.36855383,0.08588502422604764,-1.3393128756285713,-0.010953644730952268,2.382856828
12.37849983,0.07246744979128573,-1.325514769295238,-0.36535193754047607,2.3610883612857143
12.38844583,0.05938783050080955,-1.294554792647619,-0.7061208718261904,2.340948596333333
12.39839183,0.059342438010333357,-1.245524357990476,-1.0185691512547617,2.335074265095238
12.40833883,0.07023259524461907,-1.177465134542857,-1.3062151568261904,2.3491853381904764
12.41828483,0.0751745818627143,-1.1008610824714284,-1.5629029955880949,2.3796080162857143
12.42823025,0.07108316673414287,-1.0160974219595236,-1.7874629181595236,2.428937877952381
12.43817625,0.06767175146223811,-0.9243828559690476,-1.9822951508214284,2.4984327264761905
12.44812325,0.059970021757476205,-0.8288424010928571,-2.1453370465547614,2.570371925
12.45806925,0.03211970575747621,-0.7378801490357143,-2.263950572623809,2.6292804980476188
12.46801525,-0.02642491097371426,-0.6503450336119047,-2.335393913919048,2.670188864952381
12.47796125,-0.10436703219276187,-0.5638903861595237,-2.3607471903904758,2.6878748179999996
12.48790825,-0.19318110946419043,-0.4775039701595237,-2.3486245758390476,2.692233513238095
12.49785425,-0.2880604930927619,-0.39305273192619045,-2.3074852092961904,2.7006352275238097
12.50780025,-0.3703377400022857,-0.3107691401023809,-2.237289246167619,2.706567626904762
12.51774625,-0.420022443288,-0.221642885897619,-2.129702705691428,2.6989066174285714
12.52769325,-0.42295675534752375,-0.12635516996904755,-1.994643105977143,2.666619071095238
12.53763925,-0.3936650624094285,-0.023392663311904725,-1.848742183729524,2.616617786857143
12.54758525,-0.3500579167903809,0.08548343885000004,-1.7029250715676187,2.5451540985714285
12.55753125,-0.30209098624276187,0.1926889636119048,-1.560947408262857,2.462592200904762
12.56747825,-0.2608512668647619,0.2930123573404762,-1.404805087810476,2.371380701761905
12.57742425,-0.22847540782190473,0.37728634139285716,-1.2116989810580951,2.266249930952381
12.58737025,-0.21860115383952378,0.4445980122595238,-0.9744139858199997,2.1686361355238097
12.59731625,-0.23388909419666662,0.49146550616428575,-0.7082123095342855,2.1027913923333337
12.60726325,-0.2678665769585714,0.5233568050547619,-0.4301837764390474,2.059741284285715
12.61720925,-0.3088903043680952,0.5480153626976192,-0.15196607201047602,2.0163997552857142
12.62715525,-0.3306120962133333,0.574832865502381,0.09543287998952399,1.9501499047142854
12.63710125,-0.3185880072438095,0.6078667660190477,0.2953998033276192,1.8532232176190475
12.64704825,-0.28210073768190475,0.6436461152666667,0.44826367348857155,1.759513893
12.65699425,-0.2223248156485714,0.6809355636285714,0.5536223413076192,1.6948956534285715
12.66694025,-0.13209042708666663,0.7221055862857143,0.6380381760361906,1.657768901952381
12.67688625,-0.004939840896190452,0.7458310675285714,0.761162856817143,1.6484759232380952
12.68683325,0.12290659181809525,0.7247984379238096,0.9769197683600003,1.7570604060952382
12.69677925,0.2266246144419048,0.641138620352381,1.296369086137143,2.0108528034761903
12.70672525,0.31232063612285715,0.5125127955476191,1.6924596971800003,2.3649911016190477
12.71667125,0.3744615985171429,0.37005385072380953,2.0879812070800003,2.739205392
12.72661825,0.4012798809504762,0.2224244915190477,2.3831593452704762,3.0339952464285713
12.73656425,0.40270556438476185,0.08786423011428574,2.5388940034133336,3.2003877936666667
12.74651025,0.40171910429904767,-0.031990645923809485,2.58291771788,3.2556336611904766
12.75645625,0.4175844032561905,-0.13801716318095233,2.5556912719485716,3.2678560942380948
12.76640325,0.4532336588942857,-0.2308176684619047,2.495448327929524,3.303289128761905
12.77634925,0.5040849826514286,-0.31510478089999994,2.423410965239048,3.3564748675238087
12.78629525,0.5771307150990476,-0.39486080239999993,2.342190800915238,3.420972277333333
12.79624125,0.681227600732381,-0.4708273687428571,2.2528449280676193,3.475038931857142
12.80618825,0.8022674619752381,-0.5418002040571428,2.1471259604057145,3.498215050238095
12.81613425,0.9168170356704761,-0.6155930540333332,2.024196075467619,3.489044655285715
12.82608025,1.0131528162514285,-0.6989626547904761,1.8868795897580957,3.467948303857143
12.83602625,1.0797682038133334,-0.7916889421904761,1.7602500322200005,3.4703957338095237
12.84597325,1.1108780606180952,-0.8952958398857144,1.6646015848342857,3.505905658047619
12.85591925,1.1187582974657144,-1.0132378132190476,1.6022869722923812,3.543127972809524
12.86586525,1.114080768575238,-1.136370930695238,1.56322161314,3.564717494571428
12.87581125,1.100488519027619,-1.2579889928380952,1.5031837950304763,3.5904478313809522
12.88575825,1.0669289294561906,-1.3588903838380952,1.347676872011429,3.6258399145714284
12.89570425,1.0291182331085715,-1.4116783924190475,1.038668927201905,3.580561891952381
12.90565025,1.0082245949466668,-1.3992568459333332,0.5678481157257144,3.4197392511904767
12.91559625,1.0002273633180954,-1.3348695346666666,-0.019238815321904596,3.164925402238095
12.92554225,0.9964532066252381,-1.2525761835523808,-0.6292263943219046,2.8953779195238094
12.93548925,0.9936314230157144,-1.169253082052381,-1.1553539582266665,2.7098152156666666
12.94543525,0.9739362291300001,-1.0998239812619046,-1.5412723352742854,2.655131146952381
12.95538125,0.9220690874061906,-1.0501419022380953,-1.799231748512381,2.705937376238095
12.96532725,0.8343149624204762,-1.0145526571285712,-1.949833553695238,2.788815363809524
12.97527425,0.722855372482381,-0.987908162295238,-2.02961831007619,2.8283224966190477
12.98522025,0.5960881930680954,-0.9621603101428571,-2.083239727885714,2.832071593857143
12.99516625,0.4570142988395239,-0.9229233909028571,-2.141865721838095,2.817091010714286
13.00511225,0.3205202796919048,-0.8642136981933333,-2.219951639323809,2.788076666714286
13.01505925,0.20749606032000004,-0.7846175562980953,-2.3030431353761904,2.752259063904762
13.02500525,0.12478321324380956,-0.6872731797409524,-2.367600238628571,2.717793781190476
13.03495125,0.06451371618190478,-0.5819986144076191,-2.3912984746333334,2.6744325755238094
13.04489725,0.013208602603809556,-0.4795758196838095,-2.367380912352381,2.612442356804762
13.05484425,-0.03376570087285711,-0.37903884942666666,-2.303553987085714,2.554502391061905
13.06479025,-0.0792024846490476,-0.27875428399809515,-2.213087899095238,2.5016083372619047
13.07473625,-0.12405957877285712,-0.17876046438380952,-2.106215944038095,2.4483536227380953
13.08468225,-0.17095756869190473,-0.07613321198380947,-1.9848304758095234,2.3883991771666664
13.09462925,-0.21673301502047612,0.02530152863523812,-1.8455776985523809,2.315916141690476
13.10457525,-0.267671051577619,0.12413466198761906,-1.6872888095285714,2.236836076404762
13.11452125,-0.32575809760142854,0.22080951845428576,-1.5095507725714283,2.1451060987857145
13.12446725,-0.38567120646333325,0.314167319092381,-1.3229257752999999,2.047121499357143
13.13441425,-0.4435336828790476,0.4096837585971429,-1.1394938311190475,1.9524422575476192
13.14436025,-0.49471510197428564,0.5084246173352381,-0.965443995045238,1.8635571392619046
13.15430625,-0.530917770512381,0.6132619362590477,-0.8068266038642856,1.7824245335
13.16425225,-0.5547466395980952,0.7231946441876191,-0.6597387246928571,1.7125594175952383
13.17419925,-0.5691171848695238,0.8314631788400002,-0.5114168881123808,1.6574739294523808
13.18414525,-0.5702040778457143,0.9303097190495238,-0.3569213384933332,1.616842133214286
13.19409125,-0.5610910582504762,1.0207020207495239,-0.19022983354095227,1.5939048082142857
13.20403725,-0.5314448278314285,1.105317078442857,-0.013140364207618903,1.5906698720714285
13.21398425,-0.4856955077647619,1.1845057947333335,0.16247012155428586,1.6109626390714287
13.22393025,-0.4400629442880952,1.2579688339333335,0.31399762450666685,1.6434112055952381
13.23387625,-0.4019249013309524,1.3309523875190474,0.4081583452923811,1.6805265550238093
13.24382225,-0.37483467768809514,1.4108752634714288,0.4343798776066668,1.7422630893571427
13.25376925,-0.3691550189166667,1.4980874177,0.40538707135904783,1.833901850361905
13.26371525,-0.39955285844476185,1.574661983109524,0.35548164264476206,1.9192411815333332
13.27366125,-0.4647833181971428,1.6291893713,0.3290479399357144,1.9894470533333335
13.28360725,-0.5546776754923809,1.639082971542857,0.38686640559285734,2.081557963142857
13.29355425,-0.6686006625971428,1.5882976482452382,0.5609773589833335,2.263336121904762
13.30350025,-0.7925758347923809,1.4917993219928574,0.8303153425357144,2.5337394362380956
13.31344625,-0.9007641512209523,1.3669134041833335,1.1478271715119048,2.844766683952381
13.32339225,-0.9780806064685714,1.2343479064690477,1.4463715517452382,3.124152890095238
13.33333925,-1.0228875868019047,1.1077484203261907,1.6732327991880953,3.3176328016190473
13.34328525,-1.0456988767542856,0.9831725998499999,1.8238368040547621,3.421283106619048
13.35323125,-1.0615940243257143,0.8518962461357142,1.9159893960761907,3.462958560761905
13.36317725,-1.0809534418495237,0.7063413676595238,1.9787573070333333,3.4798423367619042
13.37312425,-1.094736689992381,0.5486813884690477,2.0250509106380954,3.485519755666667
13.38307025,-1.0998587325638094,0.38276306642142865,2.040987831024286,3.4866174278095237
13.39301625,-1.112170135601905,0.21734330299285717,2.0138888543957143,3.4917132339999997
13.40296225,-1.1342356915209524,0.0501046099928572,1.9377079040909524,3.4969508079047618
13.41290925,-1.1743199258209525,-0.11920310629285708,1.8147578879957147,3.498746786380952
13.42285525,-1.2335967827780951,-0.29107213976904756,1.6577350603766667,3.4975640072380956
13.43280146,-1.296700950397143,-0.4641322510547618,1.5022344857576193,3.4971232039523814
13.44274746,-1.3509099716019048,-0.6423913862928571,1.393986151829048,3.497531003714286
13.45269346,-1.3883586104304761,-0.8329237644833333,1.3420000331814288,3.4862611359047615
13.46264046,-1.399024812342857,-1.030151629245238,1.321014236971905,3.4643632625714287
13.47258646,-1.3755250388380953,-1.222601045007143,1.2988943037052383,3.444724069761905
13.48253246,-1.3184735294714285,-1.393191863197619,1.2398836186142859,3.4298414490476197
13.49247846,-1.236555839352381,-1.5177829560071427,1.095600314661905,3.3836191888095235
13.50242546,-1.1301239081619048,-1.5841232024904761,0.8319122449952383,3.2418909817142856
13.51237146,-1.0092200782238097,-1.600472741380952,0.4598377914238097,3.014889220047619
13.52231746,-0.8922044639619047,-1.5848712284285715,0.02019438947142874,2.752755242952381
13.53226346,-0.7970835746571429,-1.5547852504190476,-0.40477904448095225,2.5190135893333334
13.54221046,-0.7233589421857142,-1.5270288170380955,-0.7534505186238093,2.364443120952381
13.55215646,-0.6598956284761904,-1.4999596681714287,-1.0152601563380952,2.287576794761905
13.56210246,-0.5942794674380951,-1.4668065053571429,-1.2032086291,2.2587638305714286
13.57204846,-0.5239658064571427,-1.422313064533333,-1.3540713036190475,2.251972494809524
13.58199546,-0.45661593726333327,-1.3654047249666665,-1.4882203247761905,2.2528492231904758
13.59194146,-0.4015474258490476,-1.2985713702761903,-1.600259213695238,2.248194469190476
13.60188746,-0.35887286414904757,-1.224206439838095,-1.6827706102571427,2.2326925225714285
