Time (s),Linear Acceleration x (m/s^2),Linear Acceleration y (m/s^2),Linear Acceleration z (m/s^2),Absolute acceleration (m/s^2)
0.2054279167,-0.8567449452766667,2.9390523552857144,0.9718593933338094,8.401643677666666
0.2153739167,-0.32164631844809527,2.1135141319999997,-0.46465985066619053,9.51641057657143
0.2253199167,0.20373402016333333,1.3627628553809525,-1.3179802279995239,10.155071345714285
0.2352659167,0.5627884995442857,0.7488868500952381,-1.8469733034757145,10.445496171523809
0.2452119167,0.6850206376709524,0.3007083231428572,-2.3482734226661903,10.455685580857143
0.2551579167,0.6136098110957142,-0.004139411238095174,-2.913383370951905,10.39418844652381
0.2651039167,0.47492354547666676,-0.11938040251428567,-3.3498831705233334,10.321553338571428
0.2750499167,0.2428437346671429,-0.07990562689523806,-3.5967482578138097,10.378243707619047
0.2849959166,-0.05881891695190477,0.05094233477142861,-3.707574907575714,10.588685470142858
0.2949429167,-0.35546969028523806,0.18739824958095244,-3.7239562720042856,10.845853208
0.3048889167,-0.6397208024280951,0.024764155380952415,-3.6226661525280948,11.05527578595238
0.3148347917,-0.867145610047143,-0.6082308806666665,-3.405652479432857,11.431808434428572
0.3247807916,-0.9929880627138095,-1.6132481351428571,-3.265352493670952,12.044335814190477
0.3347267917,-0.9227609074757143,-2.825625226047619,-3.2043706425757144,12.750037955714287
0.3446727917,-0.5138888538090475,-3.6802790466666666,-3.079806238099524,13.170638079380954
0.3546187917,-0.04540567561857137,-4.117905242761904,-2.8035097476899997,13.33311611861905
0.3645647917,0.30582896723857145,-4.419021061371429,-2.5625366629523807,13.349330710619048
0.3745107917,0.4870837354290477,-4.626153831038095,-2.3366423918619046,13.29043128638095
0.3844567917,0.4675224810666667,-4.727664696847619,-1.971588509147619,13.351928715952381
0.3944037917,0.26387694206666673,-4.7440384320857145,-1.3752974481000002,13.529102098142857
0.4043497917,-0.09175209217142856,-4.5809468628904755,-0.32734339314761923,13.329747591476192
0.4142957916,-0.7219167417428571,-4.169831357842857,1.5700538339952377,12.178423358714285
0.4242417917,-1.501350198552381,-3.6316000294619046,3.095711291138095,11.170206418
0.4341877917,-2.1877166980285714,-3.119131366604762,3.9559000307095236,10.573580922666666
0.4441337917,-2.629419586790476,-2.7068296007,4.431948350471428,10.254211478142858
0.4540797917,-2.8165693716476192,-2.393083128033333,4.827207932995238,10.146734953285714
0.4640257917,-2.786853299647619,-2.1992749934285714,5.311200349519048,10.115883725095237
0.4739717917,-2.553679370342857,-2.212042416647619,5.687865688757142,10.079645046190477
0.4839177917,-2.1601092294380955,-2.406228225695238,5.8533904236190475,9.873912906000001
0.4938647917,-1.6661233088190477,-2.7264826772666666,5.905039102238095,9.51347058895238
0.5038107916,-1.125340917104762,-3.0437975664285712,5.858873845,9.119726670333334
0.5137567917,-0.5641623582476191,-3.030452828114285,5.650600116523809,8.777152019190478
0.5237027917,-0.06007499667619044,-2.541143928209524,5.25539737035238,8.242611474523809
0.5336487917,0.3560370237047619,-1.6529958361142854,4.856857666923809,7.516525420238095
0.5435947917,0.5900933187047619,-0.6046309445904761,4.450831884685714,6.78678419847619
0.5535407917,0.5179936970857144,0.1277740803142859,3.9667624380666666,6.4360499764285715
0.5634867917,0.3553363671809524,0.42557115855238115,3.3729750433523806,6.334663199333333
0.5734327917,0.23066529970476196,0.5539874859714288,2.8911838807809525,6.294846791428571
0.5833787917,0.1733787914666667,0.5493126648761907,2.5130284760666664,6.2443605282380945
0.5933257916,0.19217245955523815,0.43573125263333357,2.1317719170190474,6.015837403190476
0.6032717917,0.2800803350076191,0.3884389724523811,1.7132581823666666,5.650996187857143
0.6132177917,0.4161775440076191,0.45910619330476216,1.2702616250285714,5.254988609761905
0.6231637917,0.5750150410552382,0.6509242976857145,0.8522425352571427,4.9010462636190475
0.6331097917,0.7066699323409524,0.9197994880190477,0.44243944823333325,4.629681293761904
0.6430557917,0.8329168661647619,1.216432079352381,0.013461785328571367,4.449002997238095
0.6530017917,0.9761392415790476,1.5147269226857145,-0.412806612004762,4.349628741571429
0.6629477917,1.1375558619123811,1.7407272929238096,-0.8337710557190476,4.274522936190476
0.6728937917,1.2937909930076192,1.8441803809857145,-1.2302431001,4.197879393238095
0.6828397917,1.411324858512381,1.8228750205285713,-1.6046065297666667,4.158065813809524
0.6927867917,1.5053527082742857,1.7250336445428576,-1.9996255271952383,4.210180940190476
0.7027327917,1.6179738685123808,1.6148938755904763,-2.4624110114333333,4.356162844904762
0.7126787917,1.743158989750476,1.5301938383714289,-2.9576667384809525,4.590578359714286
0.7226247917,1.8627282571314285,1.4284539288285716,-3.4131775068142853,4.887212610142858
0.7325707917,1.9674452765600001,1.2759426178761908,-3.7388928470714284,5.161105149000001
0.7425167917,2.0264534139409527,1.0860050894,-3.8647259302619044,5.299403678666667
0.7524627917,1.9984604119885718,0.8985447755904763,-3.7900225435,5.2524877279523805
0.7624087917,1.8850731481314287,0.6536778350666668,-3.569548328071429,5.074898618952381
0.7723547917,1.7558216155838093,0.36562530878095256,-3.2882576611666665,4.8781616236190475
0.7823007917,1.702051434917143,0.09893408130476208,-3.079983264428572,4.74612047447619
0.7922477917,1.7245817383457143,-0.15006205155238078,-3.036986836095238,4.764526590761905
0.8021937917,1.8018184870000002,-0.3696603331666665,-3.1956123576666666,4.981040813142857
0.8121397917,1.9871167649285713,-0.5940704556523808,-3.5265583612523805,5.3667293507142855
0.8220857917,2.2431923654047616,-0.8426626851285712,-3.903162485723809,5.778849679285715
0.8320317917,2.5169350565476187,-1.1370853073666667,-4.259369071761904,6.124722283761905
0.8419777917,2.7574376492619046,-1.4491685534619048,-4.57555934297619,6.3813334041904755
0.8519237917,2.985591402819048,-1.7570815653666665,-4.842422534261905,6.6139343152857135
0.8618697917,3.183440471595238,-2.1079882629380955,-5.0905662265952385,6.859887103095239
0.8718157917,3.2934307049761906,-2.4841625056999996,-5.286786811023809,7.073675497809525
0.8817627917,3.3657341159761907,-2.883902419747619,-5.279993655119047,7.2571212745238105
0.8917087917,3.4633159034523815,-3.2991590064142855,-4.891855090309524,7.5876448493333335
0.9016547917,3.6483078429761906,-3.6605867383333335,-4.127007624357143,8.09697698909524
0.9116007917,3.9136017251190474,-3.8794814607142856,-3.206334033214285,8.57890406047619
0.9215467917,4.100852179547619,-4.00643353395238,-2.3090983932619045,8.871600300476192
0.9314927917,4.151153186309524,-4.069034298095238,-1.5307201919285713,8.92906839452381
0.9414387917,4.129002569071429,-4.085378574476191,-0.9362015611666666,8.856536294380952
0.9513847917,4.182552163547619,-4.1050156129047615,-0.7168843635476191,8.799153084047619
0.9613307917,4.372006113357143,-4.186245188428571,-0.9407148041666666,9.096553135571428
0.9712777917,4.539078153738095,-4.30611174495238,-1.1633137306904762,9.379171669047619
0.9812237917,4.578983221761904,-4.406879930809524,-1.2095766225,9.493201620904761
0.9911697917,4.504651926723809,-4.495686634666667,-1.0783675813809523,9.587911903714286
1.001115792,4.367440085247619,-4.526597411190475,-0.7452890860952381,9.655771060857143
1.011061792,4.229829686438095,-4.496958487619048,-0.20919820085714289,9.66591566609524
1.021007792,4.041023580309523,-4.409702381809524,0.49654574838095233,9.595423930142857
1.030953792,3.8439248137,-4.310994504142856,1.2771668302380952,9.514141847761906
1.040899792,3.6565120033142855,-4.241469495047619,1.9691091230476192,9.397778734333334
1.050845792,3.525985025980952,-4.2206028985238095,2.506998194142857,9.209661064809525
1.060792792,3.365597578228571,-4.184088289761904,3.224766190571428,9.138724072238094
1.070738792,3.2352464210857144,-4.063549637566666,3.746314159428571,8.846302302
1.080684792,3.0909669874190477,-3.8902854166952388,4.210396027047619,8.557931337047618
1.090630792,2.8683313278619047,-3.6036220774523815,4.5159200197619045,8.367942733
1.100576792,2.513777192814286,-3.1891643039761908,4.469577257761905,8.080184511857142
1.110522792,1.9608457139571427,-2.743095341095238,4.127868425190476,7.615880321285713
1.120468792,1.2529441978142857,-2.3825439397142856,3.7221894107142854,7.125917931666666
1.130414792,0.5531970972428573,-2.0887152275238092,3.4527690647619047,6.81434187195238
1.140360792,-0.0499249873761904,-1.837804771952381,3.3588855576666665,6.73679139147619
1.150307792,-0.5389090605190476,-1.5921760227619046,3.3574519317619047,6.790434762238096
1.160253792,-1.0198117386619048,-1.3142994059047617,3.639844074857143,6.915641677428572
1.170199792,-1.5476823714714287,-0.947762683190476,4.291237931857143,6.774945859333333
1.180145792,-1.948853850947619,-0.4538632178571427,4.867939261190476,6.7161249305714295
1.190091792,-2.2087121126619045,0.05976853990476204,5.218766353142857,6.856792205761906
1.200037792,-2.4365279876714285,0.500393772857143,5.413957744095238,7.03564096647619
1.209983792,-2.6196453516238094,0.8982719334285717,5.487969349571428,7.174045565
1.219929792,-2.752310767147619,1.277636973904762,5.447035582238096,7.23379415442857
1.229875792,-2.8393708520190475,1.652823621952381,5.335166290428571,7.242620513761905
1.239822792,-2.941177663457143,2.0264561635714284,5.172270547238095,7.207889452190476
1.249768792,-3.058377487642857,2.3838622919523806,5.081338798142857,7.202392687619047
1.259714792,-3.287476325261905,2.728036811714286,5.14684785595238,7.338191453095238
1.269660792,-3.621842760319048,3.0098165842857147,4.931139100428571,7.348946966047619
1.279606792,-3.850807891604762,3.249253549804762,4.807624772357143,7.393161995238096
1.289552792,-3.7611582698428574,3.4772900597428573,4.571066599928572,7.498260181142858
1.299498792,-3.5791903709999997,3.569903523738096,4.238837732928571,7.529834803619048
1.309445292,-3.4792023777285714,3.554649029109524,3.591614068404762,7.743790123761905
1.319391292,-3.410467800871428,3.2924308102285713,2.5502466233571432,8.299811375761905
1.329338292,-3.207932470633333,2.7748476990380953,1.1871346054523808,9.167149674904763
1.339284292,-2.7891707009190476,2.2357684410857144,0.22013842521428575,9.578417117952382
1.349230292,-2.296924243442857,1.7437413377047624,-0.38110113445238103,9.643191524619047
1.359176292,-1.8959219434428571,1.3110883378,-0.6661600534,9.557646798333334
1.369122292,-1.578072326395238,1.0585776107047622,-0.8476347952571428,9.313549557809525
1.379068292,-1.385429106795238,0.8716708333285716,-1.0737729926952382,8.989225499238096
1.389014292,-1.3180500397952382,0.6802812741761907,-1.3616642750380952,8.709759062857142
1.398960292,-1.2614260210809523,0.5184163951285716,-1.7393702377047617,8.474412451809522
1.408907292,-1.164478990652381,0.4100660133666669,-2.230543564085714,8.309985456571429
1.418853292,-1.1467760301761902,0.09190742665238122,-2.6900414095142855,8.197603680047619
1.428799292,-1.1639765199380951,-0.5617920431571426,-2.912410547409524,8.28206670109524
1.438745292,-0.995133692052381,-1.3540828032999999,-3.104290172866667,8.438527189809523
1.448691292,-0.5419575568619047,-2.0602036473476186,-3.193998183247619,8.649880992333333
1.458637292,-0.12604345081428564,-2.6923964175857136,-3.0689006797714287,8.932392490952381
1.468583292,0.20340674970952385,-3.160573229490476,-2.9224865947238094,9.058238733714285
1.478529292,0.509057908952381,-3.446155028728571,-2.801916910533333,8.956580131285714
1.488475292,0.4250994100476191,-3.6746792242999997,-2.604556341795238,9.025069069571428
1.498422292,0.01705334523809523,-3.9310210749666665,-2.2194467599857144,9.156865749
1.508368292,-0.3391748198095238,-4.110875664728571,-1.8048518832238096,9.291101829761905
1.518314292,-0.4608247701285714,-4.198375766480952,-1.1338246353190475,9.124280877142857
1.528260292,-0.43799424698571426,-4.073365609242857,-0.03551213155714268,8.576273066714286
1.538206292,-0.5028744541761905,-3.7643508705285713,1.4569436656809525,7.757426710761905
1.548152292,-0.7271453293666666,-3.4814410539571425,2.5075958488714285,7.335060936571428
1.558098292,-0.9596295551761906,-3.316207761052381,3.1738877988238094,7.2483800908095235
1.568044292,-1.0338043814619047,-3.252801139242857,3.5612528048666667,7.357307626619047
1.577990292,-0.9296020980333334,-3.342773889290476,3.796325714866667,7.615702007333333
1.587937292,-0.6266585824904761,-3.4608241613904758,4.0340225489714285,7.966166839380952
1.597883292,-0.2560631960619047,-3.622890323857143,4.241834820790477,8.192274636904763
1.607829292,0.11362737550952383,-3.7588207967142853,4.436056743361904,8.264752076190476
1.617775292,0.3996101545571428,-3.8610837257904755,4.683057110166668,8.137463196380953
1.627721292,0.6091836843,-3.734311356966666,4.902717052080953,7.870062053371428
1.637667292,0.7489150561571429,-3.2106798302523805,4.761184501119049,7.568828319895237
1.647613292,0.6346976826047619,-2.4771935991095235,4.401693798576191,7.420749163847619
1.657559292,0.2104691073190476,-1.737983723633333,3.9495193680047627,7.28568548132381
1.667506292,-0.20183016649047622,-1.000123886728571,3.3921306123380957,7.062402715085713
1.677452292,-0.4554918414428572,-0.406350302633333,2.8867066051,6.927003427133333
1.687398292,-0.5489425814952381,-0.01949962882380924,2.6101964546619048,6.9522984985619045
1.697344292,-0.3785964901857143,0.26928190603333363,2.4639923542809528,6.9215820816095235
1.707290292,-0.025446647519047613,0.587152670509524,2.239956787757143,6.802572322276189
1.717236292,0.3425496654809524,0.8042574209380954,1.9958078852857142,6.643254263657143
1.727182292,0.6697933356238095,0.8956933949195242,1.7740023841363337,6.53747617075238
1.737128292,1.033494813052381,1.0066780587100002,1.478141486060143,6.469919880085714
1.747074292,1.4088542323857143,1.1898723831385718,1.0674444189649048,6.3601735154190475
1.757021292,1.7240894618619047,1.4078034287100003,0.6582083482982382,6.220417697847619
1.766967292,1.947266618861905,1.6357456871052383,0.4228394856315716,6.035381422657143
1.776913292,2.029439698338095,2.0134270636290474,0.2344890028696668,5.873022120514285
1.786859292,1.9023838231190477,2.38484440153381,-0.101638021839857,5.651045833038095
1.796805292,1.6457167210666666,2.658799847724286,-0.5421670263160475,5.442649285371429
1.806751292,1.361738019552381,2.8512656565338097,-1.0073753461255712,5.3738854092285715
1.816697292,1.1062211588190476,2.9038170617100003,-1.4283167350779522,5.437539709847619
1.826643292,1.0105880255761903,2.904830467714762,-1.753827081692238,5.5772171868000004
1.836589292,1.1274284878809522,2.9088070477052383,-1.9842988316541426,5.748602217619047
1.846536292,1.3003622296904762,2.845564175786191,-1.9780165553208096,5.736789731428572
1.856482292,1.490836198452381,2.6447662239061906,-1.7282678857969995,5.491039255523809
1.866428292,1.6672886972142857,2.211020017382381,-1.4653441307493809,5.224008495904762
1.876374292,1.882911331642857,1.5965799785728574,-1.354331630035095,5.136641867523809
1.886320292,2.143316475119047,0.8584696302395242,-1.4134052283684284,5.240768201714286
1.896266292,2.393280969547619,0.10724637176333356,-1.650017042025571,5.496249259761905
1.906212292,2.6006100037619047,-0.573882720808095,-2.062848245406524,5.801984656619048
1.916158292,2.656421941666667,-1.1484851781890473,-2.4889592690731903,6.04324540552381
1.926105292,2.6521922886190477,-1.4193903826176186,-2.809024242982714,6.218623433
1.936051292,2.649166076095238,-1.4538539552038092,-3.0093961764999997,6.309145490666666
1.945997292,2.5905820985238095,-1.4657733372466664,-3.165892058614286,6.319276952428572
1.955943292,2.5353667436666667,-1.558395516360952,-3.3603221699476187,6.364474434523809
1.965889292,2.5656506986666665,-1.7543946305514284,-3.661290221090476,6.5616794408571435
1.975835292,2.701502791,-1.9698633857561902,-4.177551833709524,6.859648444190476
1.985781292,2.9596859716190473,-2.366969992327619,-4.662397526042857,7.156173422952381
1.995727292,3.352718753409524,-2.8394405817561905,-4.825614643333333,7.534350699523809
2.005673292,3.7488391087000004,-3.2982237581847613,-4.7633401538571425,7.8621301803809525
2.015620292,4.078950058547619,-3.708683484041905,-4.518508684652381,8.04437073952381
2.025566292,4.321920492995238,-4.080725026122857,-4.065746775938095,8.170646562571429
2.035512292,4.5157512368571435,-4.491173391670476,-3.4661650133190474,8.462375510047618
2.045458292,4.674580701,-4.869293615627619,-2.7809068397,8.907167407285716
2.055404292,4.850571701285714,-5.119138012422856,-2.1129607962238093,9.406172876857143
2.065350292,5.00954204152381,-5.253821580495237,-1.577142586128571,9.83003934595238
2.075296292,5.150862456904762,-5.220006269209524,-1.1907802105095235,10.083377999047618
2.085242292,5.249091837428571,-5.019782931542856,-0.9479372627476188,10.050116066238095
2.095189292,5.226391206000001,-4.693952463780952,-0.8779441075095236,9.763336505333333
2.105135292,5.0590828789657145,-4.373496338971428,-0.9011813323190474,9.523023243095238
2.115081292,4.807323505156191,-4.190812504304762,-0.7937176947476188,9.295953398619048
2.125027292,4.587979215441905,-4.155579883638095,-0.5059514453666665,9.092644909619048
2.134973292,4.3368466840133335,-4.319742133685715,-0.19823651485714264,9.059836851809523
2.144919292,3.998434330727619,-4.613174237604762,0.05170433314285735,9.162800765047619
2.154865292,3.575725634775238,-4.88128252387619,0.3333004752857145,9.273997644571429
2.164811292,3.0855048337752375,-5.023395731190476,0.7494538020952384,9.31086156752381
2.174757292,2.5395812985371427,-5.000273529428571,1.367431155761905,9.255590134571428
2.184704292,1.9720570906323809,-4.845156058795238,2.1230765241904765,9.168462885904761
2.194650292,1.4018588674895238,-4.541058911938095,2.876461498285715,9.08494162204762
2.204596292,0.8234019951561904,-4.111493492509523,3.5239514200000004,9.02308593204762
2.214542292,0.3154337182038095,-3.5953411393190473,4.073278925761905,8.988729528238096
2.224488292,-0.05163491317714285,-3.0272624483190476,4.571078955604762,9.055243397095238
2.234434292,-0.2683428082342857,-2.323959293985714,4.951253668223809,9.216771824095238
2.244380292,-0.3330141967104761,-1.3331447033190476,5.162172148223809,9.44444041695238
2.254326292,-0.4933141241866666,-0.590299251938095,5.204652002985715,9.44875925742857
2.264272292,-0.7410433742390475,-0.21623805369999985,5.037826847604762,9.213558652142856
2.274219292,-1.0359161607533334,-0.08327376193666651,4.660077392795238,8.744943110952383
2.284165292,-1.3464755111342857,-0.0015350331414284051,4.458129432795238,8.458778242190476
2.294111292,-1.663474692467619,0.0740180654250478,4.502937258890476,8.398418584666668
2.304057292,-1.9202936341342858,0.17654442550600016,4.857301658747619,8.506680784
2.314003167,-2.0690248489095238,0.36934839831552396,5.4415306657,8.534632121285714
2.323949167,-2.170322528004762,0.6685518989821906,6.008897472128571,8.569615216
2.333895167,-2.2907779131,1.0319567137440953,6.422150398985714,8.651581147380952
2.343841167,-2.359287699338095,1.4664417020298095,6.714995164,8.675305120238095
2.353788167,-2.307914048671429,1.9446019664583811,6.9414174526190475,8.637710837333334
2.363734167,-2.130513535290476,2.3665572626012383,7.075755979285715,8.56313173347619
2.373680167,-1.8458940067761902,2.7347896778393337,7.112430551190476,8.482986643095238
2.383626167,-1.5052266330142856,3.076452957696476,7.028609127714287,8.403469937809524
2.393572167,-1.1713630446333332,3.3104349164917144,6.810751311571429,8.231306805714286
2.403518167,-0.8362282367285714,3.444034661348857,6.500760338428573,8.033818691571428
2.413464167,-0.48893584234761905,3.512502465967905,6.093469218761905,7.8254279077142845
2.423410167,-0.17563219182380943,3.533860117253619,5.592017712380953,7.626362538428571
2.433356167,0.02962797222380959,3.4795050966821903,4.922047863809524,7.392625546666666
2.443303167,0.0009201655333334137,3.1716816307155242,3.803906644285714,7.39040296952381
2.453249167,-0.35468742894285704,2.3636831053345713,2.016488665714286,7.880242643809525
2.463195167,-0.7344042908476189,1.5487274794774286,-0.190505126190476,8.963971793333334
2.473141167,-0.8747639529857142,1.1100478935726668,-1.5545769227142858,9.561429278619048
2.483087167,-0.8264433024380952,1.0324978316188573,-2.044838473285714,9.875261345285715
2.493033167,-0.7046068676761903,1.0121326477569526,-2.3195996379999997,9.890312413809525
2.502979167,-0.5791803677952381,0.9082310504285717,-2.4330511863809523,9.808034461999998
2.512925167,-0.5487089260333333,0.6219685239190478,-2.4425309708571428,9.897385339476191
2.522871167,-0.5913027317952381,0.2554272904904764,-2.4773818519047617,10.013730994809524
2.532818167,-0.6443078530809523,0.007194887538095438,-2.648679723761905,9.972923885619046
2.542764167,-0.7205618239857142,-0.16814119674761885,-2.8920866145714283,9.88101597509524
2.552710167,-0.8468635754619046,-0.45330842841428554,-2.999692924238095,9.910362661380953
2.562656167,-1.039223034557143,-0.9150620182714284,-2.956100984857143,10.118209291333333
2.572602167,-1.282383924652381,-1.5111987127952378,-2.8586980387142855,10.453203919285714
2.582548167,-1.503465867642857,-2.1391050006523806,-2.7552417207619047,10.739909129047621
2.592494167,-1.6028948879714287,-2.6944132891761905,-2.689767439952381,10.819604641761906
2.602440167,-1.5798333580190476,-3.0460907611761905,-2.646359687857143,10.81891347447619
2.612387167,-1.5606200199714284,-3.240960416048572,-2.5352014174761903,10.836216304428572
2.622333167,-1.5763465241142858,-3.3768360364295233,-2.365427316095238,10.842750140476191
2.632279167,-1.6139017841142855,-3.502287380000952,-2.0995063618095235,10.83191429657143
2.642225167,-1.5829230406857142,-3.6060066834771427,-1.6502242703809522,10.850324085095238
2.652171167,-1.4060749499857141,-3.6535435443533335,-0.7197029656190476,10.59998014147619
2.662117167,-1.1120848407000001,-3.5704200556866668,0.9858429117619049,9.794220624333335
2.672063167,-0.7727875878904762,-3.3528418199723804,3.167344625095238,8.600249741952382
2.682009167,-0.6964288648285715,-3.35447714697238,4.634772668428572,8.146540757666667
2.691955167,-0.8981750959095238,-3.6452579840676185,5.492913156095239,8.350541708380952
2.701902167,-1.1902022043857143,-3.9368138278580953,6.116967883095238,8.813586244333333
2.711848167,-1.4594932779809522,-4.062877319239047,6.449574605523809,9.209023403476191
2.721794167,-1.581412875457143,-3.943951746762857,6.520590738095238,9.246633738666667
2.731740167,-1.560277404457143,-3.7209535040961907,6.470881845476191,9.08232624404762
2.741686167,-1.4352966085999999,-3.587475993905714,6.424141013428572,8.908155627952382
2.751632167,-1.190426518195238,-3.491836205991429,6.373083655390476,8.654817461233332
2.761578167,-0.8166523625761906,-3.312512766138095,6.112478544104763,8.368725550757143
2.771524167,-0.3047995923380952,-2.9187449754238095,5.672899183104763,8.080054964090477
2.781471167,0.31800346842380955,-2.346008893614286,5.064655522295238,7.893321329519048
2.791417167,0.9308176610428572,-1.7530801486142857,4.371872845390477,7.899045489519047
2.801363167,1.4293477870857143,-1.2552025996619047,3.7428270187714285,8.127157140471427
2.811309167,1.8072844152285714,-0.9029757399952378,3.235971905533334,8.4695056909
2.821255167,2.114042073133333,-0.7114391372657141,2.7645155017238094,8.741556096090475
2.831201167,2.3830916358000005,-0.6315848546942855,2.3796155703904764,8.951630811519047
2.841147167,2.6185768580380953,-0.5819360074085712,2.0778428866761907,9.100916592042855
2.851093167,2.799071411657143,-0.45552950721809504,1.7859883893809527,9.19024527547143
2.861039167,2.92771117232381,-0.17020451213714272,1.4598127966633336,9.219511050709524
2.870986167,3.0480592470380947,0.26677473129142876,1.0327309402823812,9.101184443995239
2.880932167,3.108207138990476,0.6722503461961906,0.5488136745490477,8.77147432680476
2.890878167,3.076587655595238,0.9664776157628574,0.04927629447285729,8.270466861566666
2.900824167,3.0451792114523815,1.283688953524762,-0.5272026736223808,7.8963581665190485
2.910770167,2.972829635261905,1.517128123667619,-1.2331416693842856,7.6573000224714285
2.920716167,2.8872527663095244,1.6885162514771428,-1.8952070011938094,7.531518836661904
2.930662167,2.8572038415476193,1.8815239857961907,-2.441022919812857,7.457963871757143
2.940608167,2.8983088208809527,2.0471798931771428,-2.938112138812857,7.478651799757143
2.950554167,2.9900901843428573,2.138597685124762,-3.3894784424319044,7.651529636947619
2.960501167,3.0837409617952383,2.157751882781905,-3.7888410996795234,7.971201594238096
2.970447167,3.1172463706523814,2.1363659421285712,-4.087314812108095,8.246908061809524
2.980393167,3.0176358499380953,2.0279473706809523,-4.2982876432033335,8.343301287809524
2.990339167,2.787226560795238,1.894345286921905,-4.284976401108095,8.174884023428572
3.000285167,2.4675997869857142,1.7536537047838099,-4.05543178287,7.771724655809524
3.010231167,2.106432012509524,1.5952040173361905,-3.706381130731905,7.255822102952382
3.020177167,1.739430742652381,1.421610486864762,-3.2946135219699992,6.807479742047618
3.030123167,1.4183958826047618,1.1941444145838096,-2.8619924589699997,6.498778622285714
3.040070167,1.1567005440333333,0.9134349052504763,-2.454007553208095,6.3327818920952375
3.050016167,0.8993941533666666,0.5537515926790477,-2.1654592665414283,6.236405786904762
3.059962167,0.6129851958428572,0.04516135996476202,-2.023300673674762,6.177282033619047
3.069908167,0.2980172815809524,-0.6039713787495236,-2.0172523416476187,6.174957427285714
3.079854167,0.01140225843809528,-1.2502128920828572,-2.1156369517904756,6.179191504952381
3.089800167,-0.11085493220952378,-1.711719144701905,-2.277101909152381,6.255109189952381
3.099746167,0.01795867869523814,-1.8791798647923807,-2.438667241933333,6.426772581
3.109692167,0.28636124693333337,-1.948761898125714,-2.597581421028571,6.497609231857142
3.119638167,0.7081451918380953,-2.013986809125714,-2.7666426632666665,6.553847260142856
3.129585167,1.2449721857904763,-2.1815299193161906,-2.989111593695238,6.704226594047619
3.139531167,1.755333512314286,-2.4856789671114288,-3.2566441517428566,6.9780250387619045
3.149477167,2.185855118647619,-2.7867105023019048,-3.3606253826000003,7.198253528809524
3.159423167,2.482375833233333,-3.0732356523447613,-3.2447673708380953,7.2981231587619035
3.169369167,2.6455522497095236,-3.3770955971066665,-2.991022602742857,7.3220877054285705
3.179315167,2.7532297422333336,-3.6492933424495235,-2.633985792171428,7.307851053238096
3.189261167,2.8396247759476188,-3.9090493823352377,-2.248666629457143,7.309426482571428
3.199207167,2.8649702004238096,-4.203792181385714,-1.9205820043619046,7.358185460190477
3.209154167,2.7993436623,-4.47244247667619,-1.7324226420523805,7.435063128476191
3.219100167,2.6899448956476193,-4.77050301375238,-1.453681027047619,7.689594531761904
3.229046167,2.478303574647619,-5.107185022757143,-1.1933886025714284,8.005048852666667
3.238992167,2.1066839509333333,-5.4393079299047615,-1.0590986913333331,8.287082983380952
3.248938167,1.594970831695238,-5.6897651984761906,-0.9970580069523808,8.533516586904762
3.258884167,1.1037859779333334,-5.815830388333333,-0.8661014263333332,8.785972584285714
3.268830167,0.7634847651714286,-5.792404159238095,-0.6359126677142856,8.968416755952381
3.278776167,0.659263701004762,-5.678113925190476,-0.40427741930952366,8.965691367619048
3.288722167,0.7714215042428572,-5.594774562857143,-0.38224416407142836,8.879531893285714
3.298669167,0.911772165842857,-5.572187297857143,-0.5562921902619046,8.995868196571429
3.308615417,0.9464181088904763,-5.595396344666667,-0.7611397009761903,9.184273176571429
3.318561417,0.8374122473095239,-5.604366558190476,-0.6853501382142855,9.116957961952382
3.328507417,0.5958239241190476,-5.52264297647619,-0.05896504530952364,8.94881416195238
3.338453417,0.28454281854761904,-5.3023404673000005,0.9163325664047622,8.909245686238094
3.348399417,-0.05298314554761906,-5.023620013685714,1.8444783699285716,8.734163178285716
3.358345417,-0.3422002979952381,-4.764270912161905,2.4946917297857145,8.467997713095238
3.368291417,-0.583937572052381,-4.461284931209524,2.9288782037857146,8.251495521904761
3.378238417,-0.7724653994619046,-4.0724520513047615,3.266324861547619,8.117343960333333
3.388184417,-0.9237308496999999,-3.652140017685714,3.503884728119048,8.026693994380953
3.398130417,-1.0481808924142857,-3.2137792999714283,3.681080575071429,7.961390667238096
3.408076417,-1.1031304843666667,-2.758511692304762,3.893713402833334,7.97118920557143
3.418022417,-1.058520294147619,-2.3451137127333332,4.201392721,8.105612396619048
3.427968417,-1.0619229351142858,-1.970951051352381,4.338700964904762,8.14496694
3.437914417,-1.0846186451142856,-1.6073145476380952,4.4472134259523814,8.151505597619048
3.447860417,-1.010050830209524,-1.179112921590476,4.649023364047618,8.165854372857144
3.457806417,-0.8463952413523809,-0.720526406447619,4.89794913552381,8.159051407142858
3.467753417,-0.6703250530666667,-0.2643006628761904,5.105337456428571,8.139249051428573
3.477699417,-0.5614934593523808,0.18087593136190483,5.271446773476191,8.162594956666666
3.487645417,-0.5800705228761903,0.6602534746952381,5.444372997428571,8.26391043542857
3.497591417,-0.7610649855904761,1.1893300956952382,5.856210188095238,8.436257884190477
3.507537417,-1.002954572638095,1.7643687832190476,6.481145700571429,8.485919784619048
3.517483417,-1.168418294590476,2.302283860504762,7.100457138238095,8.503812272571428
3.527429417,-1.1970240917238095,2.780979256504762,7.432909201857143,8.646029467809523
3.537375417,-1.1510038315333333,3.1967849245999997,7.253870187238094,8.729250685142857
3.547322417,-1.119879659485714,3.529866134661905,6.698275468519047,8.546230718904761
3.557268417,-1.0648732486333334,3.858621101238095,6.104759412471429,8.488794869190476
3.567214417,-1.0218240805190475,4.200492903952381,5.525430817757143,8.705680436761904
3.577160417,-0.9326367786047618,4.454544400238095,4.83346254642381,9.065282699666668
3.587106417,-0.7843861457666667,4.510786205952381,3.9563025141857144,9.500010429761906
3.597052417,-0.586489582242857,4.306132572190476,2.961781262185714,10.036243872619048
3.606998417,-0.3109662956238094,3.80590427552381,1.978277361995238,10.648774273952382
3.616944417,-0.03621818967142848,3.079643894619047,1.1195788826619046,11.189576823142856
3.626890417,0.1364385472809525,2.5203226898095235,0.4735982387095238,11.35323298095238
3.636837417,0.23931500937619057,2.3467187457142855,-0.05405188443333332,11.126596707666668
3.646783417,0.30559250620476197,2.3390023144285714,-0.6267465345761905,10.755098423380954
3.656729417,0.3440914581095239,2.364866888142857,-1.2406058337190475,10.349940997333333
3.666675417,0.36506916563333347,2.3228078102476193,-1.8691895633380953,9.925646213666667
3.676621417,0.38794631334761914,2.22405443567,-2.4947811891476186,9.515581932095238
3.686567417,0.4091224503476192,2.098541362217619,-3.1510976219571427,9.183629242380952
3.696513417,0.40249225072857153,1.8804343711509526,-3.68070010257619,8.902819390619047
3.706459417,0.40339471277619054,1.5205974717223811,-4.044524747438095,8.611572053714285
3.716405417,0.3991563933000001,1.0412214041033334,-4.261023976961904,8.356477329428571
3.726352417,0.43561460430000015,0.550483973722381,-4.270634989628571,8.182938538
3.736298417,0.5767640373476193,0.03459029019857143,-4.121757305580952,8.133830049238096
3.746244417,0.6864517051666668,-0.4679469048966667,-3.8725328250095234,8.123999095714286
3.756190417,0.6960666020714287,-0.9086859079442856,-3.4757081378142862,8.161276977285715
3.766136417,0.5402815708380954,-1.3809035913728571,-2.92368400757619,8.22664035552381
3.776082417,0.23797513031428577,-1.946613575325238,-2.2663632735761903,8.209386361714285
3.786028417,-0.25034412835238085,-2.466506754325238,-1.5493315527666667,8.108738340761906
3.795974417,-0.8159017923523809,-2.83948825023,-0.6840450158619047,7.9020895721904765
3.805921417,-1.3271428464,-3.0769373572776186,0.38081804551904774,7.585339312190476
3.815867417,-1.7761826960190477,-3.112795407277619,1.4944055370428573,7.225873502666666
3.825813417,-2.107237038419047,-2.922276081087143,2.4408855084238095,6.878641167428572
3.835759417,-2.193739660895238,-2.8551620460871425,2.979366484804762,6.758794243904762
3.845705417,-1.9568967012285712,-3.039675084753809,3.2383096503285715,7.0102448002380955
3.855651417,-1.4799843405333335,-3.2707533440871424,3.4358813174714293,7.373189339761904
3.865597417,-0.9744550625809523,-3.4874608458490477,3.631211510185714,7.66758284504762
3.875543417,-0.5693369074380952,-3.600755661001428,3.8410296554238093,7.827807597095237
3.885490417,-0.3046810957238094,-3.5750670606333337,4.064462610661905,7.852083567666666
3.895436417,-0.1795847060047618,-3.5051875432285713,4.297690891233334,7.759334768285713
3.905382417,-0.16472084714761895,-3.3567434998285717,4.467263333290477,7.764888433238096
3.915328417,-0.3115734872904761,-3.088112973685714,4.521926154104762,7.921881731666666
3.925274417,-0.5129749275285713,-2.7406060700190475,4.4675995899571435,8.081826494809524
3.935220417,-0.7751864012428571,-2.414250132447619,4.257496727104762,8.165177837333333
3.945166417,-1.0348110737190475,-2.0693755338761908,4.036652612628572,8.099593706047619
3.955112417,-1.104464227290476,-1.7652052968761904,3.8120870934380955,7.922658711523809
3.965058417,-0.8991925289095238,-1.5609930722095238,3.514417143438096,7.729871315142857
3.975005417,-0.46386955109999983,-1.3518196799714286,3.1225722583250475,7.550274322761903
3.984951417,0.05342122713809537,-1.047304206638095,2.7220264935631433,7.374103568809525
3.994897417,0.6700057462333335,-0.712061030352381,2.3943716109917146,7.190856866666666
4.004843417,1.2519030784714287,-0.3948232130666666,2.0255237623726665,6.982799623047619
4.014789417,1.6701750046619048,-0.01590932706666659,1.5816932528488574,6.72451519147619
4.024735417,1.9253185519952383,0.369606566622381,1.1035192335631432,6.3768416515714295
4.034681417,2.017032018109524,0.7864217982557142,0.6451310782774288,5.989037089047619
4.044627417,1.9250976838714287,1.2003832266366667,0.2834404722298098,5.721950438761905
4.054574417,1.676403949490476,1.5242408438271429,-0.03192139119876166,5.516253399619048
4.064520417,1.3237979257285715,1.7931992873985716,-0.36847577777019025,5.301646330761905
4.074466417,0.9890729728238098,2.024984920636667,-0.742228688532095,5.141432788047619
4.084412417,0.7956713450142859,2.2012180234938095,-1.1266265111035234,5.103226058904762
4.094358417,0.728064849204762,2.2450727256080953,-1.4865112881035236,5.154077721
4.104304417,0.7663380568142858,2.2143760128461905,-1.7523352899606666,5.231852491142857
4.114250417,0.8948291172238095,2.129029022941429,-1.927619960494,5.163697888714286
4.124196417,1.1410013477333334,2.028865550560476,-2.0441127153511425,4.937192538571429
4.134143417,1.4194953540285715,1.8619304394557146,-2.1153499005225713,4.617571998190476
4.144089417,1.7174787096095236,1.6398659971414287,-2.1440780924163807,4.289547655123809
4.154035417,1.9835575804666667,1.3857939520461906,-2.1871051768497143,4.130238242123809
4.163981417,2.158758336504762,1.1227372703319047,-2.256107974706857,4.148023381314286
4.173927417,2.2544126449809525,0.8503039657128572,-2.3198178364401905,4.270838657123809
4.183873417,2.3460768831238097,0.5362560551414285,-2.3195998536328566,4.417975383219047
4.193819417,2.388591988171429,0.2623409825223809,-2.3112255340090475,4.4774756469809525
4.203765417,2.3557291604571433,-0.017574836906190477,-2.375121762675714,4.495644213409523
4.213712417,2.3099870467428576,-0.2622751874776191,-2.462445417723333,4.5436239948857144
4.223658417,2.2426463137904764,-0.457017484382381,-2.617871899770952,4.647580494695238
4.233604417,2.1625075224095243,-0.5779843198333333,-2.797920533580476,4.7846744060285715
4.243550417,2.0862850394761905,-0.7286107390380953,-3.0218208901995234,4.976956604028571
4.253496417,2.0189109547809525,-0.8972530143714286,-3.2241779325328572,5.152501710695238
4.263442417,1.955720935771429,-1.0353574541809523,-3.3501179362947617,5.255882865457143
4.273388417,1.9648136902476194,-1.1970659897999998,-3.362096208151905,5.264488584076191
4.283334417,2.004253577485714,-1.4030569096095238,-3.268251014247143,5.205099963695238
4.293281417,2.0480030297238097,-1.6510874444190478,-3.102751143961428,5.142963329980952
4.303227417,2.1598630355809525,-1.9046699105142857,-2.95254241086619,5.161484133552381
4.313173208,2.401814060157143,-2.139384581133333,-2.79522201569,5.273876860885714
4.323119208,2.733043638033333,-2.3378898954666667,-2.642958738104286,5.478465132314286
4.333065208,3.0349270881904764,-2.4946838741809523,-2.543876109609047,5.672446385504761
4.343011208,3.227090714276191,-2.5875089238380955,-2.490509393742381,5.7910572948857135
4.352957208,3.268023738504762,-2.6237359052857143,-2.4445998408295235,5.854243176809524
4.362903208,3.134923603409524,-2.660192849380952,-2.3600369068723808,5.905151011285715
4.372850208,2.853099211028572,-2.7377407116666665,-2.218864501777143,6.003015235190476
4.382796208,2.4090826626000004,-2.8168159502380954,-2.05113313999619,6.064300762285715
4.392742208,1.786386494552381,-2.9036820189047616,-1.8999026477380951,6.094068039523809
4.402688208,1.1541290151238097,-3.066304362952381,-1.704426970742857,6.2241992239999995
4.412634208,0.6079677209809526,-3.216411716428571,-1.4368405066952377,6.368839670571429
4.422580208,0.1951163586000002,-3.3282900018571433,-1.1641471680476188,6.405203412714286
4.432526208,-0.061947240352380764,-3.405773684,-0.9192362341428568,6.3201901424285705
4.442473208,-0.19543934073333316,-3.4603557158095235,-0.7293973009047616,6.2066820719999996
4.452419208,-0.21043019555238074,-3.495199134666667,-0.48522342247619027,6.033416263714286
4.462365208,-0.14584012685714268,-3.520352826142857,-0.09220986690476163,5.831329181476191
4.472311208,-0.09520665541904744,-3.5489848313333336,0.40392022771428604,5.713187997047619
4.482257208,-0.1204309868952379,-3.534344739857143,0.8915343817619051,5.6918664929047615
4.492203208,-0.20666994863333313,-3.474124321542857,1.3218712438571432,5.739511091523809
4.502149208,-0.3422177073333331,-3.3482998699476187,1.6937112519523814,5.814532025190476
4.512095208,-0.5214905339476188,-3.148737740971429,2.037774089904762,5.830871765238095
4.522042208,-0.7809578397026188,-2.88839244092381,2.2476143153000003,5.716632983476191
4.531988208,-1.0893435920373808,-2.5916244447809524,2.2772640701428575,5.533999389857143
4.541934208,-1.386771390775476,-2.317438841019048,2.2749057210095236,5.427333969285715
4.551880208,-1.6176050833469047,-2.072619513542857,2.3537872357000005,5.478153903523809
4.561826208,-1.7591487962516663,-1.828679579447619,2.501426284580953,5.671091878571429
4.571772208,-1.7971167374421428,-1.5494746422095236,2.6513280388190474,5.829302744238096
4.581718208,-1.7701148593945237,-1.1926875947333333,2.779145875866667,5.886604721095238
4.591664208,-1.670914889823095,-0.7598182478285714,2.919171710771429,5.879802693761905
4.601611208,-1.4723881078707142,-0.2788151785428571,3.0807038832476197,5.795560493523809
4.611557208,-1.2060162253945235,0.2061657236952381,3.2522927376285717,5.6749916706666665
4.621503208,-0.9199471929992855,0.6739453704571429,3.4589730162952383,5.57286124452381
4.631449208,-0.7030161361707141,1.0800540160761907,3.7445961915523815,5.568110484952381
4.641395208,-0.607090026075476,1.4189856160285717,4.129091439838096,5.673609568
4.651341208,-0.6114865405992855,1.7275849518380952,4.577363828504763,5.832391594523809
4.661287208,-0.6974591303707142,1.9993815225523808,4.96529197712381,6.030682880809524
4.671234208,-0.8301197079897616,2.235060844504762,5.16749507064762,6.201274317095239
4.681180208,-0.9547969045611902,2.4554115514095236,5.187547734790477,6.233387932000001
4.691126208,-1.0503836359373806,2.6435232449809525,5.0817536443142854,6.1674046991904765
4.701072208,-1.1020461651373807,2.8258127824285717,4.902608405314286,6.058021626476191
4.711018208,-1.1346711434135712,2.977508128309524,4.611443183360953,5.898156692761905
4.720964208,-1.1759011139421427,3.0789117116190474,4.182012138456191,5.827394810333333
4.730910208,-1.1974887904966665,3.132964653904762,3.6713075525514283,5.991729457238096
4.740856208,-1.190387079090476,3.102125770285715,3.0780407270752383,6.382452002476191
4.750803208,-1.110048657495238,2.9769782034761905,2.291755920808572,6.959863135476191
4.760749208,-0.8668882407809523,2.7248207874285715,1.3173580006657146,7.62557236852381
4.770695208,-0.4951855169714284,2.382187343095238,0.34392403599904786,8.190890298333333
4.780641208,-0.10381566939999975,2.0755416455714286,-0.41907097609619015,8.480873638142857
4.790587208,0.24558326098095262,1.7858429053333336,-0.8991379896676188,8.476596093666668
4.800533208,0.5044475796000002,1.4874817935714286,-1.2439026884342854,8.325411826333333
4.810479208,0.6788503647428574,1.2186758787619048,-1.5645173006295234,8.106549512428572
4.820426208,0.7726827400000003,0.9662042722857143,-1.9402951578676186,7.858942795142856
4.830372208,0.7604980753476193,0.7298487894285715,-2.442222711105714,7.703402607190476
4.840318208,0.6726409488523812,0.5253663677142857,-2.987563362486666,7.606306995000001
4.850264208,0.5572978644714288,0.28812004761904764,-3.4038635936295236,7.455950913095238
4.860210208,0.4267430780428573,0.005528542333333351,-3.6368482958676185,7.353220008047619
4.870156208,0.3490813969476192,-0.2603778774285714,-3.6817779111533335,7.343439679047619
4.880102208,0.3307418208523812,-0.49852929080952374,-3.60004115929619,7.4150376353333325
4.890048208,0.33857771632857164,-0.7035967403333333,-3.454140849629524,7.527072491476192
4.899995208,0.3069620579904764,-0.877410794357143,-3.300680368534285,7.6344191925714275
4.909941208,0.23302547611904784,-1.0818938007857142,-3.1202528908199993,7.765629014523809
4.919887208,0.12157183080952401,-1.3382318368333332,-2.841167570914285,7.980370245476189
4.929833208,-0.047410160809523566,-1.6520362248333333,-2.4342974229142853,8.163890198619047
4.939779208,-0.268794780738095,-2.006141293690476,-1.8274102882476186,8.223607904476191
4.949725208,-0.48186900019047596,-2.3236095191190476,-0.946722129485714,8.112487527047618
4.959671208,-0.6949373793809521,-2.5983889494047623,0.17166386565714328,7.802026886428572
4.969618208,-0.9979025330476189,-2.726361723785714,1.3881443379428575,7.336037687428571
4.979564208,-1.3694155982380949,-2.7520856580238098,2.4886426702285718,6.868240732666668
4.989510208,-1.7291022938571425,-2.822609928404762,3.296788962752381,6.628111875428571
4.999456208,-1.99144442147619,-2.9164102658333335,3.824445239419048,6.687422477999999
5.009402208,-2.0957774319523805,-2.9994284211190476,4.215456374233334,6.886579402952381
5.019348208,-2.0868727977619046,-3.1340576100714284,4.488129052714286,7.115938734000001
5.029294208,-2.0181432119238094,-3.2796807895476188,4.723494977857143,7.3193740206190485
5.039240208,-1.8761052248571428,-3.4052393042142857,5.020739744809524,7.369848423333333
5.049187208,-1.6634243454761903,-3.513331628833334,5.326680435190477,7.320210790857142
5.059133208,-1.4270804456666664,-3.5462580241190476,5.440326723704762,7.265158579190476
5.069079208,-1.1879546320761902,-3.4751269519761907,5.322702685752382,7.083379899952381
5.079025208,-1.0120030482952378,-3.3543358114476196,5.000376551785714,6.790301015809523
5.088971208,-0.9179127429695237,-3.208416456538095,4.526809692928572,6.541783615380952
5.098917208,-0.8848967199742855,-3.030172245633333,3.974142118404762,6.423901627095238
5.108863208,-0.8593225753933331,-2.8205807774666667,3.414740862452381,6.450306158190477
5.118810208,-0.7951376682838094,-2.5303513328,2.9204820995952385,6.473254474619047
5.128756208,-0.6578582183838093,-2.149340997180952,2.5391349086904764,6.3971483372857145
5.138702208,-0.43539147024523783,-1.6856964177523808,2.309550198776191,6.280212706952382
5.148648208,-0.15533089048333315,-1.1862731434666667,2.127919698204762,6.162322259952382
5.158594208,0.12543018575476209,-0.7065761750857142,1.891404976157143,6.033684454714286
5.168540208,0.39699453842142873,-0.20514841956190472,1.5976266613952383,5.894102849523809
5.178486208,0.6882917681833336,0.25179057296190477,1.2555384281857145,5.774618568714286
5.188433208,0.9846977381357144,0.667397519247619,0.8789156761380955,5.710373916238095
5.198379208,1.2667522880404765,1.1031470375333334,0.474914784709524,5.678149690476191
5.208325208,1.488567781659524,1.5358064972476193,0.03178577399523834,5.592781173
5.218271208,1.6035436713261906,1.8980761447238095,-0.4169963944333331,5.436123806142858
5.228217208,1.6514129394690478,2.2138377350095237,-0.7735173379095235,5.258936033476191
5.238163208,1.697794550659524,2.4523784337047623,-1.0701036666238093,5.131832019190476
5.248109208,1.7623254458500002,2.586973680942857,-1.3371639926238092,5.108657869190476
5.258056208,1.8334452342309524,2.6050164342761906,-1.6005760180047615,5.186134255904761
5.268002208,1.9408992099928575,2.539951235847619,-1.8188871882809523,5.3579654951428575
5.277948208,2.0934601630690475,2.342580726847619,-2.0048596084238093,5.658457602333334
5.287894208,2.278988964002381,2.0266280161761907,-2.159294360933333,6.043465833857143
5.297840208,2.474376276676667,1.6789947569809525,-2.213977827980952,6.320944956714286
5.307786208,2.666020536014762,1.318941343457143,-2.134879158838095,6.424340520142856
5.317732292,2.871971907052857,0.9380681667904763,-1.933137911790476,6.386205416190476
5.327679292,3.1010755268480956,0.5444657409333333,-1.7163746944190474,6.328498466
5.337625292,3.3497229881385717,0.16805950293333338,-1.5686966641285711,6.326253143952381
5.347571292,3.5905962072857145,-0.2119449723523809,-1.5423288435285714,6.327024826761904
5.357517292,3.7637184521904765,-0.6349950621619048,-1.6675744068619045,6.274327953857143
5.367463292,3.853044709,-1.0810890288761903,-1.950543809338095,6.254614083619047
5.377409292,3.857789473904763,-1.5414777950666665,-2.3276252058142854,6.320361658904762
5.387355292,3.760195316809524,-2.0174708864476187,-2.7097341496999996,6.456963805761905
5.397302292,3.6031439979476194,-2.286996788395238,-3.047607514985714,6.544452804666667
5.407248292,3.4419977556619044,-2.4237168302999996,-3.3186186932238093,6.602725332809525
5.417194292,3.4584875999,-2.885376502728571,-3.4460519366047615,6.702325089857143
5.427140292,3.5907461048523808,-3.2326573419190474,-3.4575921266999994,6.828691629809524
5.437086292,3.7894814375190475,-3.471737682966667,-3.4272232757,7.026828963619047
5.447032292,4.0268849641380955,-3.667192671947619,-3.412438674461905,7.2835552982380944
5.456978292,4.264195951661906,-3.809756254090476,-3.430006494652381,7.533723448761905
5.466925292,4.402139509519047,-3.901758127185714,-3.443052106128571,7.680334518285714
5.476871292,4.354531048090476,-3.913682493280952,-3.313737785604762,7.608998531904762
5.486817292,4.227303209042857,-3.778578928090476,-2.901488978842857,7.486936466571429
5.496763292,4.1005496209476195,-3.4920460096285715,-2.2860070497476186,7.473119727380952
5.506709292,4.025772879471428,-3.2431751742476185,-1.6488259084619044,7.542431503666666
5.516655292,3.987437266757143,-3.143913565247619,-1.1133738593666662,7.658263611761904
5.526602292,3.9224156996619053,-3.1713396796285713,-0.7043334476999996,7.803086138571429
5.536548292,3.7897485996142857,-3.346656412438095,-0.43812094011904723,7.9803225870952375
5.546494292,3.569772608747619,-3.674514416152381,-0.31864397521904725,8.199308718619047
5.556440292,3.246070972985714,-4.134153791866667,-0.36269969625666626,8.505094124523808
5.566386292,2.863410580985714,-4.639424560295238,-0.4998079375899996,8.93750278742857
5.576332292,2.484928567509524,-5.117129354438095,-0.4563131315899996,9.330175437
5.586278292,2.180197707795238,-5.505011059438095,-0.1404240302614282,9.54936901752381
5.596225292,1.9734591866523812,-5.712643905247619,0.3994509780242861,9.58886435
5.606171292,1.8052184828000002,-5.921226366728571,1.12061422983381,9.612136353904763
5.616117292,1.6002757877523812,-6.129553611157142,1.8654673087861906,9.630117305523811
5.626063292,1.2251250304666665,-5.769789690490477,2.493870637738572,9.650736335857143
5.636009292,0.7969305324666668,-5.425877738538095,2.9465888593576195,9.664289546142857
5.645955292,0.33800455170476207,-5.157550181680953,3.294555938881429,9.594658558047618
5.655901292,-0.14320057367619035,-4.884611399204762,3.6535884285480957,9.430839669190476
5.665848292,-0.6286172118190475,-4.581990395871428,4.090936297119525,9.246977404190476
5.675794292,-1.0121247679619045,-4.21987503134762,4.568531358548095,9.133557450666666
5.685740292,-1.2022253850095237,-3.863015896061905,4.898375104548096,9.188623297095237
5.695686292,-1.3250105792476188,-3.5536354001095236,4.931672881548096,9.229375508809524
5.705632292,-1.4928478809142856,-3.3054599657142854,4.772009507024286,9.144629182380951
5.715578292,-1.7717792658666665,-3.012939916095238,4.601626543452857,9.070023274809525
5.725525292,-2.1484041757714287,-2.620788267952381,4.535944575119524,9.090796437857144
5.735471292,-2.548259516580952,-2.147815179952381,4.561516732405239,9.18309460047619
5.745417292,-2.9338999837714286,-1.5785048425714285,4.670194112738573,9.282704231714286
5.755363292,-3.2632809017619047,-0.9129053422380952,4.877381400690953,9.32834710647619
5.765309292,-3.4601939914285715,-0.14114151147619047,5.240098986614287,9.253938376
5.775255292,-3.5173690267142854,0.7013998578571429,5.7476803101380955,9.024960123000001
5.785201292,-3.4977364432857136,1.5534372724285714,6.192442267185715,8.760222607666666
5.795148292,-3.450152790761905,2.3601436186190474,6.4699416690476195,8.56017636247619
5.805094292,-3.403668679285714,3.061717305809524,6.5478510841428585,8.461485024904762
5.815040292,-3.366795253380952,3.6295881979047624,6.430045726857143,8.427818077809523
5.824986292,-3.271668454238095,4.113184730095237,6.259226421761905,8.43528956995238
5.834932292,-3.125517528704762,4.371463122904761,6.054209160809524,8.412759102619047
5.844878292,-2.9869083523523807,4.541196071047619,5.817623464714286,8.357386453428571
5.854825292,-2.833276777590476,4.695734862238095,5.505115543704762,8.299954752285714
5.864771292,-2.649912598447619,4.788191036142857,5.077755137085715,8.271826650666666
5.874717292,-2.422959069447619,4.709577588399999,4.293337987276191,8.508957757095239
5.884663292,-2.1029159947333333,4.340145352352382,2.911124257514286,9.340175069095238
5.894609292,-1.6682804058761902,3.512702552019048,1.230214064276191,10.639373505238094
5.904555292,-1.115439294447619,2.4367893946857144,0.05831933527619086,11.716411835095238
5.914502292,-0.6401461356857142,1.3422916422095237,-0.500711847580952,12.39413374552381
5.924448292,-0.34226488539999994,0.45881514135238083,-0.8074437080095236,12.65974472642857
5.934394292,-0.16062036197142854,-0.16579184112380962,-1.1094432636857139,12.581200407428572
5.944340292,-0.1084187873523809,-0.5835462190761905,-1.470334026338571,12.365764680952381
5.954286292,-0.13729350768571424,-0.7748610730809524,-1.8891205631957138,12.187136844285714
5.964232292,-0.18937721916190467,-0.7720408774142858,-2.355230746338571,12.094776769000001
5.974178292,-0.29487056782857135,-0.6243063797,-2.9036847615766663,12.142618703285715
5.984125292,-0.4693512462095238,-0.4138245477000002,-3.3879849087195235,12.283050129142856
5.994071292,-0.7207938262571428,-0.2795149787000001,-3.6741093852576188,12.423845855904764
6.004017292,-0.9946727992571428,-0.40208999336666684,-3.7382431501147617,12.508672079666667
6.013963292,-1.1731077964476189,-0.8366444521285716,-3.6943403615909522,12.557536984666667
6.023909292,-1.220558807638095,-1.625575067795238,-3.6265686819242857,12.724083304285713
6.033855292,-1.126902729390476,-2.735419478414286,-3.4315395372576183,13.145933464428573
6.043802292,-0.9708583149714285,-3.868563539509524,-3.1161248121147613,13.660842619809525
6.053748292,-0.733422137895238,-4.649995630176191,-2.7727221804480946,14.013507388238095
6.063694292,-0.47556925532380945,-5.06779583917619,-2.350038349057619,14.27232887504762
6.073640292,-0.19188336008571427,-4.987898008795238,-1.7854084293433328,14.615497663476189
6.083586292,-0.07521628860952376,-4.864919953909523,-0.92770478448619,14.528719337285715
6.093532292,-0.1544804896571428,-4.601366063933334,0.4719225103233339,13.720604192809525
6.103479292,-0.3925808094666666,-4.02457404712381,2.168549629418572,12.444666114047621
6.113425292,-0.7479062617047617,-3.335962049790476,3.3734456259423817,11.444522284476191
6.123371292,-0.9931990744666666,-2.7180983549333333,3.96252467551381,10.845826091809524
6.133317292,-0.9870826641333332,-2.332489323504762,4.275806670466191,10.600480561476191
6.143263292,-0.7685198304190474,-2.132949413980952,4.544910821094762,10.597861141428572
6.153209292,-0.32688943327619036,-2.0085951751714286,4.859663599604763,10.672276684857142
6.163156292,0.2209519051523811,-2.0055479404999996,5.224623147271428,10.683723106190476
6.173102292,0.7554475307714288,-2.1297780513095237,5.611575284176191,10.588122123333333
6.183048292,1.2666000691047623,-2.3939411098333334,6.0296022259380955,10.319214061666667
6.192994292,1.7500460145809527,-2.800072754495238,6.324711116414286,9.891643544999999
6.202940292,2.2063104123809527,-3.1772187488190475,6.309098632966667,9.36374896684762
6.212886292,2.4932367092380954,-3.289448730304762,5.826087741204763,9.174322600514285
6.222833292,2.523190324380953,-3.080736321447619,5.157018865014286,9.205591308990476
6.232779292,2.432143273761905,-2.5263664553523806,4.6545844138714285,8.978809341085716
6.242725292,2.208756462752381,-1.716065797638095,4.229762983138095,8.332913405942858
6.252671292,1.9314639548476196,-0.8762372024476189,3.8113784423285715,7.582523269609523
6.262617292,1.6097708863714288,-0.27956857835238086,3.427857618566667,7.059793658561905
6.272563292,1.242388948657143,0.006983552361904854,3.012331363857143,6.679372221847619
6.282510292,0.7910913150380955,-0.11146928663809516,2.5509445058095244,6.244605236228572
6.292456292,0.43711285232380975,-0.1391414017809523,2.125266788666667,5.965141337704761
6.302402292,0.19508548675238124,-0.06354584128095232,1.7459753395714288,5.767082401942857
6.312348583,0.037372938276190794,0.13687120629047622,1.3860392045238101,5.5519895419428575
6.322294583,-0.06317030729523776,0.44196872819523814,1.0222772989047624,5.292859475609524
6.332240583,-0.1263862541999997,0.7852396861000001,0.6265664784285719,5.0269323313714285
6.342187583,-0.16782894505714255,1.111544196004762,0.18728501914285758,4.790914767133333
6.352133583,-0.203905569533333,1.3525556217666665,-0.2926115620476186,4.617501779276191
6.362079583,-0.24475108562857115,1.4747178787190476,-0.7971965912857137,4.490997937657143
6.372025583,-0.25690974410476164,1.5297127796238097,-1.28293871747619,4.388228562276191
6.381971583,-0.22095071829523785,1.5738847627666666,-1.7329241732380947,4.331097876704762
6.391917583,-0.17125911667619023,1.6165314022904762,-2.086117271380952,4.297831316466667
6.401864583,-0.12591382700952355,1.6759057841904763,-2.2761065407428567,4.276690197942857
6.411810583,-0.11382583458571403,1.6492726635619048,-2.2602744456190473,4.309422085761905
6.421756583,0.06643271427142883,1.5211448823333336,-1.9870446109904758,4.153007259857143
6.431702583,0.5318445032238098,1.3940192581904762,-1.7696382277047618,3.976921555761905
6.441648583,1.0749139289380956,1.252911966857143,-1.8634529325619043,4.103169548809524
6.451595583,1.5913518768904762,1.135348907,-2.1794123849238094,4.39630481252381
6.461541583,2.0027076607000005,1.0002517737619048,-2.521710254780952,4.610552777238095
6.471487583,2.259243270033334,0.7786155704285714,-2.749105213733333,4.709232646666667
6.481433583,2.424496986461905,0.5332006344285715,-2.8381116974523803,4.75364507552381
6.491379583,2.55585064522381,0.25821830576190474,-2.814053440028571,4.749861119428571
6.501325583,2.683503216633334,-0.018240055047619046,-2.693293317595238,4.758285619476191
6.511272583,2.807757596876191,-0.2773500054761905,-2.5681001634047615,4.793314015
6.521218583,2.9614411353047623,-0.5078902652857143,-2.578354397642857,4.881799976380953
6.531164583,3.186345594590476,-0.7006614101428571,-2.801517984261904,5.1733321332380955
6.541110583,3.4667189447333335,-0.8980393256190476,-3.1383272676428566,5.607497503
6.551056583,3.7221748517333335,-1.1279610335714285,-3.4513188369761902,6.02647151852381
6.561002583,3.9835478694952378,-1.4132890914761904,-3.6959975528809514,6.422941372904761
6.570949583,4.154780558828572,-1.7306149232857144,-3.8223617025,6.693355553761904
6.580895583,4.246654280447619,-2.076766581571429,-3.791480217738095,6.8293432566190475
6.590841583,4.346645552352381,-2.456076992333333,-3.6874395123571424,6.935282588190476
6.600787583,4.516824378495238,-2.8124451842380953,-3.5477114399761907,7.10407152742857
6.610733583,4.749377570114286,-3.100901446857143,-3.4409113987095234,7.382774899428571
6.620680583,5.038714679223809,-3.246711987857143,-3.3707108483238093,7.702516799523809
6.630626583,5.259060986842857,-3.3426295185238097,-3.226405881809523,7.95160174547619
6.640572583,5.264416897128572,-3.5397986327142856,-2.7728250009999993,8.122353207809525
6.650518583,5.094189372033334,-3.8119071662857142,-2.0207161678095233,8.225190432190477
6.660464583,4.849981329128572,-4.063971583809524,-1.213645846380952,8.293178457904762
6.670410583,4.646659036795238,-4.237568427714286,-0.5388123673333328,8.383421781428572
6.680357583,4.547160302319048,-4.347784767380952,-0.026873294999999516,8.526198174190474
6.690303583,4.543997974938096,-4.422735268619047,0.3616776934285719,8.691423711
6.700249583,4.565381294795238,-4.478385169047619,0.6319683972428576,8.844109496142858
6.710195583,4.5661078096,-4.498466512333334,0.7783164226666672,8.933595166761904
6.720141583,4.484191830119047,-4.511815315809524,0.8439972563809528,8.970994419523809
6.730087583,4.253318863738095,-4.564649141523809,0.9349187867476194,8.975552306619047
6.740034583,3.872710517261905,-4.636058624666667,1.203759144428572,8.772321090380952
6.749980583,3.4407287428809523,-4.649651869619047,1.7137038429047622,8.357603215380951
6.759926583,3.0460743889809523,-4.593692484428571,2.3072987250000003,7.934198521571429
6.769872583,2.620972817471429,-4.446482704714286,2.8804189271428577,7.498219689857143
6.779818583,2.2548352925380954,-4.249534364714286,3.393498401428572,7.185477417095239
6.789765583,1.9547569613857145,-4.024084273190477,3.804592216047619,7.054386826857144
6.799711583,1.637389482052381,-3.767893085785714,4.139865491619048,6.942427385857144
6.809657583,1.2421143765761906,-3.4934347233333334,4.407602618904763,6.823396843857143
6.819603583,0.8265580818142859,-3.196988574666667,4.627046589714286,6.697180229952382
6.829549583,0.4570805785761906,-2.893162710809524,4.805384411761905,6.606143580619048
6.839495583,0.12597443957619062,-2.5572152512857143,4.911380453904762,6.512259222000001
6.849442583,-0.1757110857571427,-2.166936522,4.877172265428571,6.346808266333333
6.859388583,-0.43128127099523794,-1.7211205486190475,4.711842020095239,6.095765153285715
6.869334583,-0.638619793042857,-1.2723084062857144,4.529110099,5.871532355047619
6.879280583,-0.819864078042857,-0.8595796544761904,4.4244275920476195,5.763109707952381
6.889226583,-1.032443160138095,-0.47906744595238093,4.431509600428572,5.774045259238095
6.899173583,-1.3062336174238094,-0.10881356476190478,4.537046385571428,5.879878808142858
6.909119583,-1.5726820183761903,0.28881901276190475,4.708833140333334,6.051078991380953
6.919065583,-1.7927475900190473,0.6983534584761903,4.918843283047619,6.274640389714286
6.929011583,-1.9373911729714284,1.1067615355714284,5.166508575714286,6.522077787047619
6.938957583,-1.995356250590476,1.5277808873809524,5.479238245442857,6.732803771
6.948903583,-1.9988014370190474,1.9404815725714286,5.794802171952382,6.90453084995238
6.958850583,-1.985743887495238,2.3219254931428575,5.984069748714286,7.087159378476191
6.968796583,-1.9991684264047618,2.661820575,6.067862103142858,7.22314278652381
6.978742583,-2.0250621805142854,2.951109731714286,6.096854644857142,7.320778293571429
6.988688583,-2.036611412928571,3.213276439380952,6.058180325238096,7.371437058523808
6.998634583,-2.050319788890476,3.454447327095238,5.950529117333334,7.366047071238095
7.008580583,-2.084434651652381,3.625738196214286,5.814705035904762,7.3214322089047625
7.018527583,-2.1030204859857142,3.695693031285715,5.629953096714287,7.193831392857143
7.028473583,-2.0778046086190476,3.703248051571429,5.368894714852381,6.985182619571429
7.038419583,-2.0029635582142853,3.6519085236190483,4.968564134614287,6.827868074761905
7.048365583,-1.884780366357143,3.472098289142857,4.360540997328572,6.896653164238095
7.058311583,-1.6910430944523807,3.129925800333333,3.325976119376191,7.429035300523809
7.068258583,-1.345612049833333,2.547461928571429,1.8638797340904765,8.426066442142858
7.078204583,-0.869050678690476,1.865321379238095,0.6078366388047625,9.269410824190476
7.088150583,-0.4056238733095236,1.329126886904762,-0.22551797500476134,9.63092851747619
7.098096583,-0.027099815595237924,0.9442024808095238,-0.7948790300047615,9.602141345095239
7.108042583,0.2752065796428574,0.6585415214285715,-1.2053578707047614,9.31080745
7.117988583,0.4741114519714288,0.43422294963809527,-1.5480619827999995,8.890362658666666
7.127935583,0.5531515794000003,0.21244738765095236,-1.927535085414285,8.513601964095237
7.137881583,0.5165443897333335,-0.0206770352204762,-2.3750045399857136,8.285295819523808
7.147827583,0.416596053114286,-0.2368512152014286,-2.8958177644619045,8.186026051809524
7.157773583,0.29188571882857167,-0.4607469775966667,-3.4407094610333324,8.159470176095239
7.167719583,0.10548869340000022,-0.7400263136919047,-3.8249023247476184,8.090876442142857
7.177665583,-0.09916509345714264,-1.1191052025490476,-3.9638308599857135,8.082886211619048
7.187612583,-0.19259835102857123,-1.515864790787143,-3.7108066359380945,8.306957427238094
7.197558583,-0.251133650538095,-1.999709579025238,-3.6277505851285707,8.432767162428572
7.207504583,-0.19459454174285687,-2.5778543910252383,-3.939467155128571,8.565929470142857
7.217450583,-0.0381851705523807,-3.078733176549048,-4.003843064271429,8.677628546571428
7.227396583,0.04508628399047644,-3.3834174395014287,-3.731208810319047,8.930727821142858
7.237342583,0.02143103200476214,-3.5319092629776194,-3.415363187219047,9.190130252761904
7.247289583,-0.15921830230476167,-3.56022114703,-2.9958003350761895,9.384988955095238
7.257235583,-0.49346100606666643,-3.476413283539524,-2.3675288468857136,9.416388515857143
7.267181583,-0.8998608360666664,-3.2449974171157145,-1.3065811091714281,8.99875003247619
7.277127583,-1.4193586597809522,-2.795487980368095,0.1647466931142862,8.084557012809524
7.287073583,-2.032823828495238,-2.3252408087490477,1.4223743838761909,7.288869955666668
7.297020583,-2.5709764141142855,-2.10789637813,2.2361208333523814,6.926145717761905
7.306966583,-2.890160658114285,-2.1145870685585715,2.7426818177333336,6.901283705333334
7.316911583,-2.8956524883523804,-2.183493832034762,3.0470373697190483,7.085470670714286
7.326857583,-2.6092499749666667,-2.300970436625238,3.2637424490523816,7.449735305809524
7.336803583,-2.1272917212523805,-2.4816550804476187,3.5300868530952387,7.836415796095239
7.346749583,-1.5182182569666662,-2.7076729366238097,3.916873820095238,8.143938327190476
7.356696583,-0.8643334582523807,-2.9547575868333333,4.401543761809524,8.360827393619047
7.366642583,-0.23467370182380926,-3.1583513152952385,4.887504142285715,8.487372803285714
7.376588583,0.3404751082238098,-3.2317156340095243,5.186617470523809,8.584290601666666
7.386534583,0.7900699421285717,-3.1392553949142856,5.220172789571429,8.507057857476191
7.396480583,1.021923904271429,-2.9496083616857143,4.7944896011,8.078581327380952
7.406426583,1.123914278292381,-2.603398008447619,4.449479361052381,7.811229726333334
7.416373583,1.039148285849524,-2.1161473841619047,4.426716679528572,7.632000352238094
7.426319583,0.8193578118019049,-1.644810514114286,4.159000226290477,7.552293712428572
7.436265583,0.684355678401905,-1.2765861457333334,3.6460651781952387,7.382944247999999
7.446211583,0.6344172059257145,-1.011058625590476,3.245914573861905,7.265929534952381
7.456157583,0.6972451831161907,-0.8117211411095239,2.955146886049048,7.173637247904762
7.466103583,0.8526917057828575,-0.6464441611238096,2.7078253783538098,7.004929683857144
7.476050583,0.9871864087828573,-0.5416976967857143,2.45778895275381,6.795358713238096
7.485996583,1.1537077180209525,-0.38551046415238105,2.1665696092871434,6.586679872142857
7.495942583,1.344944198449524,-0.1600105877238096,1.8534482909490482,6.382320704523809
7.505888583,1.489740351959048,0.11570965956190465,1.5300446125919054,6.1596458944285715
7.515834583,1.5645582571400003,0.4370863588476189,1.1957558967633337,5.918137283761905
7.525780583,1.4928639519971432,0.693778067942857,0.8524370195252385,5.680289021047619
7.535727583,1.2976033272352385,0.9143686220857143,0.49331662671571475,5.4039431527142865
7.545673583,1.0561734914257146,1.1562727227999998,0.11072993747761946,5.079573550857143
7.555619583,0.7965113132352384,1.4162023414666667,-0.3039214067128568,4.711052145
7.565565583,0.5206348060447622,1.6587166130142854,-0.7201830461890472,4.3501086403333336
7.575511583,0.2561188541876193,1.857214186752381,-1.0911112923319042,4.057387295666667
7.585458583,0.06121147085428597,1.9602938326619046,-1.3996184231414281,3.868653983571428
7.595404583,0.009246652806666927,1.9934282774380951,-1.6422071631890471,3.829390722285715
7.605350583,0.09040270656857169,1.9635632893666664,-1.7778048877176187,3.9577283805238093
7.615296583,0.2622642413095241,1.8466597118904762,-1.8209737810509519,4.065787159666666
7.625242583,0.5220160558809527,1.6704587130333333,-1.8378247187176187,4.122369923476191
7.635188583,0.8414869108809526,1.4457536959857142,-1.869935148955714,4.163797544904762
7.645135583,1.1524719524523814,1.182149714842857,-1.945469397241428,4.207865349571429
7.655081583,1.4835214360714288,0.8440412079857141,-2.0974662993842856,4.313731772095238
7.665027583,1.8135101303571428,0.47433718779523804,-2.319139375,4.42638364652381
7.674973583,2.1179365241666672,0.1545268461761904,-2.5546841100666664,4.511766707761905
7.684919583,2.4181799938809525,-0.10489701620476198,-2.729800405180952,4.570030280095238
7.694866583,2.658998029976191,-0.4296522366809525,-2.8212551598571425,4.634231170666666
7.704812583,2.833531542166667,-0.7939739784428573,-2.9172085012333335,4.728151457571429
7.714758583,2.9627676909904763,-1.138146326442857,-3.1028406691142854,4.90306761652381
7.724704583,3.0415188719523814,-1.4642026916333333,-3.395961450571428,5.190549843904762
7.734650583,3.123661469285715,-1.7630799733476192,-3.7114360817619043,5.531933880761905
7.744596583,3.2398987843333336,-2.0251025332523813,-3.965295872904762,5.823147158857143
7.754543583,3.3845556139999995,-2.2430003610619047,-4.210029831047619,6.11788468
7.764489583,3.5350057257142864,-2.438878382157143,-4.510967393095238,6.470894064428571
7.774435583,3.680490409761905,-2.630832225466667,-4.853289542809524,6.864716377666667
7.784381583,3.7967647432857143,-2.8678213794428573,-5.1364531842380945,7.216523089
7.794327583,3.8627396153809523,-3.1705162247333334,-5.192214933523809,7.441086882142858
7.804274583,3.9471617567142863,-3.515123911795238,-4.914082681952381,7.708991258666667
7.814220583,4.063124350095238,-3.8642061389047617,-4.311891334809523,8.175863766714285
7.824166583,4.211091580904762,-4.153776407476191,-3.5296081401904758,8.73735314647619
7.834112583,4.356911895142857,-4.380508570619048,-2.6559370579999997,9.274443460619048
7.844058583,4.443151977619048,-4.5101400608095235,-1.8137493059523808,9.680847079476191
7.854004583,4.466861713142857,-4.5467317692857145,-1.1391909801904758,9.909222116333334
7.863951583,4.486573094761905,-4.5257746522857145,-0.7402712216666665,9.899012594238096
7.873897583,4.537880337761905,-4.5268324970952385,-0.6253936905238092,9.883777597714285
7.883843583,4.602574641761905,-4.5613925765714285,-0.6765292899047616,9.972426488857144
7.893789583,4.609589602095239,-4.581325456285714,-0.7527011074285712,10.03639636757143
7.903735583,4.524820400628572,-4.548487855142857,-0.701864196380952,9.954655629809523
7.913682583,4.406066189861905,-4.48400501152381,-0.4288243545238093,9.88367092752381
7.923628583,4.311637067938095,-4.412555962238095,0.12806716509523838,9.924081220714285
7.933574583,4.197045528295239,-4.351444010571429,0.887652359619048,9.96370204847619
7.943520583,4.049178166561905,-4.290021905904762,1.6236783704761908,9.897710128095238
7.953466583,3.8425550687809524,-4.248311461285715,2.1471008174761907,9.688905572285714
7.963413583,3.598461857552381,-4.221538787142857,2.556769470714286,9.368503517142857
7.973359583,3.3855522128857145,-4.172551482666667,3.0541348592380952,8.999600675523808
7.983305583,3.212531257076191,-4.077965947761905,3.707766919,8.645616530952381
7.993251583,3.0448805163619053,-3.8915386142285717,4.403776423619048,8.37794774752381
8.003197583,2.8646127650904765,-3.5821837624647617,4.866108219571428,8.224627588714284
8.013143583,2.595344182438095,-3.1750245949552376,4.980847993095239,8.03297606547619
8.023090583,2.228008730057143,-2.7342025613838095,4.791133215714287,7.6707401526190475
8.033036583,1.7802922445333333,-2.3188828247647617,4.473212248761905,7.234148411238095
8.042982583,1.2769679306761907,-1.939196076050476,4.134850724571429,6.814107630333333
8.052928583,0.7839448515809527,-1.6216893425266665,3.877034428761905,6.530799495809524
8.062874583,0.3159388201047621,-1.367827880764762,3.7741576255714286,6.464493735952381
8.072821583,-0.22107792994285697,-1.0976984626695239,3.9308037393333333,6.610987795809525
8.082767583,-0.8233864719904761,-0.7841974338600001,4.363029293857143,6.756594720333332
8.092713583,-1.4101288906571425,-0.4397464243361905,4.941104162,6.85816642857143
8.102659583,-1.904005134228571,-0.07830950390761908,5.488242887857143,7.05238083342857
8.112605583,-2.291251943,0.2883244496161904,5.857588571190477,7.399577681380952
8.122552583,-2.618419407947619,0.6684470665209523,5.996217937809524,7.697237439619047
8.132498583,-2.9188760713571424,1.0671151580923808,5.895196678857143,7.800044169190476
8.142444583,-3.158922212333333,1.4995952753304762,5.67412924252381,7.789298583952382
8.152390583,-3.374650563028571,1.9447635999495236,5.481762585809524,7.8034842923809515
8.162336583,-3.5767250630571423,2.3815884768542857,5.440165270904762,7.946893837047619
8.172283583,-3.7715206566857145,2.7873907005209526,5.4881902072380955,8.136125417904761
8.182229583,-3.9822218219714283,3.138072864997143,5.416908527538095,8.249942435047618
8.192175583,-4.185124708876191,3.399803314711429,5.099255655395238,8.27683105447619
8.202121583,-4.288725832433333,3.5669409900828577,4.546571513728572,8.315635859666667
8.212068583,-4.2638370406714285,3.652195204128571,3.6788459083,8.661588043285715
8.222014583,-4.091099069209524,3.5754983901714286,2.4546972029190477,9.361675997
8.231960583,-3.7823004268761897,3.207395643885714,1.1194420998238097,10.168990849857144
8.241906583,-3.2339425844,2.6170281462666662,0.21961937344285745,10.698234878857143
8.251852583,-2.478374733447619,1.9852099040285711,-0.24620877898571394,11.111728611190475
8.261799583,-1.7353849670190473,1.3387898000285712,-0.6206372658904757,11.438313253333334
8.271745583,-1.1239089653999996,0.7913452647904761,-1.0000853229190472,11.527969707
8.281691583,-0.6164804769714284,0.4146119168380952,-1.4314856822047615,11.375784448761905
8.291637583,-0.17828726806666637,0.20576056698571424,-1.9286619411571424,11.105248471666666
8.301583583,0.2323540695047622,0.1558909733666666,-2.423874899966666,10.833991117380952
8.311530583,0.6099204577190479,0.16256960736666656,-2.8782233252999996,10.562674119333334
8.321476958,0.9960332755857146,0.17054214669999995,-3.295612029538095,10.302378938190476
8.331422958,1.4308906062047622,0.17716548279523803,-3.5147585719666665,10.080855200952382
8.341368958,1.8241915385380956,0.12421504693809518,-3.540508039061904,9.922554212904762
8.351315958,2.123080744419048,-0.08907314234761911,-3.4727697999190474,9.761809825904763
8.361261958,2.357605167347143,-0.5086338087761905,-3.342837512252381,9.679939254809526
8.371207958,2.5413438762995244,-1.1214208675380954,-3.15816080725238,9.760279400190475
8.381153958,2.654704545775714,-1.9273024221095238,-2.94839033077619,10.045282184714287
8.391099958,2.6667756770138094,-2.8843923053476193,-2.677700220361904,10.561054584428572
8.401046958,2.5315854616804763,-3.7291139620142855,-2.3089049827904757,11.062317071
8.410992958,2.3230902664280957,-3.8950237777857146,-2.021130282773809,10.991675614333333
8.420938958,1.9199210926995238,-3.8664064463095236,-1.4705541181547614,10.763488299571428
8.430884958,1.4429363970804765,-3.71562067657619,-0.2619691693928567,10.234503016285714
8.440831958,0.8938008192233337,-3.466303392338095,1.0968769150357147,9.582064174761905
8.450777958,0.2037963494138097,-3.086192636766667,1.9491163926071433,9.109079323761906
8.460723958,-0.5764021456814283,-2.7092085824333334,2.348330808988096,8.67477291109524
8.470669958,-1.244460623157619,-2.3735915741476195,2.670805476178572,8.307613820428571
8.480615958,-1.7142370105385711,-2.1766390296714286,3.0547503204928574,8.197806089333334
8.490562958,-1.971126550395714,-2.1272687603857143,3.539686505492858,8.309959135857143
8.500508958,-2.030091933490952,-2.188295231295238,4.092000448826191,8.497418775714285
8.510454958,-1.98149850858619,-2.3523089899333334,4.630314180921429,8.661280682238095
8.520400958,-1.8730295745147614,-2.5288432243666668,5.09635876387381,8.787634620619047
8.530347958,-1.7658500628576188,-2.676277954842857,5.501175286207143,8.87772044395238
8.540293958,-1.7266858718576188,-2.807249376271429,5.688576598778572,8.911298178857143
8.550239958,-1.6951739180480951,-2.9145380428904764,5.648823662778572,8.833961103238094
8.560185958,-1.6101702919766665,-2.9189692856523815,5.454819618588096,8.705333807857143
8.570131958,-1.5235022098571427,-2.7450879607761904,5.128846746745238,8.488241665095238
8.580078958,-1.4824781918238092,-2.371557522680953,4.5954165116976196,8.245177411190477
8.590024958,-1.5285333021571426,-1.771101267252381,3.794382299030953,8.11697189595238
8.599970958,-1.5680106812047618,-0.962130294347619,3.00981404017381,7.865909550714287
8.609916958,-1.4590111889190476,-0.20971236630000004,2.4744909222214293,7.460262195380952
8.619863958,-1.2993627665857141,-0.07137573633809526,2.338043054300001,7.401555932142858
8.629809958,-0.9669928563857142,-0.043928321338095246,2.368308379976191,7.1634819984761915
8.639755958,-0.5925160359809523,0.008201945090476184,2.1732225451666674,6.893239600809524
8.649701958,-0.2179764589142855,0.23148789856666663,1.9228520938809528,6.605875015142857
8.659647958,0.09449397726666689,0.4907546935666667,1.6891331797571432,6.329891779047619
8.669594958,0.3492726096000002,0.7539000859476191,1.41722696682381,6.078511488619047
8.679540958,0.5798203942190477,1.0458179837571429,1.0734946427142862,5.82864337995238
8.689486958,0.8120532698380956,1.3411548598999998,0.6367276880476194,5.55030855495238
8.699432958,1.0225010905523813,1.5723768772333333,0.153194862666667,5.312128205714286
8.709379958,1.1880651966952382,1.6903328421142856,-0.3355702461904758,5.1623752780476195
8.719325958,1.316883241742857,1.6844489282190476,-0.8641889188571426,5.0766828323809525
8.729271958,1.415374967314286,1.5765112485095238,-1.4365616379523807,5.057925428809524
8.739217958,1.4690196207904764,1.3910125642238096,-2.0458169228095238,5.101151337666667
8.749163958,1.502195065695238,1.1734413173190477,-2.653026545333333,5.2066220478571426
8.759110958,1.5364052589333335,1.0009386823666668,-3.1788143024761903,5.376785851666666
8.769056958,1.5328322412190478,0.8672032264142857,-3.5548766406190473,5.557762264952381
8.779002958,1.5112218301238098,0.7676882102523811,-3.738394987823809,5.684283692666667
8.788948958,1.5064482119904763,0.6674887079,-3.648584108204762,5.5974357732857145
8.798895958,1.5775904947761905,0.5243776314714286,-3.196721459742857,5.186776879428572
8.808841958,1.6914179043,0.31503845675714287,-2.6611330241999998,4.7905867607142865
8.818787958,1.7925109934809527,0.05837592809047625,-2.314762123171428,4.6293777443333335
8.828733958,1.9375528622904765,-0.2425724374333333,-2.191821754985714,4.658300507714285
8.838679958,2.1730059944714286,-0.5714586043857143,-2.280799696995238,4.815140522714286
8.848626958,2.454867130352381,-0.9040318306714287,-2.5156376603285713,5.042092775333334
8.858572958,2.7670336088095238,-1.219084097957143,-2.801833598185714,5.311702968380952
8.868518958,3.0740484953428573,-1.5007006218142858,-3.1358244714428567,5.660984700238096
8.878464958,3.3277621687714287,-1.7768824371476193,-3.5204434648904757,6.06335878952381
8.888410958,3.5140765883904765,-2.027289447433333,-3.9264627664476186,6.468757811714286
8.898357958,3.672376406152381,-2.220523162719048,-4.299438728447619,6.845451752571429
8.908303958,3.7983874674857145,-2.3892584088142854,-4.629454466114286,7.171007677904762
8.918249958,3.881432659152382,-2.537513893409524,-4.887051686161905,7.417403162809524
8.928195958,3.920588288152381,-2.6723862151619047,-5.016014449780952,7.562683028095238
8.938141958,3.9467145108666664,-2.8043262139238094,-4.924050110257142,7.588117834285715
8.948088958,3.9945612881047623,-2.934698184352381,-4.499866718638096,7.5656478646666665
8.958034958,4.100444799200001,-3.071845100828571,-3.7289304914476187,7.7045229615714295
8.967980958,4.262616879819047,-3.2067208195428574,-2.7547951113047615,8.028123339619048
8.977926958,4.40000004472381,-3.243302448542857,-1.8512079473999996,8.357258045666667
8.987872958,4.473687324628572,-3.215524470961905,-1.2091191405904755,8.577130703380952
8.997819958,4.5164879025380955,-3.212599805066666,-0.8260485942095234,8.728589180523809
9.007765958,4.571780151761905,-3.293846755161905,-0.6932414115761899,8.833820231714286
9.017711958,4.629789260998572,-3.4929803667333332,-0.8027752558809519,9.025760875761906
9.027657958,4.620986514508095,-3.8011038504000005,-0.9738665539571424,9.345026642714284
9.037603958,4.484317204174762,-4.134708247114285,-0.9935625518333328,9.674594545571429
9.047550958,4.16772271979381,-4.480362363066667,-0.8123767737857138,9.924066287571428
9.057496958,3.707184571174762,-4.806086327733333,-0.5002645700238091,10.06390735352381
9.067442958,3.1945787491747626,-5.052356572209523,-0.10669530621428529,10.083536458952382
9.077388958,2.718453455031905,-5.157570479685714,0.345296719071429,9.93496527047619
9.087334958,2.315127019031905,-5.104278148780953,0.9238094601190481,9.659283815190475
9.097281958,1.9661581235080956,-4.961790274171428,1.6180728747857147,9.37619845542857
9.107227958,1.6079648206509527,-4.799329703066666,2.382929473404762,9.171519283
9.117173958,1.2376290227461908,-4.59612116687619,3.144188280214286,9.012188806619047
9.127119958,0.9060299426033335,-4.354105579304762,3.7512150241190483,8.77978094995238
9.137065958,0.6167418857490479,-4.059961173161905,4.216310840690476,8.539978628190477
9.147012958,0.3547902094023812,-3.7109748404476193,4.515600114404762,8.371073421523809
9.156958958,0.08910630405476214,-3.326104284495238,4.609413176452382,8.262417456952381
9.166904958,-0.22969918656428548,-2.9245682171619047,4.463828310119048,8.023828348714286
9.176850958,-0.6217309598499998,-2.5358490516857146,4.144138476690476,7.656776487619047
9.186796958,-0.9878316751833331,-2.2289396168761906,3.873812146547619,7.402114231
9.196742958,-1.2881706633261902,-1.9862591173142858,3.80385346902381,7.395723686571428
9.206689958,-1.570453560945238,-1.7291372202380952,3.918265575690476,7.601326049238096
9.216635958,-1.8544373788119048,-1.3620879751904762,4.21123878454762,7.928776816190476
9.226581958,-2.1321607220961902,-0.8110011814761906,4.670034595166667,8.118509581809523
9.236527958,-2.383908130024762,-0.08529313971428575,5.150468438023809,8.134965773714285
9.246473958,-2.610589408500952,0.7187472938571428,5.5134515293333335,8.108358573238096
9.256420958,-2.801304240739048,1.5435459554761906,5.759211534619048,8.081261778000002
9.266366958,-2.9411307969295235,2.360813096857143,5.936333637000001,8.07447445847619
9.276312958,-3.0538750828342853,3.115921496,6.059205620619048,8.144419594809523
9.286258958,-3.1863442545961904,3.7603318006190474,6.15776113652381,8.33718069852381
9.296204958,-3.3505306940247617,4.26123227652381,6.192311275761905,8.600681874761905
9.306151958,-3.513118351596191,4.641577839390476,6.174757349619049,8.827857281666667
9.316098292,-3.6224329948819047,4.928117189809524,6.0575614810000005,8.927541715952382
9.326044292,-3.674909889834286,5.110779584714286,5.791784772,8.875318764904762
9.335990292,-3.719906873358095,5.191446379666667,5.48851896004762,8.816786531809523
9.345936292,-3.7079670747847615,5.153091652142858,5.138097567428572,8.799490559333334
9.355882292,-3.539986363152381,4.937346323666667,4.511554919904762,9.104261156857143
9.365829292,-3.091797046709524,4.392364273714286,2.8213882778095236,10.444499152857142
9.375775292,-2.2978421899000003,3.4535085982857137,0.8131173445714287,12.183441983952381
9.385721292,-1.3325921068047617,2.3786640892380952,-0.2706539415238092,13.316217657904764
9.395667292,-0.5456990506619046,1.3894612143333336,-0.8151153804761903,13.968539065476193
9.405613292,-0.08850204285238077,0.6374843330952382,-1.1249191034761903,14.140485401809526
9.415560292,0.2012426815761906,0.1390747432380954,-1.3645721375238093,13.98323067709524
9.425506292,0.40640062376666675,-0.1577010769999998,-1.6945249619523808,13.586062452523812
9.435452292,0.5148697318619049,-0.26299503561904747,-2.2104527263809524,13.309766758809525
9.445398292,0.6130930423857144,-0.21745781109523787,-2.7658620325238092,13.196287568666666
9.455344292,0.7153696149571429,-0.10261170176190457,-3.252062441190476,13.134534556047619
9.465290292,0.8256207594809524,-0.00045480219047592624,-3.7068435605238093,13.06872679404762
9.475237292,0.9310156103857145,-0.0008165220952378487,-4.037338393971429,12.907833530904762
9.485183292,1.0107764071,-0.2228556543333331,-4.186205747923809,12.648777591190475
9.495129292,1.0992619178142857,-0.7498182284761902,-4.126052099209524,12.510826621190477
9.505075292,1.1855823438142858,-1.567085676380952,-3.9920788564952376,12.593014271666666
9.515021292,1.2488675662904762,-2.645719543,-3.8942983194,12.906227665476191
9.524968292,1.3357131348619047,-3.8631719891904757,-3.726219562495238,13.437634736952381
9.534914292,1.4231852604666666,-4.837145930285714,-3.4307710184476186,13.922017581999999
9.544860292,1.472375957547619,-5.360281334714285,-3.1030533200666666,14.145462371666664
9.554806292,1.3408652070666667,-5.458341814219048,-2.8160025332095238,14.114463876666667
9.564752292,0.9283873007809523,-5.201887167980952,-2.203625628733333,13.933451406761906
9.574698292,0.21213863368571428,-4.622558768171428,-0.4600222851619043,12.764407667761905
9.584645292,-0.8361983028857142,-3.71704219007619,1.5690964221714292,11.14080088652381
9.594591292,-1.9711378488857145,-2.759279236552381,2.645456223171429,10.037392575714286
9.604537292,-2.818527520742857,-1.9714336136595234,3.168174735028572,9.338579772
9.614483292,-3.224927747504762,-1.503992047135714,3.450022056838096,9.074521577380953
9.624429292,-3.3253163516142856,-1.3505937692785712,3.655837281742858,9.118857228714285
9.634376292,-3.2162187652809524,-1.4360466494690474,3.9446918371714292,9.398196829095237
9.644322292,-2.919313248185714,-1.7284376148499998,4.448435841885715,9.578492681761904
9.654268292,-2.5557903196619045,-2.154805609754762,5.0022059228857145,9.585408939999999
9.664214292,-2.1708850701857143,-2.617487626088095,5.448612938361905,9.483181057380952
9.674160292,-1.7893299272333334,-3.042498872016666,5.794065701266668,9.307844695666667
9.684106292,-1.4281187650428573,-3.3590016664709528,5.938642925285715,9.151254625904762
9.694053292,-1.084030296757143,-3.437885561804286,5.8566386215238095,9.044295049857144
9.703999292,-0.7931565167571426,-3.1832040976138094,5.524789322309524,8.814779928619046
9.713945292,-0.5427750323285713,-2.595536343137619,5.026690553738096,8.438130373142858
9.723891292,-0.3215306341857142,-1.7054257305661906,4.4569008838809525,7.933247884809524
9.733837292,-0.1965393550904761,-0.6471522031376191,3.7984824047380963,7.305359431428572
9.743784292,-0.14571627548571417,0.19780726824333333,3.191817408595238,6.783426259
9.753730292,-0.11099531403333322,0.64280722091,2.784078809833334,6.531516312190475
9.763676292,0.02886775938571439,0.7426809219861905,2.6165955083095245,6.470152689333334
9.773622292,0.3228341874333335,0.6312429319385715,2.479940941304286,6.224040647047619
9.783568292,0.7197305448142858,0.4872623745338096,2.27186031011381,5.928523832857143
9.793514292,1.1714428365285716,0.44429355343857146,2.093146317161429,5.710672163857143
9.803461292,1.526132459909524,0.48553260105761914,1.9512343375900003,5.536900473809524
9.813407292,1.768486677861905,0.6141309439266667,1.7835726681614288,5.378944369047619
9.823353292,1.8905184200428573,0.8202752556885715,1.4973203951519052,5.169052732428572
9.833299292,1.8562566633904765,1.0602286416885716,1.032957005009048,4.965339663333333
9.843245292,1.7151637116761904,1.304199009164762,0.43855846496142903,4.82848490695238
9.853192292,1.5188976581523812,1.5106739113504761,-0.2246007138957138,4.704434017047619
9.863138292,1.3503446398803907,1.668362792512381,-0.81716398008619,4.537756463857143
9.873084292,1.2645710816899143,1.7483756459990478,-1.2914426678480946,4.394750152428571
9.883030292,1.2644757720708668,1.730776083784762,-1.698723694133809,4.393953553714286
9.892976292,1.3339236396422953,1.628144167572381,-2.08231350108619,4.552806693952381
9.902922292,1.4349558968803908,1.4343416573819046,-2.4667482168004757,4.818099015666666
9.912869292,1.5033295056422953,1.1770657279057144,-2.8018825095861897,5.08408510247619
9.922815292,1.496777373308962,0.9001846134295238,-3.0129371460147616,5.238454067142857
9.932761292,1.4386573662375335,0.6110041313819048,-3.0591179262052375,5.24009850347619
9.942707292,1.409965260451343,0.3074838541438095,-2.907922043871904,5.091221975285714
9.952653292,1.4757376030513432,0.006819607620000033,-2.6489088579099995,4.993568230190476
9.962600292,1.6898195727084857,-0.2809004626657143,-2.428353108624285,5.119025699238096
9.972546292,2.0680275466703906,-0.5297175315228572,-2.3327145110290473,5.457674998714286
9.982492292,2.5026530910989617,-0.7114968298085714,-2.344184270033333,5.879586340428571
9.992438292,2.896810389860867,-0.8179696984514285,-2.458344473080952,6.264915222666668
10.00238429,3.2247373209084857,-0.9478533428847618,-2.710504951985714,6.564446359095238
10.01233029,3.5616247899084863,-1.1183100927419045,-3.1075300594619044,6.870355573285714
10.02227729,3.8612053733370573,-1.3637670173609524,-3.6324285386047617,7.211626545571428
10.03222329,4.0801372499180095,-1.6678491005990477,-4.155229823547619,7.6273944649047625
10.04216929,4.300238764537058,-1.9828731342180952,-4.487387876595237,7.9794445607142865
10.05211529,4.516656787346581,-2.268393509837143,-4.572684496928571,8.126842729333333
10.06206129,4.715535697013247,-2.5030953722609524,-4.5326816063571425,8.171776543857144
10.07200829,4.90280483119,-2.696164363137143,-4.325939820514286,8.184825576333333
10.08195429,5.087464690666191,-2.8187203047190477,-3.8673389657999993,8.388704402904763
10.09190029,5.235142985475714,-2.8398151932904763,-3.2393302403238087,8.656108285333334
10.10184629,5.243713639285239,-2.7325791794714287,-2.5772171005142854,8.757731723571428
10.11179229,5.11252589871381,-2.5500683388142855,-1.9456664658952376,8.655131099333333
10.12173829,4.971039756532857,-2.423088505209524,-1.3714900477999994,8.457330954714287
10.13168529,4.929734698013809,-2.434225919638095,-0.8621331894190473,8.306610418952381
10.14163129,4.970146008766191,-2.565183029304762,-0.4330996020380947,8.293784164190477
10.15157729,5.0054344351,-2.809356350876191,-0.19647867651428524,8.494525606619048
10.16152329,4.91288696112381,-3.1810892157333335,-0.20984498687619002,8.84758480604762
10.17146929,4.5737658696476196,-3.6376091577809526,-0.3476325215428567,9.191629578190478
10.18141629,3.967376458361905,-4.109552968685715,-0.4475735560904757,9.42827587704762
10.19136229,3.200305658171429,-4.5391440882095235,-0.43449190071428523,9.541932135142858
10.20130829,2.408335242171429,-4.863519295400001,-0.3078798987619043,9.51618551657143
10.21125429,1.6591684775047622,-5.060845811061905,-0.06113456799999952,9.375465390190476
10.22120029,0.9814479079333334,-5.115743731728572,0.3380918769523814,9.159842091190477
10.23114629,0.44100949255238103,-5.042235432290476,0.9336183449523814,8.899752557761904
10.24109329,0.008012342171428707,-4.880330318852381,1.688371428476191,8.679804330761906
10.25103929,-0.36850907206666655,-4.6407443050333335,2.4281044070000006,8.520792603190475
10.26098529,-0.6843174818285712,-4.343936436461904,2.959635786619048,8.399481941142858
10.27093129,-0.9519325275904761,-4.021184555557143,3.4047893818571433,8.317040851380952
10.28087729,-1.2532010977333332,-3.679754328985714,3.634226105014286,8.339619317380953
10.29082429,-1.6393304061142855,-3.354534477604762,3.5577880721095245,8.222632266333333
10.30077029,-2.0772935966857142,-3.067986579128571,3.3551268353000006,7.999586607285714
10.31071629,-2.4354953362095237,-2.8487893329476193,3.1905566166333337,7.869033589952382
10.32066242,-2.669153665542857,-2.679187278938095,3.1354621459666676,7.886160088952382
10.33060842,-2.8495867886,-2.465728963542857,3.1731195234428577,8.00825805652381
10.34055542,-3.0582904753666664,-2.1477389158761904,3.2767428768714293,8.15539622947619
10.35050142,-3.3012293661428567,-1.726224722542857,3.4242844860619046,8.267567786095238
10.36044742,-3.5709713226904762,-1.1631965501142858,3.643764758395238,8.321244565904761
10.37039342,-3.815307948619047,-0.42403996778095243,3.973326390176191,8.271268311619048
10.38033942,-3.9730845937142854,0.45555348079047614,4.393957918461905,8.134434243523808
10.39028542,-4.027096591619047,1.376668731552381,4.822398472842857,7.988167453999999
10.40023242,-3.992596766333333,2.2432972325047618,5.176996893571429,7.909445486380953
10.41017842,-3.9343244314285717,2.9805687003142856,5.449446918428572,7.951852121619047
10.42012442,-3.879658394666667,3.581330681647619,5.659194047809525,8.101310499428573
10.43007042,-3.8449819834285712,4.059038232361905,5.788276400952381,8.29457028652381
10.44001642,-3.8528994197142854,4.45792748787619,5.808550646666667,8.475723216714286
10.44996342,-3.804583236333333,4.810914429914286,5.729147100857143,8.561905138666665
10.45990942,-3.693697223428571,5.101648795571428,5.5718764905238105,8.564459849523809
10.46985542,-3.5643478544285716,5.289329410142857,5.376562711790477,8.552836795333334
10.47980142,-3.419141337785714,5.347730286285715,5.074042503361905,8.50024343752381
10.48974742,-3.1862194095952376,5.201197447080952,4.6125671296,8.515026446333334
10.49969342,-2.7527822563095237,4.7205680427,3.6985754301238103,9.055985701761905
10.50964042,-2.0171279056428566,3.744940898795238,1.76970832112381,10.702137032714285
10.51958642,-1.073872534785714,2.5041916694142854,0.2738267796000004,12.181308650666667
10.52953242,-0.3404696963571426,1.4316693124142856,-0.46966495601904723,13.002119232809523
10.53947842,0.06299034159523838,0.6474802318428572,-0.9066241796857138,13.32742736238095
10.54942442,0.29160004569047643,0.09000577270000003,-1.2331091040190472,13.34404108038095
10.55937142,0.41657351859523833,-0.3138372439190476,-1.6576552735904757,13.212953016333332
10.56931742,0.4649339876428574,-0.5247173548619047,-2.2365927453047614,13.092493111190477
10.57926342,0.4868939299761908,-0.5547043270047619,-2.8087689005428564,12.99105794090476
10.58920942,0.5172926574523812,-0.4978784958142858,-3.295493177971428,12.880957348761905
10.59915542,0.5626053210238096,-0.4337486848142858,-3.6132390208285705,12.758901355761903
10.60910242,0.5825656965952382,-0.5012435405761905,-3.7428957375904757,12.627436693095238
10.61904842,0.542157357261905,-0.8490665280361905,-3.704041797066666,12.556520061619048
10.62899442,0.46616123464285736,-1.5091367341790476,-3.554668102066666,12.655827826380952
10.63894042,0.3727730841666669,-2.4158180774171427,-3.383984034733333,12.92804330352381
10.64888642,0.29669166183333356,-3.5017089511314285,-3.1526423722095234,13.372026089142858
10.65883242,0.2802566422142859,-4.590321759750476,-2.930168290685714,13.81422783704762
10.66877942,0.3025195260238097,-5.4268376287504765,-2.8704873058761904,14.004012681857143
10.67872542,0.22274583059523834,-5.8727974436076185,-3.1145470939999997,14.04556469847619
10.68867142,-0.04821129571428549,-6.018137450793334,-3.0772318204285707,14.107130612761905
10.69861742,-0.4600517997619045,-6.024253582679047,-2.5930266627142853,14.17606772742857
10.70856342,-1.0681675179523806,-5.700710796250476,-1.6204937538571424,13.714637731190479
10.71851042,-1.9508028272857139,-4.899950929131428,0.37186512357142915,12.123505474428573
10.72845642,-2.961724196333333,-3.8685874015980954,1.9532222380000004,10.666641956285714
10.73840242,-3.665123244952381,-3.0074884175579046,2.8000309886190484,9.862522164142856
10.74834842,-3.9267850038238095,-2.4324806647245714,3.3513119934285722,9.562132244190476
10.75829442,-3.8809793155380947,-2.099956722129333,3.7995209676190482,9.587885596809524
10.76824142,-3.6030238865380952,-1.9271828320817141,4.349714501714286,9.79033818547619
10.77818742,-3.1490682409190476,-1.9478809174245715,5.018331193190477,9.958350026142858
10.78813342,-2.632827399871428,-2.1560985683340954,5.571832093380953,10.007170585666668
10.79807942,-2.1146414964428564,-2.4627872568293334,5.883864371285715,9.946283376285715
10.80802542,-1.6283378982999996,-2.7832889063769524,5.9101771619047625,9.824716945619048
10.81797142,-1.1703514884904758,-2.9631860972817146,5.648806009680953,9.66355749047619
10.82791842,-0.7371567301095234,-2.837012817488381,5.112940381490477,9.46284218495238
10.83786442,-0.3705903397285711,-2.394356679488381,4.377564748061905,9.164619734095238
10.84781042,-0.06006002358095204,-1.7116005018217142,3.60589388782381,8.75022837057143
10.85775642,0.20950777643333365,-0.8814547843455238,2.893017588442858,8.112125176714287
10.86770242,0.3994998162333337,-0.049567097488380944,2.3340044762523817,7.412670808619047
10.87764942,0.45985687840476225,0.5279317361782857,2.0536750777285726,6.968518835380952
10.88759542,0.541569239071429,0.7521831206544762,2.233996372776191,6.737573789285714
10.89754142,0.7418422572142861,0.7628771212068572,2.2711168226904768,6.548772554190476
10.90748742,0.9626067729761909,0.8061428416306666,2.065353791157144,6.278713014428571
10.91743342,1.1485536394047622,0.8357355443449525,1.860773362442858,6.026576178190477
10.92738042,1.2866559352142861,0.8831299002259049,1.6006339087904766,5.787666126
10.93732642,1.344209501119048,0.9759899775020953,1.2673739479523816,5.5817624564761905
10.94727242,1.3153859787380955,1.1041626430809524,0.8567577673333341,5.397827620571429
10.95721842,1.2103989641333337,1.260983853104762,0.3747397049047625,5.224726510809524
10.96716442,1.0405338828476194,1.4455388525095239,-0.15813459914285644,5.021763258904762
10.97711142,0.8319431726047622,1.6201878332714283,-0.724985235666666,4.7392786843809525
10.98705742,0.646853445319048,1.741805324604762,-1.2615800394761898,4.418634968809524
10.99700342,0.5334757528428575,1.8082472082190475,-1.7079190601904757,4.199954550619047
11.00694942,0.4851418051285718,1.826428429190476,-2.054446652714285,4.1436616626190474
11.01689542,0.4924791697476194,1.797593525609524,-2.330990243666666,4.203233928285714
11.02684142,0.5407245739380956,1.7069604856857143,-2.507945839633333,4.308235954666666
11.03678842,0.5975596214619052,1.538016633247619,-2.5361054176809517,4.342761329047619
11.04673442,0.6467535554142861,1.3187499444380952,-2.4414808873952376,4.258687538952381
11.05668042,0.6861354090285718,1.0803096507714285,-2.3025417575380946,4.128294393571428
11.06662642,0.7079424466619052,0.8524466082476191,-2.208771992728571,4.065598715
11.07657242,0.742191283719048,0.6033466455333334,-2.14219417525238,4.0818004216190475
11.08651942,0.8971448374047623,0.3533959407714286,-2.0292041531857135,4.2032784996190475
11.09646542,1.1591602275000004,0.114752136152381,-1.9036769350428566,4.408697034
11.10641142,1.4711736063095242,-0.08745502254761901,-1.843357281123809,4.618139808476191
11.11635742,1.785082499309524,-0.25900829240476186,-1.9529192894952372,4.809140378666667
11.12630342,2.0716495195952382,-0.4274672435952381,-2.259755386971428,5.021028598333333
11.13625042,2.3274814234523813,-0.629416818547619,-2.664513628604761,5.2998088202857145
11.14619642,2.5845234433571433,-0.9109102167380951,-3.036052372814285,5.584089115285714
11.15614242,2.887244079071429,-1.2652552442142857,-3.289982052147618,5.831055888714285
11.16608842,3.230406035119048,-1.6425702230238095,-3.471783736861904,6.077465650571428
11.17603442,3.614212070690477,-1.9982425127857144,-3.6308060059571425,6.35653822452381
11.18598142,4.027936916552382,-2.324684432261905,-3.721855284099999,6.68046373647619
11.19592742,4.417489825409524,-2.5931431616428573,-3.752770209385713,7.040652439190477
11.20587342,4.733849766742858,-2.774789672442857,-3.7326230988142854,7.34369635147619
11.21581942,4.955783064314286,-2.8849419433,-3.6374644671476184,7.531635326000001
11.22576542,5.079597994980952,-2.937820764695238,-3.4686458007904757,7.597055999428572
11.23571242,5.090263566933333,-2.9643326808666663,-3.3013729433476184,7.545867845761904
11.24565842,4.929322547980953,-3.0013854283809525,-3.194345870014285,7.382459066857143
11.25560442,4.6474467836,-3.0847592892857145,-3.069467818109523,7.371604121380952
11.26555042,4.399336169790477,-3.2113057884761904,-2.727336747061904,7.48810438047619
11.27549642,4.275431192000001,-3.3590946374285715,-2.2194694807761897,7.741890953428571
11.28544342,4.183696136428572,-3.535940890428572,-1.7758328482047612,8.058007879190475
11.29538942,4.009017070347619,-3.7669795000952386,-1.5049299130809517,8.339627614904762
11.30533542,3.703438072014286,-4.0716510940952375,-1.3904247799380947,8.583158114857142
11.31528142,3.279001857966667,-4.468726181428572,-1.5067552397714277,8.874157159000001
11.32522692,2.828293407919048,-4.867218049142857,-1.6968254443428563,9.212944763619047
11.33517292,2.450293692252381,-5.1419226072380955,-1.5950818176285706,9.315489434
11.34511992,2.130207570919048,-5.2793747483809526,-1.1678634565809516,9.204341913238096
11.35506592,1.816994962966667,-5.276344832619047,-0.6211249865333327,9.051863816380953
11.36501192,1.4620307571095241,-5.158857480285714,-0.09206739677142786,8.920131261333333
11.37495792,1.048219810966667,-4.975331089666667,0.5003460414190484,8.824084378666667
11.38490392,0.5735403244428574,-4.77800719132381,1.1280632971333342,8.702549836380953
11.39485092,0.0014229059190479074,-4.546923168266667,1.6726244868000006,8.540655297571428
11.40479692,-0.6068135294619045,-4.288802705980952,2.1134172564190483,8.335037793190477
11.41474292,-1.1858117703666662,-4.040560000742857,2.418858121228572,8.073082100857144
11.42468892,-1.7290805304619044,-3.796752631361904,2.661406264895239,7.8477454125238095
11.43463492,-2.200094341842857,-3.5641548198857143,2.85628491334762,7.68521721852381
11.44458192,-2.5579438005571427,-3.3483164093142856,3.067569345333334,7.634079264285715
11.45452792,-2.709350433223809,-3.104891949028571,3.3447966150000004,7.7707380850000005
11.46447392,-2.6610686648904758,-2.7871574246476194,3.6330859396190482,7.844580242666668
11.47441992,-2.576472415747619,-2.3980840571238096,3.7542402479523815,7.843490759571428
11.48436592,-2.594109379271428,-1.9564581706476192,3.7230358298571438,7.762091130428572
11.49431292,-2.7042149072238093,-1.4437809847904763,3.707650719571429,7.682782676047618
11.50425892,-2.867996044142857,-0.8286918215047621,3.7756592950476198,7.631816316571429
11.51420492,-3.013713280285714,-0.10826220031428574,3.9448157912380957,7.582309122285714
11.52415092,-3.096846904142857,0.7036370024476191,4.389151298333334,7.503582406095238
11.53409692,-3.1466581091904753,1.5129150934,5.026091590000001,7.4056211641904754
11.54404392,-3.212122616761904,2.220832341352381,5.518080199238096,7.502647773285715
11.55398992,-3.270994096333333,2.847820894780953,5.784063899714287,7.735153565809523
11.56393592,-3.3162477169523803,3.419989518257143,5.897877390714287,7.978844259619048
11.57388192,-3.3442766793333325,3.9460514541142864,5.917439737952383,8.201448350714285
11.58382792,-3.3380903529999997,4.424824701638095,5.819520872428572,8.347197589809523
11.59377392,-3.3101465511428567,4.864681526961905,5.666989332952381,8.457416091
11.60372092,-3.228385742142857,5.236796576904762,5.4665930847619055,8.52809891147619
11.61366692,-3.1209590116047616,5.507908355095238,5.1607502935000005,8.547099308095238
11.62361292,-2.9933818431571426,5.640169282476191,4.755493336595238,8.611343378857143
11.63355892,-2.7750811282523804,5.55938994252381,4.055717821500001,8.906022622190475
11.64350492,-2.359800999538095,5.126312462571429,2.7370779440714297,9.891835088857142
11.65345192,-1.6424175550619045,4.257169881904763,1.1160366959285724,11.381058329619046
11.66339792,-0.7579160651095235,3.162733135380953,0.03663907154761994,12.624387214714286
11.67334392,-0.06337716287142832,2.0948979344285714,-0.557256009357142,13.470038105380953
11.68328992,0.31465611855714315,1.2555926925714287,-0.9460171494999992,13.876416289238096
11.69323592,0.4809655218904764,0.6377858826666667,-1.2932521158904753,13.957300118380953
11.70318292,0.49306144808095265,0.20837975804761913,-1.6825043943333324,13.822898626428572
11.71312892,0.44746845227142884,-0.0016454064523808935,-2.171406717857142,13.638647835809522
11.72307492,0.43264698570000026,-0.050147224976190445,-2.8174353647142847,13.57552403252381
11.73302092,0.46895889103333355,-0.01648118473809517,-3.390992395619047,13.497014388666665
11.74296692,0.5044003965095241,-0.0273652476428571,-3.594435238047618,13.362664699857143
11.75291392,0.4582808171761907,-0.23397285378571425,-3.5951515219999997,13.29034823014286
11.76285992,0.3411758031285717,-0.7252463624523809,-3.5388786703809516,13.271315575857143
11.77280592,0.19990562508095264,-1.521265223595238,-3.486210153809523,13.362224938714286
11.78275192,0.11498744493809547,-2.6514333025,-3.4718288990952377,13.650222351095238
11.79269792,0.18930600136666692,-3.83342519802381,-3.350083270190475,13.984004609190478
11.80264492,0.3191569291947622,-4.677385018309524,-3.1058186903333325,14.10512810504762
11.81259092,0.37656815018523837,-5.1881595758809524,-2.8575656828571416,14.058234708380954
11.82253692,0.30838891959952414,-5.389023601309525,-2.5428136839761897,14.05483494442857
11.83248292,0.1327952376280955,-5.442331719738095,-2.0565273490714278,14.110496546952382
11.84242892,-0.17380650832428543,-5.420300385690476,-1.2507565018333326,13.914898707095238
11.85237592,-0.6897760525147616,-5.185933596566667,0.21941015459523897,13.038449110333334
11.86232192,-1.467326287990952,-4.60686862785238,2.021327723833334,11.694478506380953
11.87226792,-2.3258756073719042,-3.872110154185714,3.290369847642858,10.622356367285715
11.88221392,-2.9259988711099996,-3.228912534280952,4.056926760880954,9.963484576809524
11.89215992,-3.146750912776666,-2.813779769185714,4.573387025642858,9.709002945857142
11.90210692,-3.107770470490952,-2.5676947422333334,4.983023087652382,9.696885498571428
11.91205292,-2.847565461871904,-2.435858322661905,5.361375849809525,9.795995637619049
11.92199892,-2.4672183258242852,-2.457130186923809,5.7745886397142865,9.837681392238096
11.93194492,-2.1186118602052377,-2.613931488595238,6.273672747714287,9.645806829333333
11.94189092,-1.849317424490952,-2.856490672357143,6.5887515293809535,9.333600251904763
11.95183792,-1.6249831000223809,-3.0663277792619046,6.3762306619047635,9.046357701333333
11.96178392,-1.3834548360699996,-3.0925999039285714,5.764137305666667,8.880169447619048
11.97172992,-1.110242508308095,-2.856940100547619,4.993686480904763,8.77960227047619
11.98167592,-0.7613830253223806,-2.3638045877857143,4.41416529004762,8.423076361666668
11.99162192,-0.4353006260747615,-1.578691786404762,4.103980833238096,7.719774414571428
12.00156892,-0.29050198050333303,-0.7679486619285715,3.818782249380953,6.974213737666666
12.01151492,-0.24032236609333302,-0.2985414565952381,3.481541441476191,6.488341479571429
12.02146092,-0.18477716562190447,-0.12294480926190482,3.218582686666667,6.231257997571429
12.03140692,-0.055448352383809206,-0.17419701883333336,3.007343278238096,6.01530363452381
12.04135292,0.12614353565904793,-0.25378942964285717,2.780338077952382,5.770139902904762
12.05129992,0.33817459441142883,-0.22862886069047622,2.522982320076191,5.545814414428572
12.06124592,0.5517966527114289,-0.0855270562428572,2.199609296090477,5.316307002428571
12.07119192,0.7250765218542861,0.16002515013809518,1.806922989695239,5.060679791238096
12.08113792,0.8337034003542859,0.4776177541857142,1.3570902019333342,4.761954352857143
12.09108392,0.8823821876400002,0.8504073222333333,0.8788368832666675,4.410895690095238
12.10103092,0.8606219416352383,1.2044034101380952,0.3885563153619057,4.048399006857143
12.11097692,0.7849208667352384,1.4765623132809524,-0.1056423882571419,3.731079820857143
12.12092292,0.6481291163828574,1.640577185657143,-0.5989801032571419,3.5010268927142856
12.13086892,0.4704520958495242,1.7070833051142857,-1.0805435028761896,3.382132862666667
12.14081492,0.2935227358019051,1.714830420347619,-1.522244484304761,3.397007158333333
12.15076192,0.1433377674685717,1.6850067526047618,-1.8818385363999992,3.565907312666667
12.16070792,0.06483852838095265,1.620236782857143,-2.089428530495237,3.7495784043809524
12.17065392,0.11159374354952407,1.5127904363142857,-2.0247471321619037,3.661501052333333
12.18059992,0.2887285496923812,1.3609827403619048,-1.748988098304761,3.4011626429999997
12.19054692,0.49926812299238116,1.1960806782666669,-1.5667793916857131,3.353861135380953
12.20049292,0.7237905119828574,1.029565007409524,-1.5487467073761896,3.5402786874285717
12.21043892,0.9779041906019049,0.8606271970761906,-1.6416237555190467,3.78902984347619
12.22038492,1.236989603601905,0.6824285387428572,-1.831833520614285,4.032668747619048
12.23033092,1.5184545801400002,0.4749922150761905,-2.067159308804761,4.285914849857143
12.24027792,1.8253175574257146,0.22840505155238097,-2.271686392090475,4.553970625190476
12.25022392,2.1535597440971435,-0.04125043582857141,-2.427897382519047,4.840753794190476
12.26016992,2.480806665059048,-0.3095385935904762,-2.5982431049285704,5.141294113095237
12.27011592,2.7605281829019055,-0.5696986761142858,-2.876968624419047,5.470580676904762
12.28006292,2.98584740814,-0.8331795037333333,-3.2989620945476177,5.88779959347619
12.29000892,3.1861319954019045,-1.118442156352381,-3.7538505796428567,6.344430744761905
12.29995492,3.415155320425715,-1.4101339339714285,-4.104011562309523,6.744723761809524
12.30990092,3.7426371184780955,-1.6913163716857142,-4.374592079214285,7.1595533255238095
12.31984696,4.193727120282857,-1.972928663257143,-4.548349498785713,7.620185034476192
12.32979396,4.7136468170161905,-2.246957589490476,-4.534028498214285,8.04137105752381
12.33973996,5.193263097311428,-2.4767017926619044,-4.414651214404761,8.322556392095239
12.34968596,5.604447167882857,-2.6575988853190475,-4.289159135261904,8.452119119809524
12.35963196,5.931423119120952,-2.8221826361,-4.101882535404761,8.44464160395238
12.36957796,6.177765632406667,-3.0093410386380954,-3.697451428119047,8.431150716190476
12.37952496,6.360922644333334,-3.197413917857143,-3.0596166516428562,8.722369185
12.38947096,6.418142786714286,-3.3124424324761903,-2.4412316636428564,9.10104729195238
12.39941696,6.324053722142858,-3.341287137095238,-2.0423629568809516,9.23962629247619
12.40936296,6.096566286666667,-3.3684783883333336,-1.8475524285238085,9.152132753761904
12.41930996,5.7730225675,-3.497291964428572,-1.7910210046238084,9.064339918952381
12.42925596,5.4213429375809525,-3.75375003547619,-1.757524422290475,9.105646691523809
12.43920196,5.0127289132,-4.10674246252381,-1.6770964443380942,9.243741784380953
12.44914796,4.514409704580952,-4.489497830238095,-1.5935518586952373,9.419160923333333
12.45909396,3.963744996295238,-4.7992389045238095,-1.4919142545352373,9.519345177380952
12.46904096,3.423461671342857,-4.966610802619048,-1.29101343339238,9.470784438
12.47898696,2.9563210277714287,-4.980488472857143,-0.8942527314399991,9.249997849333333
12.48893296,2.568413066009524,-4.8693123823809525,-0.256575189344761,8.906336159571428
12.49887896,2.206698973628572,-4.6666477207999995,0.5508250540361914,8.622116975095238
12.50882596,1.8037924582000002,-4.427305173895238,1.3541485353695246,8.493510830142858
12.51877196,1.270947445914286,-4.187961346195238,2.1730217400838105,8.450480581095238
12.52871796,0.6356865580571432,-3.9333226780809527,2.885428953512382,8.321852987333333
12.53866396,0.02172581005714324,-3.670016041785714,3.265135694131429,8.011428418380952
12.54860996,-0.4417924138095235,-3.438316808138095,3.4155380117980965,7.619696653190475
12.55855696,-0.7727127018047616,-3.2451673484238097,3.585657405179049,7.320484111095238
12.56850296,-0.9919027642619044,-3.0492029834238097,3.7817007772266673,7.170757604714287
12.57844896,-1.1471999114666662,-2.811831365852381,3.8435576084647627,7.096791473666666
12.58839496,-1.3196394243428569,-2.5483655739,3.6600270412742866,6.849869170380952
12.59834196,-1.504091665880952,-2.3097753409,3.4512147007980967,6.611022094714286
12.60828796,-1.7007823943095235,-2.0988898282333333,3.442319387321906,6.604956159333334
12.61823396,-1.926379661642857,-1.825014266138095,3.643091555798096,6.830978587523809
12.62817996,-2.1831184964761903,-1.387168715947619,4.0200912026600015,7.090353639857144
12.63812596,-2.46947943717619,-0.7759981895190476,4.472100247517143,7.2433263479047625
12.64807296,-2.727475646128571,-0.027742699519047613,4.893956614326667,7.299394121238096
12.65801896,-2.9320307403666663,0.7926735577190475,5.2796115464457145,7.309283508857142
12.66796496,-3.116652592890476,1.5767921376714282,5.615806217857144,7.389353448380953
12.67791096,-3.3142624896523807,2.2457020809095236,5.872492051857144,7.614311356238095
12.68785796,-3.545115478033333,2.784708387861905,6.052879100238096,7.985500137952381
12.69780396,-3.798592889128571,3.237427639719048,6.117527225142858,8.384054388666666
12.70774996,-4.034817770223809,3.6548170957571435,6.029203584857144,8.677935926952381
12.71769596,-4.197600160938095,4.066992088376191,5.83646480852381,8.853511309523808
12.72764296,-4.230212017795238,4.473922323485715,5.498944990952381,8.86952559047619
12.73758896,-4.186129065414285,4.836506773895238,5.1133823195523815,8.828710024952382
12.74753496,-4.137278474414285,5.087703520314285,4.846674845185715,8.851445646285715
12.75748096,-4.021376678166667,5.132676794761904,4.576666172090477,8.987354415095238
12.76742696,-3.6250952112190475,4.723528070333334,3.0747277501857155,10.444661621428573
12.77737396,-2.7201621019047613,3.624097105571428,0.7805258695190487,12.897760154428571
12.78731996,-1.7316957812714284,2.3155370758095235,-0.16758352576666558,14.466895633761904
12.79726596,-1.1034538216809522,1.1899384842857141,-0.6000646175285704,15.456640189428573
12.80721196,-0.8459620046666663,0.340291300142857,-0.9004809142380941,15.947734901285715
12.81715896,-0.778088179685714,-0.2729855323333335,-1.1698589094761893,16.092738945904763
12.82710496,-0.8245554177809521,-0.6553178955238097,-1.570296981047618,15.991855611095238
12.83705096,-0.9109003324952377,-0.7882635318571429,-2.1439499062857132,15.895740579476191
12.84699696,-0.9597268385904759,-0.7437926167619049,-2.7530074159999987,15.862137738523808
12.85694296,-0.9475220010666663,-0.5595776747142859,-3.182965643047617,15.85544407042857
12.86688996,-0.8692114948285711,-0.3632788489523812,-3.188430729238094,15.931131991857145
12.87683596,-0.788715048780952,-0.32403548380952407,-3.046663203619046,16.001676014714285
12.88678196,-0.7434181448761902,-0.5761881385714288,-2.901801637857142,15.97609250804762
12.89672796,-0.7141307782095234,-1.2294332240476193,-2.7734627721428557,15.972511003285714
12.90667496,-0.6368893378761902,-2.368865325285715,-2.627584709714285,16.22634071995238
12.91662096,-0.44486716568571394,-3.7954012837142863,-2.4993120567619034,16.659770845666667
12.92656696,-0.1704660502571425,-5.0867610602380955,-2.585102363047618,16.909757373285714
12.93651296,0.08994173140952418,-6.056043167857143,-2.7467158953666657,16.916786316619046
12.94645996,0.0945098129333337,-6.636942965095239,-2.6277713194428562,16.766853595571426
12.95640596,-0.10768162787619014,-6.96046628864762,-2.2211846082666655,16.94047563928571
12.96635196,-0.4609124683999996,-7.0156542868714284,-1.7106871530285703,17.13024927495238
12.97629796,-1.082490342542857,-6.5899504243,-0.004408591647617797,15.953275630285713
12.98624396,-2.1894800726380947,-5.499265529809524,2.441773296828573,13.707624639857144
12.99619096,-3.3545523953523806,-4.243684921428572,3.50323160797143,12.282382992333334
13.00613696,-4.108106312019047,-3.2150717849095236,4.027918668495239,11.395177285333334
13.01608296,-4.3798221075952375,-2.5118672814809524,4.39021579787143,10.957394850333333
13.02602896,-4.325935003457142,-2.072364992576191,4.7002343364428585,10.826712079714286
13.03597596,-3.9931921591714277,-1.8863396133666668,5.103161929680953,10.875628846238095
13.04592196,-3.483271267219047,-1.967715842652381,5.605209545728573,10.812017706380953
13.05586796,-2.9308302583619046,-2.227779891590476,6.0849427668238105,10.604340220238095
13.06581396,-2.401917066980952,-2.6458347329238094,6.322059626776192,10.297561949904761
13.07575996,-1.9250544111238093,-3.0861835596666674,6.070622949633335,9.856206916952383
13.08570696,-1.4805354755047617,-3.382918115285715,5.535848244728572,9.364651017904762
13.09565296,-1.0549393826952378,-3.4030255204761906,4.858558016300001,9.041429041190478
13.10559896,-0.645828901838095,-3.0300021194761904,4.107527214776192,8.791742744
13.11554496,-0.278619665838095,-2.208965305809524,3.4226962221095256,8.253709572666667
13.12549196,-0.02646811088571404,-1.1458639272857145,2.9415402063952394,7.411684481761905
13.13543796,0.08150610001904787,-0.23403074142857147,2.8098393587285724,6.706134542476191
13.14538396,0.11192497259047644,0.37362374299999995,2.88446557617143,6.315503746714285
13.15532996,0.3045327434476193,0.6572458618095238,2.797549068314287,6.191930124952382
13.16527696,0.634152165161905,0.8059676201238094,2.4949671578380963,5.883520344190477
13.17522296,0.9779514607809526,0.8875207137285714,2.262549997504763,5.624715316904762
13.18516896,1.269195982066667,0.9436520627761905,2.0621646919809535,5.414957227619048
13.19511496,1.5050142937666668,1.0266008032380953,1.8206358711714297,5.214499028
13.20506096,1.6728358427857146,1.1497482046190477,1.4686376619809536,5.012509163142857
13.21500796,1.7662294680380954,1.3114732795285715,1.003151070457144,4.845438883333333
13.22495396,1.7508084252333336,1.5041200457666666,0.47518138302857255,4.72233607652381
13.23489996,1.632433340257143,1.678685606242857,-0.08213102468571314,4.596641314428571
13.24484596,1.4241220851619047,1.7899648583190475,-0.6514359603523798,4.464786083761904
13.25479296,1.2013397927333336,1.8172148601738092,-1.167170571733332,4.335610364761904
13.26473896,1.0368172045333335,1.7522704206357143,-1.601600150685713,4.220995421190476
13.27468496,0.9729915043904763,1.6406026628261903,-1.9876762076380938,4.235939178
13.28463096,1.0015927282000003,1.5030410673785712,-2.3254879822571417,4.370627948190476
13.29457796,1.1154169252476194,1.3490328970928571,-2.4932558482571414,4.562316159999999
13.30452396,1.283209279961905,1.1822211343785713,-2.4232710809714275,4.630943512523809
13.31446996,1.4405806991047623,1.0036899365214285,-2.1998754921619037,4.537279431428571
13.32441592,1.5300203501523812,0.8334024774738096,-2.025016679876189,4.428655101952381
13.33436292,1.5656383580095241,0.6665338854261904,-1.9948425411619037,4.422947818333333
13.34430892,1.6235261410095239,0.47547071223571424,-2.03459419635238,4.488786324333334
13.35425492,1.761808210866667,0.24693039509285714,-2.0774094305866657,4.620180272619048
13.36420092,2.0052584685333334,-0.004443661145238097,-2.14435436967238,4.824634179190476
13.37414692,2.3246694313904763,-0.25159246371666666,-2.295982256815237,5.0925091571904755
13.38409392,2.682904722819048,-0.46195866009761904,-2.5685131821009515,5.42041272852381
13.39403992,3.039065422104762,-0.6610858119071429,-2.9634232960057134,5.810536033904762
13.40398592,3.3823678644523816,-0.8754158079071429,-3.3940691695295224,6.237733233
13.41393192,3.7165865111000005,-1.115389492097619,-3.7102261951485707,6.605242733952381
13.42387892,4.057596667419047,-1.4057268596690475,-3.8807115128628555,6.877070062333333
13.43382492,4.450676811609524,-1.7635253919071427,-3.94086156967238,7.113532664428572
13.44377092,4.903846563609524,-2.152028795145238,-3.9126033686247608,7.355687277619047
13.45371692,5.3377999007523815,-2.482889539002381,-3.7789845507199993,7.540500259809523
13.46366392,5.683105362514286,-2.7052585655238097,-3.5686729214057133,7.673983868095239
13.47360992,5.892450032904762,-2.804104882952381,-3.372027133010475,7.752800663
13.48355592,5.853662110238095,-2.810014162619048,-3.2190580964866653,7.631331501428572
13.49350192,5.568852644666667,-2.812928971761905,-3.0741419288676175,7.448903861095237
13.50344892,5.162161950476191,-2.859307889047619,-2.781024126724761,7.3038629556190475
13.51339492,4.797333749380952,-2.956675389952381,-2.3026192538199988,7.38106506557143
13.52334092,4.565398030642857,-3.1058970016190477,-1.7984378356295228,7.574978755142857
13.53328692,4.426914955785715,-3.310251898333333,-1.3643355337247607,7.7696320860476185
13.54323392,4.32386028587619,-3.589551783190476,-1.0526474202009513,7.981989954142857
13.55317992,4.140471506685715,-3.981641228238095,-1.0045497139057131,8.288285878857144
13.56312592,3.792171720542857,-4.439069493619048,-1.2477212960333322,8.683257337285713
13.57307192,3.2812547971619046,-4.824230043809523,-1.4691931369476179,8.93941656804762
13.58301892,2.6665093666380955,-5.067594222095238,-1.46577749285238,8.962957184523809
13.59296492,2.0097159818285713,-5.205252435809523,-1.2317359063857132,8.808936989190476
13.60291092,1.3820831348761908,-5.254406246714286,-0.7909232423380941,8.543778103095239
13.61285692,0.8093850043047622,-5.217756121761904,-0.22454361300476092,8.23666290690476
13.62280392,0.2981053725904764,-5.105376869209524,0.35642529275714385,8.003127547952381
13.63274992,-0.20114414193333308,-4.930483753285714,0.9255347921857153,7.867495026047619
13.64269592,-0.7277029797428569,-4.674836691066666,1.4603177945190486,7.751187110047619
13.65264192,-1.2497650859809522,-4.358267795242857,1.9083853635666677,7.591045215666668
13.66258792,-1.6914986865047614,-4.030821212766666,2.2193743729000013,7.429121552714285
13.67253492,-2.051772052742857,-3.7244192884809517,2.4057650986809533,7.305857910238095
13.68248092,-2.343628387695238,-3.460573928719047,2.5581239364761914,7.243950612
13.69242692,-2.498356614742857,-3.2352041110999994,2.7688522982380963,7.303899096666666
13.70237292,-2.5135456205523807,-2.9868811041476193,3.033402985333334,7.371387884428572
13.71231992,-2.477438576647619,-2.6845768528619045,3.1778125612857155,7.4392192425238095
13.72226592,-2.5156088175523807,-2.3267747565761905,3.126489906714287,7.397473572857143
13.73221192,-2.6976548254333332,-1.9252963818142856,3.0519677558095246,7.355324890095238
13.74215792,-2.9824333146714284,-1.4692608120047617,3.0792628926190484,7.406816881904762
13.75210492,-3.300171611857143,-0.9078588338142856,3.23283032204762,7.496865001666667
13.76205092,-3.574469892857142,-0.1784049818142856,3.5948338237523823,7.515398284047619
13.77199692,-3.7713368034285715,0.6860090950428572,4.172287661895239,7.394196723571429
13.78194292,-3.906475479761905,1.5275936372333336,4.718424258514287,7.346072412619048
13.79188992,-4.011419245857143,2.256760891995238,5.124151693514286,7.484940690904761
13.80183592,-4.107179639523809,2.8818417773761906,5.3967231734285726,7.7458885505238095
13.81178192,-4.200785696190476,3.4345184290428574,5.563917274428572,8.06134300804762
13.82172792,-4.288827389333333,3.921046253947619,5.637489364190477,8.37407587852381
13.83167492,-4.351164597142857,4.348837544680952,5.612484553904762,8.62647172557143
13.84162092,-4.33478291247619,4.725535335995239,5.436847198809525,8.742061434619048
13.85156692,-4.228116264285714,5.023220983014286,5.121924071414286,8.73289046457143
