Time (s),Linear Acceleration x (m/s^2),Linear Acceleration y (m/s^2),Linear Acceleration z (m/s^2),Absolute acceleration (m/s^2)
0.2096548334,1.1832464644714287,-1.7056489413333333,-5.094199247833333,5.6985266665714285
0.2196008334,1.1667196574714285,-1.724329250047619,-5.308336369285715,5.832048171666666
0.2295468334,1.1272318926619047,-1.7551812620476193,-5.464046998190476,5.935228751238095
0.2394928334,1.0898247133761905,-1.7917865583809525,-5.558496794190476,6.006969500190476
0.2494388333,1.0613526225666665,-1.843840797095238,-5.585574693,6.044787812904762
0.2593848333,1.0206597605476189,-1.9254509428095237,-5.560012503857143,6.069420077666666
0.2693308333,0.9804024708619048,-2.0369462495238095,-5.511977989238095,6.106308835380952
0.2792768333,0.9399800703999999,-2.173803895857143,-5.449991851047619,6.148793926380953
0.2892228334,0.8269152178761904,-2.372877058333333,-5.374897925952381,6.230424523666666
0.2991688334,0.565903230852381,-2.711751773190476,-5.30305438452381,6.467841453857143
0.3091148334,0.26252411517619045,-3.0584314629047618,-5.255889044571428,6.735698363857143
0.3190608334,0.09031386364285712,-3.2105377845238094,-5.315540417428572,6.882222615619048
0.3290068334,-0.11211519343333337,-3.435433838476191,-5.532071054666666,7.199390831761905
0.3389528334,-0.4933434631,-3.765143432619048,-5.874094912952381,7.724768003904762
0.3488988333,-0.9127468550714285,-4.112099250142857,-6.295972803285714,8.338709567809524
0.3588448333,-1.2631822670714286,-4.544287702904763,-6.827094557761905,9.059764642190476
0.3687908333,-1.6834958181666668,-5.013088106285714,-7.2808153542380945,9.73500069195238
0.3787368333,-2.1079160707380953,-5.568535920428571,-7.567914868047619,10.32273380290476
0.3886828333,-2.4031391767857144,-6.191279979857143,-7.723297690904762,10.856125301333334
0.3986288334,-2.5444237222619046,-6.826565091999999,-7.740423823571429,11.330361305095238
0.4085748334,-2.4796664910714283,-7.471149003238095,-7.620246724238096,11.786380159142858
0.4185218334,-2.1996621559285714,-8.044767597095237,-7.437002670619047,12.261309408047618
0.4284678334,-1.842070336690476,-8.570580692047619,-7.244053631180952,12.760352732190475
0.4384138334,-1.5623554387380953,-9.131503393380953,-7.0108638030428585,13.263621415238095
0.4483598333,-1.351632638785714,-9.687056109619046,-6.788612611809524,13.756273544523808
0.4583058333,-1.2258194291190476,-10.277082436190476,-6.647939295264287,14.292465277904764
0.4682518333,-1.098421282957143,-10.912891751047619,-6.559025503821428,14.904632987476191
0.4781978333,-0.8390119620809522,-11.546149591428572,-6.461896401378572,15.552746968666668
0.4881438334,-0.3104332733333332,-12.160565099761905,-6.3187179984119055,16.292986367809526
0.4980898334,0.5684565741428571,-12.657997425095237,-6.115566235935715,17.10067988157143
0.5080358334,1.7402719198095238,-12.987781835952381,-5.822066137269047,17.810106457761904
0.5179818334,3.101002756666667,-13.275779398571428,-5.380382975935714,18.561456000142854
0.5279278334,4.403468664809524,-13.685726351666666,-4.7585174744595236,19.439699278095237
0.5378738334,5.662343065238095,-13.981739054428571,-3.967449952221428,20.045826065714284
0.5478198333,6.94723259152381,-14.161155019285713,-3.052736817697619,20.293945556190476
0.5577658333,8.173749252380953,-14.315618576190476,-2.078232506078572,20.34240945190476
0.5677118333,9.300355291333334,-14.360209888095236,-1.0428452030785715,20.242580467619046
0.5776578333,10.398257487666667,-14.258057471428568,-0.03304715355476194,20.06757214333333
0.5876038334,11.495497472904763,-14.041451906190476,0.8274885626357144,19.958345246666667
0.5975498334,12.504992580952381,-13.727653476952382,1.4990128795880953,19.979817437619047
0.6074958334,13.37377307995238,-13.291841755285716,2.0376399667785714,20.058743442857143
0.6174418334,14.026611672714287,-12.764745641857143,2.43907476587381,20.150247605238096
0.6273878334,14.446165907380951,-12.23651319157143,2.75309202035,20.233298036666667
0.6373338334,14.782282713285714,-11.661677291166667,3.0397115054357142,20.30277966142857
0.6472798333,15.200213175857144,-10.955368194738096,3.2828015606785717,20.379141153809524
0.6572258333,15.682791123285714,-10.185857379309525,3.5069204639690477,20.478581534285713
0.6671718333,16.21637948357143,-9.279424765214285,3.801099925566667,20.53938068904762
0.6771178333,16.74905576209524,-8.235124078261904,4.130403110409524,20.521170383809523
0.6870638333,17.12504448095238,-7.113246682928572,4.446924197442858,20.42614386047619
0.6970108334,17.194025253333333,-5.953737804785715,4.71296788752381,20.17839820333333
0.7069565834,16.938875427142857,-4.834358144785715,4.907134038809524,19.750304522857142
0.7169025834,16.503119254285714,-3.7362574491666667,5.010156911,19.190930344761902
0.7268485834,15.880360994190474,-2.6599101220714285,4.9854653861904765,18.480502251428568
0.7367945834,15.143563345952382,-1.6564385927380951,4.881287883809524,17.69478312142857
0.7467405833,14.447377032761906,-0.7089932464523812,4.755787743857143,16.95241640952381
0.7566865833,13.86437833547619,0.21530778997619038,4.632005098190477,16.312209474761904
0.7666325833,13.369138437666669,1.1158897355,4.518017979666667,15.75999975852381
0.7765785833,12.888038360142858,1.9867675750238096,4.441232079190477,15.248473467857142
0.7865245834,12.44943364647619,2.761600748547619,4.345115833666666,14.756501157333336
0.7964705834,12.00544921604762,3.4477223330238096,4.192417544095238,14.265935475619047
0.8064165834,11.521187966761905,4.090966257309524,4.006599546109524,13.78009405695238
0.8163625834,11.022277298285715,4.653811411880953,3.7992385819000005,13.304838794857144
0.8263085834,10.519165266047619,5.130316580119048,3.5948924769,12.846996205619048
0.8362545834,10.039867411714287,5.515273981166667,3.3914951870428576,12.417084525619048
0.8462005833,9.592483465857143,5.784520386190476,3.1764338087761907,12.007456780571427
0.8561465833,9.193086003904764,5.955817130380953,2.9445867032190476,11.626916581380952
0.8660925833,8.834868281761905,6.057211775761905,2.719845405585714,11.273773035761904
0.8760385833,8.543344096666667,6.064900029047619,2.5004658306809526,10.953403860190477
0.8859845834,8.383085559047618,5.935787381761905,2.251772889871429,10.70404131495238
0.8959305834,8.316599542857144,5.700255270428571,1.9938635746857143,10.516361395428572
0.9058765834,8.33442168952381,5.3879435374047615,1.769011068590476,10.399256762095238
0.9158225834,8.424254245714286,5.007968493090476,1.601135126590476,10.35487998304762
0.9257685834,8.56336719095238,4.550943240233333,1.5171839784952381,10.374037814
0.9357145834,8.801208367714285,3.962780699947619,1.4629776860190478,10.513710487333334
0.9456605834,9.030182242142857,3.3278816434238094,1.4549897211619047,10.669065969238094
0.9556065833,9.20153211247619,2.6784308719000003,1.532284301542857,10.81445772447619
0.9655535833,9.362477558809525,1.9624089097571429,1.6622670562571429,11.008530858285715
0.9754995834,9.502997177142857,1.2075376291380953,1.8319342579714286,11.224003411666667
0.9854455834,9.650578199333333,0.4134866901857142,2.0031662233523813,11.470604277571429
0.9953915834,9.780337966333335,-0.37582006857619044,2.190734035447619,11.771302837142859
1.005337583,9.942391097714285,-1.1948504521,2.4020785754,12.148273803142857
1.015283583,10.158163740809524,-2.0830837184809523,2.6046938976238097,12.577421844190477
1.025229583,10.363856758809524,-3.017357125671429,2.766701031071429,13.027122288666668
1.035175583,10.524460254238095,-3.9995735801952375,2.873508339595238,13.484335137904761
1.045121583,10.587321247333334,-4.999679006290476,2.9256452885476194,13.91128231790476
1.055067583,10.545071466666666,-5.969213991719047,2.9152648101285714,14.288198038666668
1.065013583,10.419262134285715,-6.884971912338095,2.8524504207666666,14.584296419285714
1.074959583,10.301412143238096,-7.745935491242857,2.739451600019047,14.83384609347619
1.084905583,10.213713013380952,-8.57686740862381,2.5450235561142853,15.08083205238095
1.094851583,10.040700027809525,-9.327106886861905,2.300455408257143,15.283971012380954
1.104797583,9.810470617238096,-10.053710193242855,2.0216846755380953,15.485409193333334
1.114743583,9.449957695904763,-10.756763058838096,1.7005925407761904,15.64116494714286
1.124689583,9.089453517761905,-11.532335598809524,1.343044144061905,15.891230996666666
1.134635583,8.517509399714285,-12.259009767761903,0.9623386154428573,16.09066901142857
1.144581583,7.594813201047619,-12.792701317904763,0.5973490659666667,16.17786831095238
1.154527583,6.670945971904762,-13.27053909452381,0.20903500115714296,16.314283617619047
1.164473583,5.838848676428572,-13.650290106904762,-0.2642268836523809,16.45020482047619
1.174419583,5.092589620380953,-13.837027593571428,-0.7915792999857142,16.45964610952381
1.184365583,4.462906864904762,-13.88851271704762,-1.3559472644142856,16.372428617619047
1.194311583,3.918483530333334,-13.849168612761906,-1.9183829746523808,16.209750829047618
1.204258583,3.3680634027142857,-13.766505188571427,-2.475323304604762,16.01918081285714
1.214204583,2.716732807190476,-13.63783052547619,-3.0249575107,15.806712033809523
1.224150583,1.9181070626666665,-13.452062813761906,-3.5677359400333337,15.590510232857143
1.234096583,1.004071564952381,-13.23314704152381,-4.100313762414286,15.441182938095237
1.244042583,0.09035426704761909,-12.959311936809524,-4.644893830223809,15.335510894285713
1.253988583,-0.7594747098571427,-12.620209960333332,-5.1791242985095245,15.26146318857143
1.263934583,-1.5745440780952382,-12.282209877714287,-5.652697053300001,15.269171274285714
1.273880583,-2.335120348047619,-11.885979462380952,-6.051531484238095,15.273860578095237
1.283826583,-3.1403041072380953,-11.446404111047618,-6.3694624332857135,15.26300257857143
1.293772583,-4.003778452761905,-11.045059888238095,-6.592278381999999,15.222667647142858
1.303718583,-4.867157043380952,-10.692598193333332,-6.414192052861905,15.063498748095236
1.313664583,-5.682471354190476,-10.303231713238095,-6.114532761766666,14.817401428095238
1.323610583,-6.317892956904762,-9.886890245428571,-5.797334343576191,14.497160595190476
1.333556583,-6.912424228809523,-9.374381543095238,-5.523474374050476,14.016427769571429
1.343502583,-7.307341582142858,-8.883304918619048,-5.41394533281238,13.624801064809525
1.353448583,-7.397711580857144,-8.394906235047618,-5.43757916590762,13.285844246238096
1.363394583,-7.446628885809524,-7.8964527074761905,-5.499166774621905,12.95963227338095
1.373340583,-7.500412911904762,-7.443851040380952,-5.513668537669524,12.665919826714283
1.383286583,-7.627057922809524,-7.061298348380952,-5.489513884717143,12.471465227190476
1.393232583,-7.8898566031428565,-6.692447687714287,-5.413470316145715,12.38040392147619
1.403178583,-8.241703031857142,-6.324987912428572,-5.3078151945266665,12.351777742904764
1.413124583,-8.582664757190477,-5.955500294857143,-5.248695222193334,12.332089249095239
1.423070583,-8.75762762204762,-5.596031825666667,-5.203860248288571,12.212301913809524
1.433016583,-8.64168076042857,-5.244043894333334,-5.112448359240952,11.90155953404762
1.442962583,-8.252604803423809,-4.913385714714286,-4.9450173207171435,11.422917380380952
1.452909583,-7.766073581561905,-4.634294102095238,-4.694312353002856,10.896270775857143
1.462855583,-7.2425283708476185,-4.382212699809524,-4.378403134431428,10.335504164095239
1.472801583,-6.7336803314904765,-4.1195514569047615,-4.019828370383809,9.697880149571429
1.482747583,-6.24336752012381,-3.9582643941428572,-3.689141170479048,9.127555910190475
1.492693583,-5.7152433268890475,-3.879626722238095,-3.437784711574286,8.623177701476191
1.502639583,-5.1608516869938095,-3.715156992142857,-3.2752019058123807,8.141295791809524
1.512585583,-4.618364170484286,-3.44918881467619,-3.491969821855238,7.787107053285713
1.522531583,-4.112990073412857,-3.187701497742857,-3.812454486617143,7.501276194095238
1.532477583,-3.7044661100842857,-2.9282368162380954,-4.102786229712381,7.275462231285714
1.542423583,-3.394318932760476,-2.6432394322761903,-4.296743551857143,7.042553947285714
1.552369583,-3.129028837365238,-2.3885918262761905,-4.347587848523809,6.774593722190477
1.562315583,-2.9374162208890473,-2.2186952675142857,-4.276341474857142,6.531420394238094
1.572261583,-2.7171327012699997,-2.035842559657143,-4.185388397380952,6.2633516840952375
1.582207583,-2.417266683212857,-1.9377335900380952,-4.118620990904762,6.022763645047619
1.592153583,-2.0425231427495243,-1.9389670741333336,-4.051527059238095,5.8056679917142855
1.602099583,-1.5904579715685716,-2.0512723455142856,-3.9985212975238094,5.587703642904762
1.612045583,-1.022116796235238,-2.2290047022761903,-3.988154574,5.401851626333333
1.621991583,-0.3993025700923809,-2.389019118561905,-3.886945786523809,5.19866117352381
1.631937583,0.14589248557428572,-2.5134453059904764,-3.7073733666666664,5.047879374619048
1.641883583,0.5137719795742858,-2.6404698290380955,-3.5128555819285716,5.03361640852381
1.651829583,0.7470309440933333,-2.7671520393238094,-3.371975475785714,5.1356138974761905
1.661775583,0.9670863666123809,-2.8846398928476193,-3.2660958837380956,5.286954788285715
1.671721583,1.1406228728028571,-3.0421360108,-3.1480986542333333,5.465515305047619
1.681667583,1.2997554036838095,-3.258570920895238,-3.041693439252381,5.68412585747619
1.691614583,1.4131668011742857,-3.540534685847619,-2.922592923652381,5.942665041952381
1.701560583,1.5326058983680952,-3.9097645524190474,-2.7764425689095242,6.262800392095238
1.7115075,1.8969915696633333,-4.520057606752381,-2.64198733462381,6.8414438927142855
1.7214535,2.534826791725238,-5.27921408912381,-2.427832755047619,7.62924824647619
1.7313995,3.089636173653809,-5.882580476152381,-2.0359525151428572,8.243518906619048
1.7413455,3.4645369763728575,-6.3718301521333345,-1.5794943308571427,8.693402566619048
1.7512915,3.8166818914776193,-6.861516086047619,-1.203831301809524,9.146418237666667
1.7612375,4.247603113177619,-7.2643511817619055,-0.8891716332380952,9.566692430380952
1.7711835,4.862079237891905,-7.606665730095239,-0.6066725278571429,9.98805827309524
1.7811295,5.591960103320476,-7.887086971714286,-0.30830300719047615,10.451351255142857
1.7910755,6.245524725406191,-7.909920334904761,0.06505006538095236,10.841934765142858
1.8010215,6.714246191561905,-7.804878015380952,0.4143957652380952,11.069961243714285
1.8109675,7.0045547685714284,-7.644383612285715,0.6728844629047619,11.112229704666666
1.8209135,7.121596730142858,-7.400823385223809,0.8935922119523809,11.025043005619048
1.8308595,7.19426704,-7.091139209938096,1.038567728795238,10.975507449190477
1.8408055,7.253504151571429,-6.720296360985715,1.0957161313714285,10.984124171476191
1.8507515,7.252245162476191,-6.258408396557142,1.0813648018238093,11.02147150147619
1.8606975,7.171890330380951,-5.720407615795238,1.0461290139190478,11.030568233380952
1.8706435,7.0562600816190475,-5.130128828938096,0.9622137635380952,11.01838527695238
1.8805895,6.972003736666667,-4.484107922747619,0.8123261678904761,11.037593825619048
1.8905355,6.916880976619048,-3.7480508659857144,0.632542726195238,11.091806393761905
1.9004815,6.829221357271429,-2.9160688720809524,0.43314649807142847,11.125634795619046
1.9104285,6.723048812761904,-2.035547554080953,0.22825843970952378,11.056498235333333
1.9203745,6.516641599000001,-1.042658900461905,0.06394690466190471,10.710125121285714
1.9303205,6.275567914238095,-0.01763431150952381,-0.13431474781904765,10.232859867952381
1.9402665,6.1891761380476185,0.8990476083952381,-0.3926235740095238,9.964651813190475
1.9502125,6.168959195,1.7906564725857141,-0.6314838509,9.828925751761906
1.9601585,6.076407878571429,2.7190743945857143,-0.7912089970809524,9.678765224619047
1.9701045,5.890216132190476,3.643628197919048,-0.9226278697428573,9.516174240809523
1.9800505,5.624758277190476,4.510365651871429,-1.0677021349333333,9.317496408333332
1.9899965,5.364736077857143,5.259796126157143,-1.2461351691238096,9.13156864547619
1.9999425,5.223332471714286,5.802896208014286,-1.4847814379333333,9.08572613595238
2.0098885,5.220250933380952,6.305493476300001,-1.6557093202428572,9.206582085476189
2.0198345,5.257987331761904,6.85909515725238,-1.694607574342857,9.48239617857143
2.0297805,5.253881389047619,7.370323876333334,-1.725171889404762,9.815696511809525
2.0397265,5.142781980619048,7.8349830869999995,-1.7582518158571427,10.12625595247619
2.0496725,5.034287172619048,8.227919612714285,-1.8024551373380955,10.403117283428571
2.0596185,5.050617053761905,8.538965590666667,-1.8368727535761904,10.687919838333332
2.0695645,5.20493440252381,8.809886332142858,-1.8254560650523812,10.992087951619048
2.0795105,5.449730369,9.04172974147619,-1.7676988002904763,11.294186931761905
2.0894565,5.780154938428572,9.211598289238095,-1.7014434985285714,11.593806384761905
2.0994025,6.201763689666667,9.305948125619048,-1.632406495338095,11.870931726333332
2.1093485,6.692847247300001,9.354976416333333,-1.5372314636238096,12.095608256047619
2.1192945,7.160928331857143,9.392902264523808,-1.4260088877666668,12.305756466809525
2.1292405,7.585295548714286,9.406617716285714,-1.3245545033380952,12.577881833714287
2.1391865,7.885773435857144,9.401864681714287,-1.215915310909524,12.813097308476191
2.1491335,8.106469518238097,9.318737350571428,-1.1942226281,12.978592647523808
2.1590795,8.357944453095238,9.10265555657143,-1.244579893447619,13.09645417752381
2.1690255,8.614830206190476,8.818393418190476,-1.324402336552381,13.14271310704762
2.1789715,8.887248029571428,8.489916973952381,-1.3917451020809524,13.156334664666666
2.1889175,9.117156845809523,8.170444559666667,-1.4191304043190478,13.154344326190474
2.1988635,9.278932123238095,7.844008083714285,-1.4148214449380954,13.149571195714286
2.2088095,9.455122485571428,7.467761906283334,-1.4226764065095239,13.195409510476193
2.2187555,9.762107488523808,6.989535707521428,-1.475257702104762,13.352563415238096
2.2287015,10.314957885809523,6.339072323711905,-1.5614083221714286,13.66481042047619
2.2386475,10.948858405,5.580139984854762,-1.5633456021714285,13.990845259047619
2.2485935,11.504912687047618,4.69574992595,-1.5367118481204762,14.183731812380952
2.2585395,11.868214117238095,3.723781523902381,-1.551479763882381,14.263884846190479
2.2684855,12.063751663333333,2.7131789532833337,-1.585474528977619,14.26895321857143
2.2784315,12.247841168666666,1.6834074554261904,-1.6304584397871429,14.300515514761903
2.2883775,12.383328478428572,0.6879936399976192,-1.6254512184061904,14.32158642142857
2.2983235,12.397262114714286,-0.2655303603833332,-1.5823997671109522,14.281573406190475
2.3082695,12.363253260523809,-1.2266695518119046,-1.56043394273,14.250151044285715
2.3182155,12.364789797666665,-2.186713476240476,-1.532904440491905,14.26349023190476
2.3281615,12.364399704809525,-3.1070926181452383,-1.466312293877619,14.304190150952381
2.3381075,12.184243872095239,-3.9339674035261902,-1.3241335281204762,14.252007560476189
2.3480535,11.824034143238094,-4.688155172669047,-1.170484557882381,14.100236894285715
2.3579995,11.494806025714286,-5.446613358097618,-1.0215509633109523,14.010134301904762
2.3679465,11.301512919238096,-6.193800673526191,-0.8945717701204763,14.07336034047619
2.3778925,11.245269999761906,-6.9211238000023805,-0.7596298665014286,14.28674058095238
2.3878385,11.208220175857143,-7.634247826240477,-0.5781722834061905,14.554453851428573
2.3977845,11.08582514404762,-8.311527655145238,-0.3730098653109524,14.763125116666666
2.4077305,10.815480604047618,-8.927137290145238,-0.17331271440619048,14.851692991428571
2.4176765,10.370077277190477,-9.499228911428572,-0.009352979834761915,14.808731268095235
2.4276225,9.768618725523808,-10.016354074095238,0.10770194305095236,14.635637835238093
2.4375685,9.006781684952381,-10.436003715523809,0.18387906483190475,14.318232325238094
2.4475145,8.236146450190477,-10.763864614761905,0.1903224876509524,14.006858981904761
2.4574605,7.568632543376191,-10.978466868238096,0.18434233833523808,13.787518649047618
2.4674065,7.045955783647618,-11.08675641095238,0.24904295591619047,13.648014450476188
2.4773525,6.617669303385714,-11.148962822238095,0.32870052142571426,13.541165574285715
2.4872985,6.123091700233333,-11.178177377238095,0.38482115056857136,13.366064132380952
2.4972445,5.571203782133334,-11.199673663190477,0.37894993347333333,13.157945463809524
2.5071905,5.0397562128,-11.217219403190475,0.3431972134161904,12.97162027761905
2.5171365,4.5139604784190475,-11.212960792380953,0.32029705970190475,12.781779857142856
2.5270825,3.951745458609524,-11.201859268571427,0.2765836618447619,12.58385904952381
2.5370285,3.3712558715142857,-11.184323134857143,0.19602523180190476,12.394293749523808
2.5469745,2.8198719418000002,-11.167241023142857,0.053264737711428554,12.250923423333333
2.5569205,2.2860826041809523,-11.131155070761904,-0.12712932728857146,12.14007555047619
2.5668665,1.6700604480380956,-11.038434435666668,-0.32327495600285716,11.981076969047617
2.5768135,0.9622260078000001,-10.899115306285713,-0.5332159484314286,11.77554898857143
2.5867595,0.20779880927619052,-10.739334124238095,-0.7649504880980952,11.558278271904763
2.5967055,-0.5210892826761905,-10.56322339542857,-1.0336541601457143,11.351230460476192
2.6066515,-1.1528904008666665,-10.424468049,-1.3287517738123809,11.229841325238096
2.6165975,-1.7242453703428573,-10.307077732714285,-1.61611357686,11.18507317904762
2.6265435,-2.273742668057143,-10.127947835619048,-1.8287634172409524,11.11533748
2.6364895,-2.803409607247619,-9.936096736380952,-2.031013093555238,11.055070429999999
2.6464355,-3.325473662533333,-9.760346947809523,-2.2560598385980954,11.047220631428571
2.6563815,-3.805012004295238,-9.594207420238096,-2.4832637328790477,11.07424058047619
2.6663275,-4.239360529719048,-9.437398071761905,-2.6885106919571427,11.132853069523808
2.6762735,-4.656039075704761,-9.303353576714287,-2.8632444294904764,11.222509136190476
2.6862195,-5.023219813490477,-9.19144296447619,-3.0125983831904763,11.30011815095238
2.6961655,-5.268368394909524,-9.10439073152381,-3.1158295555238094,11.316952091904762
2.706111208,-5.36913207004762,-9.036641326952381,-3.128818309761905,11.273625427666667
2.716057208,-5.334473492833333,-8.97132419704762,-3.0550751785047616,11.198749633714286
2.726003208,-5.140407147976191,-8.879566403428571,-2.918501205647619,11.123506577095238
2.735949208,-4.832395986404762,-8.771251327809523,-2.7609686400761904,11.071560241952382
2.745895208,-4.436017372119048,-8.650344663,-2.6641302599561905,11.034774556523809
2.755841208,-3.9663972028333334,-8.495000905095239,-2.7005768739561904,11.019596545095238
2.765787208,-3.5105203709761903,-8.30657513247619,-2.88828889648,11.017491260809525
2.775733208,-3.1050705395,-8.080961903619047,-3.0818345189561906,10.947896764380953
2.785679208,-2.7938718100238096,-7.828407962809523,-3.0659743920038096,10.653886790047618
2.795626208,-2.531230308414286,-7.64512167004762,-2.8879533916133333,10.363635428380952
2.805572208,-2.2664476121333332,-7.565245362952381,-2.6310046417085715,10.18163254552381
2.815518208,-1.9434552714476194,-7.548895072285714,-2.3168423206133335,10.071237350619047
2.825464208,-1.5220948320666667,-7.566641316095239,-1.9471984432323812,10.001971237285714
2.835410208,-1.0201314437333333,-7.646851025857142,-1.616859396327619,9.993518165857143
2.845356208,-0.5008649470190476,-7.717464842142856,-1.349590777184762,9.945996995857143
2.855302208,0.0005883413619047444,-7.720154978999998,-1.1515997741800001,9.780186922999999
2.865248208,0.4664360958857142,-7.721603863333333,-1.0385589996085716,9.599349740809524
2.875194208,0.9367615089809523,-7.7653629495238095,-1.0327994086561905,9.476098215095238
2.885140208,1.4370372237904763,-7.826431603904762,-1.1150678116561905,9.398121976523809
2.895086208,1.9185452140285715,-7.925827392333334,-1.20826992318,9.391238252238095
2.905032208,2.3082761984095237,-8.059261243380952,-1.260474254322857,9.471766980809523
2.914978208,2.5611147872666664,-8.223502013238095,-1.3036595616085715,9.630672353619047
2.924924208,2.685179616766667,-8.438280073238095,-1.3546048445323808,9.857932100428572
2.934870208,2.679261844719048,-8.691997164333333,-1.412544960122857,10.097960866571428
2.944816208,2.614724761242857,-8.932487714714286,-1.469767651932381,10.289760889809523
2.954762208,2.5216756518142858,-9.13774118942857,-1.4328287545714287,10.425248503333334
2.964708208,2.4574153643380954,-9.320757368571428,-1.219149859952381,10.51178563
2.974654208,2.45795002257619,-9.514217983666665,-0.8244025213809524,10.559235347142858
2.984600208,2.5201234109095236,-9.739121137809523,-0.36155241152380946,10.641097216428571
2.994546208,2.7541291761952382,-9.969179642714286,-0.04739797023809523,10.942360753142859
3.004492208,3.0945808294428567,-10.109689209333332,0.14649863832380955,11.238123295285714
3.014439208,3.4760244994000002,-10.095277994571429,0.33522254932380957,11.43526500957143
3.024385208,3.811343076952381,-9.99819962452381,0.5296348962285714,11.577963730190476
3.034331208,4.037234299142857,-9.85681762542857,0.6808024613238095,11.640461727333335
3.044277208,4.166656180571429,-9.671785326142857,0.7956651238476191,11.614481687333333
3.054223208,4.297758941619048,-9.468759585095237,0.9282540034190476,11.574498103761906
3.064169208,4.539325936380952,-9.271006584666667,1.0797817082714285,11.59595867647619
3.074115208,4.912736645809524,-9.033910064714286,1.2588271269380953,11.654437620095237
3.084061208,5.318415298333333,-8.724302752476191,1.5246059451285716,11.657580957238096
3.094007208,5.677550309190476,-8.461455763047619,1.8701745733666666,11.595718770476191
3.103953208,6.126181243476189,-7.971564619916666,2.308304910795238,11.578100422380952
3.113899208,6.599154136428571,-7.38768934165,2.730653390414286,11.614196464285714
3.123845208,7.048475794142857,-6.810903506092857,3.004401009890476,11.599706570952382
3.133791208,7.443342137238095,-6.154793646721428,3.179965782938095,11.49563047047619
3.143737208,7.667526417952381,-5.550818258573809,3.1733314833333335,11.206482249666667
3.153683208,7.989065057285715,-4.7522472269071425,3.1935998836,11.096317191571428
3.163629208,8.321823027619047,-3.8823635252880955,3.310639923928571,11.134528586333332
3.173575208,8.670599222523808,-3.2319481025261907,3.3110290700714287,11.205118741571429
3.183521208,9.012962107952381,-2.583777537097619,3.3511547800238097,11.312725381571429
3.193467208,9.345612962761905,-1.9347432543357144,3.4089191589285712,11.42624199252381
3.203413208,9.628102002809523,-1.3582421782404763,3.400270904214286,11.508866633952382
3.213359208,9.888216476904761,-0.8181493472880954,3.3587002080714283,11.583992323
3.223305208,10.146692421904762,-0.33544986152619055,3.299242433738095,11.684549703952381
3.233252208,10.419043754333334,0.14670341075952378,3.2600123501666665,11.80690374252381
3.243198208,10.74611569747619,0.6377017383309523,3.266451526785714,11.99952123204762
3.253144208,11.106736569428572,1.14730824495,3.3443122151190474,12.274297938238098
3.263090208,11.449827516809524,1.6398411881880952,3.4870945388333334,12.594907865142856
3.273036208,11.720932835238095,2.0859848284261906,3.6945600985476195,12.916784343857143
3.282982208,11.875137082095238,2.4926757175214282,3.9540833844523813,13.16396870195238
3.292928208,11.974265569666667,2.8577825175690474,4.203679796642858,13.368833270999998
3.302874208,12.091659338761906,3.2818086190452385,4.398970569357143,13.546923520142858
3.312820208,12.065106464476191,3.515104894342857,4.4796038402619045,13.593683146333333
3.322766208,11.965716328285714,3.6643463865999997,4.502087553880953,13.541625066809523
3.332712208,11.850279872809525,3.826825418185714,4.606457568880952,13.498569528714286
3.342658208,11.761936240809524,3.9095596493857143,4.749136696214286,13.484908100142858
3.352604208,11.799035348380952,4.038467337809524,5.027589117647619,13.609647005714285
3.362550208,11.662514919285714,3.922024994285714,5.265169230190476,13.532359937285715
3.372496208,11.455933013142857,3.6608612789999997,5.383757835952381,13.323791897
3.382442208,11.147772859,3.5336103016571423,5.580344010571428,13.089297207857143
3.392388208,10.82117601604762,3.319993443209524,5.702884443095238,12.813113098904761
3.402334208,10.488035220285715,3.011895937733333,5.746488452809524,12.524161335619047
3.412280208,10.104849024142856,2.666584496495238,5.781758439952381,12.239523725285713
3.422226208,9.666075604476191,2.2559657542571427,5.778393952047619,11.958433760761904
3.432172208,9.167347285857144,1.7808814594000002,5.681024836190476,11.665398198333333
3.442118208,8.643220277000001,1.258129966447619,5.467840755190476,11.344934494142857
3.452065208,8.103789044428572,0.6840442915428571,5.170280377809523,11.00195287990476
3.462011208,7.566657716666667,0.04370183920952381,4.804750789261904,10.652968802380952
3.471957208,7.028136978999999,-0.6335054422666666,4.414008709909048,10.324288099190476
3.481903208,6.486373236523809,-1.3319081566000002,4.026418516480476,10.027615102095238
3.491849208,5.950962271142857,-2.0126161939333334,3.642361865042381,9.747987099142856
3.501795208,5.410539656995239,-2.680575240742857,3.2379762825185714,9.494777380285715
3.511741208,4.823250802028572,-3.348311480742857,2.8232488967090474,9.302902026952381
3.521687208,4.178380933980953,-4.0046866086,2.3799154005185716,9.188561986952381
3.531633208,3.4671241463142852,-4.61055983607619,1.894976653947143,9.142432342190475
3.541579208,2.7551034338380953,-5.1846236535047625,1.3451486265185713,9.174525982666667
3.551525208,2.0157022152190476,-5.721775279361905,0.7610086086138095,9.283055083619049
3.561471208,1.2360764130285715,-6.211966718980952,0.15179606413761904,9.448196583619048
3.571417208,0.4235629463619047,-6.695557849457143,-0.47889372105285716,9.719806050619047
3.581363208,-0.4222835198761904,-7.154950166552381,-1.1234030106242858,10.055518301380951
3.591309208,-1.2742485962095238,-7.5757120181142845,-1.7674563844814286,10.414841804809523
3.601255208,-2.106842041828571,-7.927609428952381,-2.384273901148095,10.782429204714285
3.611201208,-2.884870635114286,-8.186923168761904,-2.977863270148095,11.164873484666666
3.621147208,-3.5703940218285712,-8.357732143761906,-3.5296845855290475,11.533146302142857
3.631093208,-4.1809965608285715,-8.428553564095237,-4.02255708491,11.852730365714287
3.641039208,-4.746421479114286,-8.405509018952381,-4.44801216238619,12.106479200523811
3.650985208,-5.282322914590476,-8.340591309523811,-4.801671756957619,12.301499782333334
3.660931208,-5.811092222638096,-8.236071856380953,-5.1063967555290475,12.455037330380952
3.670877208,-6.321857285447619,-8.109824233428572,-5.3651155202671434,12.574083197904761
3.680824208,-6.821784728971429,-7.948369439142857,-5.573371038866666,12.652389107761906
3.690770208,-7.309720424209523,-7.748815607666666,-5.727467348961905,12.691283645809525
3.700716208,-7.767678029495238,-7.55038232547619,-5.831908115285714,12.730350433047617
3.710662,-8.174270406919048,-7.358029047714286,-5.86482810647619,12.761715061809522
3.720608,-8.511342982095238,-7.149221844333333,-5.808713463761905,12.751588986809525
3.730554,-8.726955077619047,-6.91006530852381,-5.670862104,12.656605975952383
3.7405,-8.806584492999999,-6.653363979380952,-5.465773524428572,12.462410324714286
3.750446,-8.781080497619048,-6.3847725878095245,-5.1827061427666665,12.165683986476191
3.760392,-8.660683626476189,-6.082672265142857,-4.856557057430096,11.779517004238095
3.770338,-8.43963860447619,-5.785687365190476,-4.486988080058667,11.320587064333333
3.780284,-8.087255986095238,-5.464666037380953,-4.050622710772952,10.761121427333332
3.79023,-7.606371643057143,-5.116459500428571,-3.5565591613919993,10.139508358666667
3.800176,-7.049588046180952,-4.722326230916667,-3.0569420379634287,9.488519545428572
3.810122,-6.327812479466665,-4.358299703978572,-2.5344406109634283,8.975068704142856
3.820068,-5.49152662875238,-3.976228530316666,-1.9917755897729523,8.59365703642857
3.830014,-4.577662983180953,-3.5588364012690477,-1.4505300219634283,8.356420520142857
3.83996,-3.577196533085714,-3.1400432515071426,-0.9235962662491427,8.269927890142858
3.849906,-2.478449831895238,-2.695697351697619,-0.42112099596342856,8.333328228238095
3.859852,-1.311024798038095,-2.2017764744119046,0.04608645898895247,8.532258650619047
3.869798,-0.08650802408571424,-1.674856835554762,0.4917590642270477,8.824539650142857
3.879744,1.1690316817238098,-1.1188488302214286,0.9082009372270476,9.181778003000002
3.88969,2.444455261961905,-0.5743221112690476,1.2734032417984762,9.576948589190476
3.899636,3.712086424914286,-0.06966287807857145,1.576076953560381,9.978087258238096
3.909583,4.929975268438095,0.39674439935,1.8395318585603813,10.349768116809523
3.919529,6.070641577628572,0.8334781571595238,2.0952778501318092,10.677832678809523
3.929475,7.140861412533333,1.2487449207785715,2.366544913655619,10.969136686190476
3.939421,8.131090696580953,1.6171678856357143,2.657378716798476,11.273046685142857
3.949367,9.039727126295238,1.9266603279214285,2.947166978608,11.610143659714286
3.959313,9.856608630295238,2.186744382683333,3.2040432961365712,11.97345822890476
3.969259,10.593087716914287,2.374265869492857,3.416450839038095,12.325137060190476
3.979205,11.232798586485714,2.4853128896690473,3.5645235285714287,12.640746137238095
3.989151,11.736829856533333,2.5319537065166666,3.6147973318571425,12.89869735295238
3.999097,11.970327526638096,2.4588439226595233,3.522225470080952,12.997944782000001
4.009043,11.97607968327143,2.2180214176238096,3.3797288803238095,13.126319543428574
4.018989,12.030854088461904,2.0608226027333334,3.2988227393714284,13.19712391995238
4.028935,12.183922109985716,1.9561791468809522,3.22317252132381,13.323688635285713
4.038881,12.186554554319047,1.7196848065952381,3.056313145580953,13.313094899714285
4.048827,12.13276740974762,1.400738669547619,2.8976521787285714,13.268848399238095
4.058773,11.884214830128572,1.0080717424999999,2.8162214033,13.067475511619048
4.068719,11.465262078985713,0.5510082878809522,2.7945373382047616,12.73273757909524
4.078665,10.910595675461904,0.01683760040476191,2.7988630248238096,12.309596652619048
4.088611,10.234966000366667,-0.564082049547619,2.8391751217285717,11.823161127809524
4.098557,9.49030849665238,-1.143488551452381,2.9151391681571432,11.307169635047618
4.108503,8.723795270319048,-1.6916993225476191,3.0124512875857143,10.79014209
4.118449,7.985037022747618,-2.212838543261905,3.096468732014286,10.300009531714286
4.128396,7.329754321890476,-2.7220417312619047,3.1310697698238092,9.866723173904763
4.138342,6.748983831414286,-3.233549752452381,3.088468098204762,9.48745729895238
4.148288,6.200608642319047,-3.7512019721190475,2.9710572539190476,9.148338798428572
4.158234,5.644680214604762,-4.270564947880952,2.8061634057761906,8.848950001285715
4.16818,5.059767584452381,-4.776813036595239,2.611534851090476,8.595417548142857
4.178126,4.464203527119047,-5.245059068452381,2.3960215317514284,8.408008363619048
4.188072,3.884395488547619,-5.659210517438095,2.166821036084762,8.317395463190476
4.198018,3.3524385569285715,-6.02398449952381,1.9345993397990477,8.346741612857144
4.207964,2.994545912357143,-6.297143067714286,1.7662944453371427,8.570520134
4.21791,2.775184916276191,-6.449827790333333,1.6402022051895238,8.790361763809525
4.227856,2.317219208419048,-6.663083680666667,1.4333136681419045,8.945779511285714
4.237802,1.6425275382761904,-6.964049309380952,1.2042990999990475,8.92504968795238
4.247748,1.0052293134666666,-7.168940256571429,1.05959293098,8.922530551476191
4.257694,0.3015842083714286,-7.314190174857143,0.9193976521657143,8.843287991809524
4.26764,-0.30971442772380947,-7.450514750095239,0.7164552478323809,8.811493174761907
4.277586,-0.8498887299142857,-7.542801187666666,0.458395902832381,8.78703958757143
4.287532,-1.3260875319142857,-7.570449774714286,0.17112164092761908,8.75562705095238
4.297478,-1.7429401857238094,-7.54703070147619,-0.14049130807238092,8.723328128285715
4.307424,-2.1119604993428576,-7.494708173,-0.4672201308819047,8.679834422095238
4.31737,-2.4234488887238093,-7.427698162761906,-0.798708949215238,8.621886538952381
4.327316,-2.6908129636761906,-7.351282906142857,-1.1176643722152382,8.564581860999999
4.337263,-2.964544322295238,-7.272163479333334,-1.4168668426438094,8.517604709904763
4.347209,-3.262013316009524,-7.200415832238096,-1.7015301974533332,8.501536186380953
4.357155,-3.574970971438095,-7.132722143285714,-1.9636805538342856,8.519376842761906
4.367101,-3.879382503533333,-7.067297730904762,-2.2059356266914287,8.568086997095238
4.377047,-4.140430443952381,-7.013979839285714,-2.425815215100952,8.643847467571428
4.386993,-4.343114958190476,-6.972458454619047,-2.599622182857143,8.721035693142856
4.396939,-4.476851277333334,-6.92230813895238,-2.700722713333333,8.755898122809523
4.406885,-4.530821829571429,-6.836230609095238,-2.722345285238095,8.708084668190477
4.416831,-4.503385412904762,-6.710783302857142,-2.6890087634761906,8.578011926190475
4.426777,-4.418662794238095,-6.560040301333334,-2.6264199861904762,8.39462268352381
4.436723,-4.337293776571428,-6.382784436952381,-2.5676767276666665,8.191537507666666
4.446669,-4.309893612619048,-6.171381167285714,-2.4878659232857143,7.989616121714286
4.456615,-4.335518756809525,-5.93171078652381,-2.436514283238095,7.82618209047619
4.466561,-4.450624705285715,-5.673629500571429,-2.404207790285714,7.745419421666666
4.476507,-4.696588806238095,-5.430824427476191,-2.391701306,7.779173839666667
4.486453,-4.993714707666666,-5.354160023809524,-2.442888514,7.952983447476191
4.496399,-5.274130046428572,-5.466402702142857,-2.5741403372857143,8.250886373904763
4.506345,-5.4911420767142864,-5.669297771761905,-2.7555403879523808,8.589187855666665
4.516291,-5.613920852904762,-5.929251642571428,-2.961840207809524,8.925854212238095
4.526237,-5.617190170380953,-6.230745107761906,-3.1595893379523807,9.245844351380953
4.536184,-5.4649097131047615,-6.496556858238095,-3.314172707190476,9.493924590476192
4.54613,-5.117464038152382,-6.677819847380952,-3.435866657809524,9.690921565095238
4.556076,-4.6017117180571425,-6.790900487380952,-3.573205014904762,9.914710314999999
4.566022,-4.038941268628572,-6.912371130095238,-3.7989449890952383,10.184522324380952
4.575968,-3.5248918247714287,-7.099786559285714,-4.0922644087619044,10.484304552428572
4.585914,-3.115644839295238,-7.326402056809523,-4.338631856238096,10.739236035095237
4.59586,-2.8321947956809526,-7.515544614761904,-4.420176429666666,10.864324271666666
4.605806,-2.6082815473142857,-7.6894417828095225,-4.375658903857143,10.94849064909524
4.615752,-2.280503678314286,-7.875943849095238,-4.288384407161905,11.081050725809524
4.625698,-1.742457066504762,-8.044045396238095,-4.196479194123809,11.353595826285714
4.635644,-1.0812650859333335,-8.186065437904762,-4.118053638657143,11.745608661904763
4.64559,-0.4062032590761905,-8.316172585142857,-4.059982771676191,12.127241692190475
4.655536,0.23690361759047623,-8.456124884285714,-4.033927721442858,12.427980158619047
4.665482,0.8328591041619049,-8.626135658666666,-3.981094504838095,12.607607256809523
4.675428,1.448139833352381,-8.801304484761905,-3.9293605473666666,12.637159597047619
4.685374,2.1818815876380953,-8.905491816047618,-3.8752079622571434,12.521337336761903
4.69532,3.0469982769714283,-8.850991478238095,-3.7801654917714287,12.337615658095238
4.705266,4.006316367019048,-8.527766905619048,-3.5742202428714287,12.102530933666666
4.715213458,4.948773259066667,-8.080537368,-3.3719602016333337,11.867693970333333
4.725159458,5.633746004923809,-7.677854592000001,-2.968390055109524,11.523479889047618
4.735105458,6.16567361692381,-7.166230169495238,-2.4878175079666667,11.23374171904762
4.745051458,6.463140633742857,-6.632660102538095,-2.0192532205380953,11.006646256809523
4.754997458,6.538688135695238,-6.176291659109525,-1.6147209564428573,10.79110483647619
4.764943458,6.448476485123809,-5.754227911061905,-1.2121774904428573,10.494537632761904
4.774889458,6.306307033123809,-5.289551409490476,-0.7258821898238095,10.079980709714286
4.784835458,6.18145021212381,-4.685070989014285,-0.14395027549047623,9.574596415047619
4.794781458,6.134577149457143,-3.9905034911095236,0.4062619975571429,9.069542539428571
4.804727458,6.187243299271428,-3.32099674182381,0.7674480167476192,8.657320863904763
4.814673458,6.297302905714286,-2.6507481481095234,0.9820926486523811,8.325939579095238
4.824619458,6.3051459988095235,-1.968930671395238,1.1315544695285715,8.04297335452381
4.834565458,6.077175757333333,-1.326091430109524,1.2665825499666667,7.721965752095238
4.844511458,5.704511236142857,-0.728390076347619,1.4138899520714285,7.354539878285713
4.854457458,5.343903228,-0.15446673134761907,1.5893882304714286,7.035610554809525
4.864403458,5.083125039142857,0.40497258712857137,1.772762596952381,6.822585167190477
4.874349458,4.953991759571429,0.9606061200333332,1.9516247436809526,6.728206988142857
4.884295458,4.923158695380953,1.5144430541761904,2.131746502495238,6.723094604285715
4.894242458,4.8964998748571436,2.043601285652381,2.3180110015285713,6.754937271857143
4.904188458,4.80818444847619,2.559076169319048,2.5334623508047622,6.760269966
4.914134458,4.634858859714286,2.966990142747619,2.730228891142857,6.73350436947619
4.924080458,4.45005811,3.3054457097476186,2.983528386761905,6.692220494619048
4.934026458,4.459239742142858,3.7148820475571434,3.0594853330476193,6.806167481142857
4.943972458,4.514670344142857,4.034298885480952,3.0515259917142856,6.943970207809524
4.953918458,4.666752497285715,4.269270722190476,3.0332893614285714,7.144444859571429
4.963864458,4.881510258904761,4.500267037,3.095262065,7.431681307047619
4.973810458,5.148058675,4.7218711641904765,3.2342311618095234,7.792503716476191
4.983756458,5.484617419238095,4.9289288945714285,3.4226061471904763,8.227443301428572
4.993702458,5.891663401428572,5.092187638428571,3.615247233238095,8.699118783238095
5.003648458,6.331528078714285,5.238972242047619,3.8154744411904757,9.17800781742857
5.013594458,6.795642105904761,5.386551844238095,4.03347295247619,9.680008809619048
5.023540458,7.2593518121428575,5.489802618619048,4.222017367857143,10.155312543476189
5.033486458,7.696996997904762,5.521482665952381,4.37229715852381,10.575531822809523
5.043432458,8.120920773285714,5.474027192761905,4.496231400238095,10.952441980476191
5.053378458,8.529269236857143,5.355652038190477,4.606582727047619,11.288891637619049
5.063324458,8.898115526428573,5.186527172666667,4.720749668333333,11.576855263
5.073270458,9.20620654447619,4.991361509495238,4.843327244619047,11.810130891571427
5.083216458,9.452565137571428,4.779951974952381,4.953035266333333,11.983003371523811
5.093163458,9.66124310357143,4.544076297928571,5.026839490571429,12.100967421714286
5.103109458,9.85454653995238,4.271916865743333,5.057864259904762,12.178678395380953
5.113055458,10.038493261857143,3.9441646688004757,5.045117218428571,12.229496196571429
5.123001458,10.199279552380952,3.5638943958004767,4.992474791619048,12.255365831619047
5.132947458,10.346829890666665,3.1263366678480957,4.910291047952382,12.284990657904762
5.142893458,10.495630196666667,2.597811884752857,4.80690937947619,12.354539312190477
5.152839458,10.60772246252381,1.9993922144671425,4.6927336917142854,12.42871368647619
5.162785458,10.655745199190477,1.3774251106576192,4.575341259190476,12.475787220285714
5.172731458,10.613169171761903,0.7462248635147619,4.44825585552381,12.448319779809523
5.182677458,10.495764627285714,0.09784145941952377,4.316159903142857,12.36087267647619
5.192623458,10.311173180190476,-0.5575415072947619,4.167494138904762,12.223324383619047
5.202569458,10.090196542714287,-1.2226041497233333,3.9981829978095242,12.056990902666668
5.212515458,9.863377005428571,-1.8998023541042857,3.82068597752381,11.888012665047619
5.222461458,9.61288443095238,-2.5742554021519046,3.653630358095238,11.712765068380952
5.232407458,9.314261837238096,-3.214718585580476,3.524836801761905,11.529400813142857
5.242353458,8.974028396333333,-3.801310925675714,3.4231512156190473,11.340661714571429
5.252299458,8.611288576857143,-4.332687924866191,3.3142680410952385,11.152407802571428
5.262245458,8.257916080380951,-4.82082448586619,3.183399140857143,10.983654227428572
5.272192458,7.930866662857143,-5.281686431009048,3.017668222047619,10.840555675380951
5.282138458,7.634415195809525,-5.743111045361429,2.813436256095238,10.733139141666665
5.292084458,7.356628709571429,-6.22355297686619,2.5899679251904764,10.673403678333333
5.302030458,7.0714037297142855,-6.72271992036619,2.377874235057143,10.664134576904761
5.311976458,6.780784053047618,-7.2245527209428575,2.191105591219048,10.702540555952382
5.321922458,6.466417441380953,-7.6990125610952385,2.0283812341095238,10.759223077857143
5.331868458,6.118432319,-8.134007983238096,1.890079882342857,10.822900690904762
5.341814458,5.730789319619047,-8.511536107047618,1.7749725417142859,10.870777581380953
5.351760458,5.274367694233333,-8.799950102523809,1.6622654273904762,10.857592066142857
5.361706458,4.787912235379524,-9.022325867428572,1.538082940057143,10.814325715190476
5.371652458,4.305423834093809,-9.207688534428572,1.3880907418666666,10.76853272042857
5.381598458,3.867408519741428,-9.374625761857143,1.2001654978666667,10.741335660904761
5.391544458,3.4603524859414287,-9.521637181761905,0.9756097240571429,10.717989057571428
5.401490458,3.0730418868319047,-9.653381577190476,0.7312806159619047,10.701894936619047
5.411436458,2.696048254260476,-9.774680757190476,0.4781830162952381,10.697703153285714
5.421382458,2.315541224689047,-9.891493201476191,0.21045254367619046,10.705202650904761
5.431328458,1.9432859250699999,-10.004242944904762,-0.07188190689523809,10.724557131857145
5.441274458,1.5760110053080951,-10.116682395761906,-0.3689114267047619,10.759873090904762
5.451220458,1.2000253213557142,-10.234470489714285,-0.666545882704762,10.819111947571429
5.461166458,0.798202072260476,-10.348530900428571,-0.9486778525142857,10.895423142904761
5.471113458,0.3622062469747617,-10.448190955142858,-1.216345968752381,10.976558453761905
5.481059458,-0.09760759869190494,-10.537638263428573,-1.4794611505142856,11.072218041047618
5.491005458,-0.564790244739524,-10.600884170333334,-1.736475263895238,11.170794203333335
5.500951458,-1.0212235365966669,-10.623770812809523,-1.9802676532761903,11.25427570952381
5.510897458,-1.4742397713585715,-10.609408408380952,-2.21034937652381,11.329949328571429
5.520843458,-1.940938685644286,-10.563698217619049,-2.437407772542857,11.401596155238096
5.530789458,-2.415326493596667,-10.49513220752381,-2.6720151397666667,11.479604438095238
5.540735458,-2.8717190776919046,-10.408388150952382,-2.9150030914761906,11.568428357619048
5.550681458,-3.306056911072857,-10.309844914142857,-3.1687158669428572,11.667384886666666
5.560627458,-3.707832574972857,-10.204394695761906,-3.4093646818095236,11.76837205
5.570573458,-4.071611388785715,-10.088027976142858,-3.6193400961904763,11.85202370904762
5.580519458,-4.399660707833333,-9.965595104428573,-3.797335431476191,11.91254287857143
5.590465458,-4.710758057719048,-9.845570255238094,-3.9439657869047617,11.95684578952381
5.600411458,-5.0004669053,-9.730558140619047,-4.071299794714285,11.988237935238095
5.610357458,-5.2520183270952385,-9.626065111380953,-4.1880031189523805,12.009477145238098
5.620303458,-5.4506547582380955,-9.523251541714286,-4.306295876476191,12.015523317619047
5.630249458,-5.5963452363809525,-9.412771409238095,-4.436327149142857,12.00642866047619
5.640195458,-5.705108097428572,-9.305539042809524,-4.5631529782380955,11.989446330476191
5.650141458,-5.763471161619047,-9.18632999195238,-4.666295537380952,11.939407634285715
5.660087458,-5.750648997333333,-9.053775172571429,-4.752966336904762,11.852516480238094
5.670034458,-5.634285479857144,-8.911356935380953,-4.8008483784285705,11.716094869380953
5.679980458,-5.392598422238096,-8.750470072999999,-4.785271771809524,11.523817071142858
5.689926458,-5.03594215752381,-8.564252459428573,-4.709052459571429,11.29698093804762
5.699872458,-4.5996330328571435,-8.373518289619048,-4.59916526247619,11.072768339095237
5.70981775,-4.140843619380952,-8.20658298357143,-4.490406717238095,10.869146986761907
5.71976375,-3.679654842714286,-8.066507948571429,-4.412233105428571,10.672764489238096
5.72970975,-3.2447334293809527,-7.961358249095237,-4.363898280619047,10.482314107428572
5.73965575,-2.845186055809524,-7.89650396804762,-4.327358417476191,10.305743965190477
5.74960175,-2.450505124942857,-7.868757481904763,-4.290720181857143,10.148768265000001
5.75954775,-1.9958050591809524,-7.848503757142858,-4.238412215761905,9.989944417285715
5.76949375,-1.411174543466667,-7.794296754619048,-4.1497317839047625,9.824252091904762
5.77943975,-0.681515788514286,-7.6803973930476195,-3.9966170403333328,9.695155569523811
5.78938575,0.20787592281904743,-7.508216382809524,-3.7944315719999997,9.695465935238095
5.79933175,1.2161709316285712,-7.301286093904762,-3.630741916190476,9.83608848047619
5.80927775,2.230712966533333,-7.053682837428572,-3.5008558771904768,10.012681993809524
5.81922375,3.1546214878666667,-6.7507864302857135,-3.3926557061904763,10.13215627142857
5.82916975,3.8938356514380947,-6.408277524666667,-3.241059568047619,10.10807338952381
5.83911575,4.486425452771429,-6.055508168690476,-3.0169622994666665,9.969364498285714
5.84906175,4.95829614572381,-5.692655713914286,-2.760953747027,9.736146588809524
5.85900875,5.30651908272381,-5.3521682395,-2.4965157649889047,9.446130263428572
5.86895475,5.549455578961904,-5.0309308153095245,-2.206183228322238,9.13889867904762
5.87890075,5.714203497295237,-4.710720844366667,-1.909834923036524,8.883051437714286
5.88884675,5.822643285771429,-4.396034334304762,-1.641957852417476,8.718583100904763
5.89879275,5.8920660799619045,-4.078421264961905,-1.4010813789889045,8.62284010947619
5.90873875,5.925068238438095,-3.7401268305476187,-1.1656668245127142,8.547913822571429
5.91868475,5.925564973342857,-3.3698890431190476,-0.914661588322238,8.449019917476189
5.92863075,5.919521430485714,-2.9649981775952376,-0.6312438853698572,8.315676820666667
5.93857675,5.943652973009524,-2.515652059166667,-0.31668398146509524,8.141980545809524
5.94852275,6.009756386390476,-2.0206836392619048,0.013159402582523853,7.919936186714286
5.95846875,6.103750962714285,-1.4883047614523808,0.3471111238682381,7.666890249428571
5.96841475,6.155914307714286,-0.9495228205,0.6768258204396667,7.412380188333334
5.97836075,6.078927165571429,-0.44466868011904764,0.9751430711539525,7.162882725952381
5.98830675,5.846931311047619,-0.0070154476428571245,1.2047184150587142,6.892579868714286
5.99825275,5.451304634809524,0.36453813040476185,1.3826274761063333,6.529742830619047
6.00819875,4.943961000523809,0.7017636798809525,1.5980670230587142,6.078366387142857
6.01814475,4.4270181314285715,1.0118337714047618,1.850154787677762,5.638816840190477
6.02809175,3.982355284809524,1.2825776762142855,2.131092609868238,5.287389873571429
6.03803775,3.6866660440952383,1.5134785908809523,2.383238317582524,5.097946978714286
6.04798375,3.5048318933809526,1.7301586524761905,2.5853574757158575,5.031275615619047
6.05792975,3.431674955952381,1.9380524720333334,2.762067648704762,5.072075771190477
6.06787575,3.4583324399523807,2.148549186619048,2.9176632893333334,5.206007481666667
6.07782175,3.5520807371428567,2.3677113773809526,3.0492949867142856,5.39722496
6.08776775,3.666006132761904,2.569509077866667,3.159053865238095,5.590288439999999
6.09771375,3.7543245940952383,2.742389832757143,3.25413534152381,5.751902747428572
6.10765975,3.7961857297619046,2.874522901033333,3.3482853702380955,5.874908568761906
6.11760575,3.811654176809524,2.9654034591428573,3.451161003952381,5.979458638285714
6.12755175,3.8450968533809524,3.041625145095238,3.5728643936666664,6.109936526333333
6.13749775,3.918743035714285,3.1158448557619045,3.7164762423333335,6.282885544523809
6.14744375,4.036182385190476,3.1847971300476186,3.8821940745238095,6.4956379264285715
6.15738975,4.195285624285714,3.252530524380952,4.068714685047619,6.7452486983333335
6.16733575,4.3717024410952385,3.3047207943809527,4.260597470761905,7.000454534904761
6.17728175,4.570877512190476,3.314328270904762,4.437958967904762,7.2451771046190485
6.18722775,4.799094172047619,3.269936070428571,4.599596397190476,7.4861279750000005
6.19717475,5.031571697952381,3.1984167431904758,4.767176692857143,7.727992169857141
6.20712075,5.251657832285714,3.1269091381904763,4.946376526714285,7.970262510523808
6.21706675,5.462512299047619,3.053252152428572,5.127819053238095,8.208407108761905
6.22701275,5.682015131809524,2.9749184243809523,5.301639803714286,8.445397962857143
6.23695875,5.922266336,2.902297815809524,5.456298936190477,8.68712283042857
6.24690475,6.199953725857142,2.8447622161904764,5.580791768,8.945419976714286
6.25685075,6.510165194523809,2.789349907619047,5.6648419707619055,9.21128464152381
6.26679675,6.835067263666668,2.723753113761905,5.699890571190475,9.470700277333332
6.27674275,7.167172350809524,2.6445090856190476,5.689039712095238,9.721971734619048
6.28668875,7.48297659795238,2.5456154335714283,5.633641339380953,9.940434017095237
6.29663475,7.7448616089047615,2.4372604575714285,5.527353576857142,10.094679617857143
6.30658075,7.940794816619048,2.3130294000666667,5.384125959857142,10.175120320095237
6.31652675,8.085119246,2.1699334150054286,5.2223635741428565,10.194404976047618
6.32647275,8.198202698238095,2.0026112182149527,5.051370154285714,10.172507213666666
6.33641875,8.292869258857142,1.7943868012149524,4.877490722809524,10.123213120238095
6.34636475,8.356922916857142,1.5522364213578095,4.704600974333333,10.043888740761904
6.35631175,8.376056927666667,1.2789605329768572,4.523215110142857,9.927667664904762
6.36625775,8.34577263852381,0.9703115515482859,4.324574725142857,9.772715177666665
6.37620375,8.257469212857142,0.6490261384530476,4.1242741207142855,9.58781487595238
6.38614975,8.100243848857142,0.3503565303578095,3.9390548289047613,9.38422746647619
6.39609575,7.883185486333334,0.08953493288161904,3.767208175,9.167977711
6.40604175,7.63868600152381,-0.1547287977374286,3.58123698,8.938925474142858
6.41598775,7.378476718904762,-0.4094089532612381,3.3636892055238095,8.692376740666667
6.42593375,7.0960366564761905,-0.6806750700707619,3.110089476238095,8.422841320333333
6.43587975,6.778280525285714,-0.9754902075469525,2.830214281042857,8.12916986890476
6.44582575,6.420811887380952,-1.2981515818802858,2.536009732095238,7.818094421904762
6.45577175,6.0156524397619044,-1.6502312587850476,2.245927303109524,7.495646403809523
6.46571775,5.560394466285714,-2.021527030308857,1.9821700413714287,7.176526554904761
6.47566375,5.066120250071428,-2.39964040468981,1.7506572364619046,6.871864792380953
6.48560975,4.534849168919048,-2.777056568213619,1.5488371495,6.586210091285714
6.49555575,3.993193739080952,-3.1531103026421903,1.3714425111714286,6.33861780052381
6.50550175,3.476261228228571,-3.5267433733088573,1.2172053388857142,6.158913881
6.51544875,3.000607331052381,-3.8951681062326666,1.0712466684095237,6.065850379333334
6.52539475,2.5594314017666666,-4.250164068028572,0.9228116464571428,6.042786092285715
6.53534075,2.132359207195238,-4.581513499904762,0.768785050504762,6.059787341142857
6.54528675,1.7097097351952382,-4.884440256904762,0.5938629212190476,6.093948373238096
6.55523275,1.2933797946238095,-5.166223788380953,0.4131903581904762,6.136284554714285
6.56517875,0.8893451007190475,-5.420490935571429,0.24015941338571428,6.192132771380953
6.57512475,0.5097879652904761,-5.645396289380953,0.08396374403809521,6.263529127666668
6.58507075,0.17273212429047607,-5.849549833047619,-0.05304776765238096,6.353944590904762
6.59501675,-0.12152791751904772,-6.041041760285714,-0.17797429056190475,6.466363638380952
6.60496275,-0.383994865804762,-6.225925763,-0.29020542237142855,6.598977612666666
6.61490875,-0.6187849933761905,-6.410757474904763,-0.3820947800523809,6.747624916761905
6.62485475,-0.8277473846619049,-6.594738305523809,-0.4514423139214286,6.903368242523809
6.63480075,-1.013343299804762,-6.778452447476191,-0.4977962830785714,7.064154029
6.64474675,-1.1805562650428572,-6.964656723666668,-0.5257068793452381,7.234941059619048
6.65469275,-1.3392714160904764,-7.152393039952381,-0.5288671862880953,7.415575689666666
6.66463875,-1.4857934239952382,-7.3336507387619045,-0.5052859224404761,7.595332934000001
6.67458575,-1.6058878548523812,-7.504858549571429,-0.4718758788928572,7.768755758999999
6.68453175,-1.7228990489238096,-7.660453041619048,-0.432843015297619,7.929889391333334
6.69447775,-1.849514350390476,-7.799011308904762,-0.38691619917380954,8.081677379666667
6.70442375,-1.9946143989809524,-7.915440621476191,-0.3380271557595238,8.222555517904762
6.714370083,-2.1511899146047617,-8.00120688457143,-0.28755201507428574,8.34248169152381
6.724316083,-2.3048266753333335,-8.055915745285715,-0.23084354236952387,8.434875217238096
6.734262083,-2.449664128285715,-8.09506605609524,-0.1807969190647619,8.514138838238095
6.744208083,-2.577203930190476,-8.12171696895238,-0.14778022606952382,8.581598965714287
6.754154083,-2.6961962166190476,-8.141148268904763,-0.1252351166695238,8.642791233285713
6.764100083,-2.8150926643809524,-8.168592676761905,-0.13385677349809524,8.717160909285715
6.774046083,-2.9393504520000002,-8.211026227047618,-0.17205858240761907,8.814024031809524
6.783992083,-3.1013291011904762,-8.258671651238094,-0.23421660091714286,8.940965353142857
6.793938083,-3.2976630937619045,-8.305869791285714,-0.32000747798857143,9.09074386347619
6.803884083,-3.476191200904762,-8.341593216095239,-0.4014764813647619,9.218370281238096
6.813831083,-3.5845345659999994,-8.337904179904761,-0.4576907756028572,9.26847874047619
6.823777083,-3.6007599211428567,-8.275705676380952,-0.4846929929980952,9.217450970428573
6.833723083,-3.5316665479809526,-8.15896002947619,-0.494565597662381,9.08932496704762
6.843669083,-3.401829625628572,-7.996148096380952,-0.5106521510814286,8.922479165190477
6.853615083,-3.226553906866666,-7.794263648238094,-0.5600274339814286,8.740216608857143
6.863561083,-3.0280145116285717,-7.570374651904762,-0.6656968969480953,8.558628315761904
6.873507083,-2.854116953771429,-7.348438611666667,-0.841570061905238,8.394248063666666
6.883453083,-2.7355731209714285,-7.141527200857142,-1.0815529902861905,8.269608290095238
6.893399083,-2.6462387755,-6.968317804619047,-1.3644750843052382,8.199826986238095
6.903345083,-2.546764244333333,-6.816384115047619,-1.6515703378480953,8.146491958714286
6.913291083,-2.4139815504238094,-6.6659866561428585,-1.9339333840766666,8.085150231809523
6.923237083,-2.2370673304714286,-6.534562465333333,-2.201294116,8.023873249190476
6.933183083,-2.0309283647142857,-6.41798196047619,-2.435948368847619,7.95067305552381
6.943129083,-1.7823135538333337,-6.291883079571428,-2.6265078165809523,7.8448422699047615
6.953075083,-1.4623728193571428,-6.152576201619048,-2.7763570851000003,7.724038498714285
6.963022083,-1.0701485265000001,-5.978469675428571,-2.8861447124523814,7.588375037571429
6.972968083,-0.6333882195476191,-5.7527318034285715,-2.9427865547380954,7.415622709952381
6.982914083,-0.1543330527380953,-5.47997840552381,-2.9504909922619045,7.212144924238094
6.992860083,0.3754141882619047,-5.169769442619048,-2.9235221927857142,6.972271121571429
7.002806083,0.9162131401666666,-4.829769932238095,-2.870894878214286,6.687849630714287
7.012752083,1.4026630022142856,-4.481672431938096,-2.8171291734047617,6.390108459761905
7.022698083,1.791490452547619,-4.159744938842857,-2.7814139834095237,6.1343522389047624
7.032644083,2.064657972547619,-3.8842282582047623,-2.767755917866667,5.952337524047619
7.042590083,2.230924552004762,-3.6483995955476187,-2.7589388731066666,5.832664285523809
7.052536083,2.314543355557143,-3.4381261750000003,-2.7249041729066668,5.742259580523809
7.062482083,2.333727568890476,-3.2484785988523805,-2.634258185592381,5.6512736330476185
7.072428083,2.321001660890476,-3.0671153160523814,-2.4697501284019046,5.54708466952381
7.082374083,2.326074510271429,-2.8775829021857144,-2.2212206451161904,5.428174675285715
7.092320083,2.3833563129,-2.6647150442190473,-1.8792891033542856,5.287259938571428
7.102266083,2.49512077252381,-2.406651299889524,-1.4564618481161906,5.119916790952381
7.112213083,2.6418675641190474,-2.1130206691085713,-0.999466123735238,4.957246598619047
7.122159083,2.806349684733333,-1.8096070896323808,-0.52355823464,4.819573379
7.132105083,2.970118389352381,-1.4846950523942857,-0.03923077263999998,4.708835394190476
7.142051083,3.127601086547619,-1.1357162374895238,0.43044192412190474,4.6331709106190475
7.151997083,3.2452746866190476,-0.781713912537143,0.8758060191219047,4.595871340238095
7.161943083,3.2940992436190477,-0.43099699887047616,1.2941939011219048,4.583346450047618
7.171889083,3.284359118857143,-0.10636128434666668,1.6856191579790476,4.5924860675714285
7.181835083,3.2417391537619045,0.18146407760571429,2.050255925407619,4.631382412428572
7.191781083,3.171710059047619,0.44335894546285715,2.399145869598095,4.692570640142857
7.201727083,3.0931247893333333,0.6779592055580952,2.7459590498838096,4.777287213857143
7.211673083,3.0368150167142858,0.887693081224762,3.0908622649790476,4.901429129428571
7.221619083,3.026895131809524,1.0838796404009523,3.4313435163123804,5.076988378952381
7.231565083,3.0627561332857143,1.2715353486390477,3.759480759364762,5.293862771047619
7.241512083,3.1366694219999998,1.4504585326676191,4.066421769136191,5.538834052666667
7.251458083,3.238960974571429,1.6144473014390475,4.345593321528572,5.799275469619047
7.261404083,3.3618416036666665,1.7589796410819045,4.596345087857142,6.065969455809524
7.271350083,3.5047793519523807,1.891119350124762,4.817691909714286,6.335999514619048
7.281296083,3.6648876439047617,2.017244070181905,5.01601753352381,6.606143162142858
7.291242083,3.8376498395238094,2.1497122396009525,5.192902893285714,6.872431516380953
7.301188083,4.01405379247619,2.299617752777143,5.344809254095238,7.128653852571429
7.311134083,4.193719962666667,2.457360261257143,5.4658724572380954,7.3700301547619045
7.321080083,4.3925169138571425,2.6022542651428573,5.557349514857143,7.603682950380953
7.331026083,4.609424975095238,2.7383064714761907,5.622543435571428,7.833677812761905
7.340972083,4.832917474523809,2.869536506904762,5.667171167428571,8.057844251333334
7.350918083,5.077109033809523,2.9750890238571426,5.684931472380952,8.276581964190475
7.360864083,5.364587057238095,3.0260046843809527,5.665024167285714,8.492079289190476
7.370810083,5.688504817190475,3.0142986143333332,5.627656978809524,8.715058618190476
7.380757083,6.017270781904761,2.9804273647142856,5.600309801809523,8.942410161142856
7.390703083,6.350134002190476,2.96327698,5.59002560752381,9.178988106333334
7.400649083,6.693269193428573,2.9569214742380954,5.580566594571429,9.419805209571429
7.410595083,7.040282787,2.963979147047619,5.552733179809524,9.654315261380951
7.420541083,7.386770465238095,2.983076431809524,5.49634879947619,9.878438897142857
7.430487083,7.723158303380953,2.9975935647142853,5.397834757,10.079646551428572
7.440433083,8.045203784761904,2.991191865952381,5.25504526352381,10.255475064761905
7.450379083,8.347430128952382,2.953991128190476,5.078795718857142,10.407672343190477
7.460325083,8.623215308142857,2.884284187190476,4.8788875182857145,10.536188875666667
7.470271083,8.87160277395238,2.7816925053809523,4.659671881238095,10.642109249714284
7.480217083,9.097983825857144,2.6428503140238098,4.427109883957143,10.73141115647619
7.490163083,9.313720021380952,2.461801973404762,4.18246675952381,10.815253157285715
7.500109083,9.520099808714285,2.2318562362142855,3.940454520147619,10.897492941714285
7.510056083,9.710059389523808,1.9458734850714283,3.7100294991952385,10.968625076380953
7.520002083,9.868868875666667,1.6043697227857143,3.4892893677190475,11.023182883
7.529948083,9.971491269285716,1.220552417357143,3.2746121375761907,11.05277054095238
7.539894083,10.008968998,0.7973326190714287,3.0669809902428575,11.049125758285715
7.549840083,10.00078406552381,0.3247468116428572,2.867793278004762,11.02923858352381
7.559786083,9.917554046142858,-0.15774181240476187,2.685632657766667,10.972254266095238
7.569732083,9.757762060714287,-0.6183197221190475,2.5348653624333335,10.893643675619048
7.579678083,9.522827590523809,-1.0458537074999998,2.3966489623380958,10.784356747142857
7.589624083,9.243653671619048,-1.4673970255476187,2.2347220471476192,10.645356068380952
7.599570083,8.940926249047621,-1.9131009829761905,2.0256731170952382,10.476975607904762
7.609516083,8.617947941571428,-2.392756714547619,1.785161990252381,10.295023371714285
7.619462083,8.27007522495238,-2.912419847404762,1.5352309994085713,10.112860600142858
7.629409083,7.8964496164761915,-3.4656346656428574,1.2933283048228572,9.933839116238094
7.639355083,7.49732569295238,-4.039378389785714,1.0785224985990478,9.775173351047618
7.649301083,7.0719421187142855,-4.614544351690476,0.9016780971895239,9.647969597238095
7.659247083,6.622298502190476,-5.173713417499999,0.75644404988,9.552864825190476
7.669193083,6.156100694371428,-5.707182856738095,0.6346814919085715,9.489039856714285
7.679139083,5.678180694614285,-6.207717241261904,0.5358529492895239,9.452377671285713
7.689085083,5.192334348651428,-6.670181184285714,0.4545469318561905,9.43809916147619
7.699031083,4.6842405725514284,-7.080237146,0.37829268947047623,9.42416391547619
7.708977083,4.168629588170476,-7.461206384095238,0.29697910198000005,9.420850619285714
7.718923,3.6652730589323803,-7.819674422619047,0.19962010038952388,9.430056031666666
7.728869,3.148301566503809,-8.123621825095238,0.07980868167523814,9.426695968333334
7.738815,2.6297404667419046,-8.378290258333333,-0.05037807818190472,9.424973219761906
7.748761,2.123141879218095,-8.600296423380952,-0.18624528275333332,9.444092324809523
7.758708,1.619270600122857,-8.786472549238095,-0.3298920685628571,9.46806657052381
7.768654,1.1437972426942855,-8.951828021095238,-0.47661530422952375,9.515002001285714
7.7786,0.6907457297895236,-9.092173670809522,-0.6302737762295239,9.575715549857144
7.788546,0.2613253491228569,-9.219523466047619,-0.7863770038485715,9.65957729309524
7.798492,-0.141648492829524,-9.351789822999999,-0.9351557028961904,9.772014802333334
7.808438,-0.5264203422580955,-9.492118654761905,-1.066798419510476,9.906605923285715
7.818384,-0.8934813653057144,-9.623695318857143,-1.18675618562,10.040949202809523
7.82833,-1.2385062094485717,-9.732494154428572,-1.2988203920142858,10.16381064247619
7.838276,-1.605089013781905,-9.809360676857144,-1.4087756117142856,10.284221952571428
7.848222,-1.950260261115238,-9.893873435904762,-1.5218646048714286,10.419428342047619
7.858168,-2.293095183781905,-9.957464718142855,-1.6511776445571429,10.554154200142856
7.868114,-2.638957933972381,-9.989008024142858,-1.792333551295238,10.681028066476191
7.878061,-2.9837625330104762,-9.994983683619049,-1.938099068752381,10.800578055428572
7.888007,-3.3360106932533333,-9.977236019761905,-2.0879765675142856,10.919048808476191
7.897953,-3.695092466576191,-9.940312245095239,-2.244437766561905,11.040071209714286
7.907899,-4.030526568380952,-9.899035413285715,-2.39616136007619,11.159959443333335
7.917845,-4.352527471857142,-9.828700564809523,-2.5411790464952384,11.250256647142859
7.927791,-4.651722034619048,-9.741744922285715,-2.681009278095238,11.308247151428573
7.937737,-4.8866200293809525,-9.684906644809523,-2.8097737445238096,11.36925078904762
7.947683,-5.094119530857143,-9.632716291285714,-2.9418753352857143,11.43466733
7.957629,-5.260681171952381,-9.575014073857144,-3.0909060562857142,11.490314760952382
7.967575,-5.387422968190476,-9.503676316714285,-3.2567360227619044,11.529680997142858
7.977521,-5.476892272952381,-9.420747094809524,-3.4216817997619042,11.546304993333333
7.987467,-5.495679154095238,-9.327874042285716,-3.5653923759047617,11.518854400857142
7.997414,-5.403956777904762,-9.221603654380953,-3.667595454571429,11.427237630285715
8.00736,-5.210095405776666,-9.097040196571427,-3.7123909737142857,11.283359480857142
8.017306,-4.9438442230623805,-8.95517989547619,-3.706609741095238,11.115054391666666
8.027252,-4.638355633824285,-8.820561231380953,-3.67432334447619,10.960871477
8.037198,-4.316577342205238,-8.725529386619048,-3.6538314918571424,10.852783750238094
8.047144,-3.957235172871905,-8.681896433190476,-3.6692068150476196,10.783180458666667
8.05709,-3.623365423967143,-8.634545096333332,-3.726678540857143,10.720494794380953
8.067036,-3.2896609285385714,-8.601177097238097,-3.8078006668571427,10.671227267238097
8.076982,-2.9164803766338094,-8.584087412238095,-3.9009039326190473,10.634086999619049
8.086928,-2.471178262157619,-8.570490881714285,-3.997386694095238,10.60369431152381
8.096874,-1.9103392594433335,-8.558629442761905,-4.085862194952381,10.583672309142857
8.10682,-1.2294713146814287,-8.538647724904761,-4.1552799632857145,10.577429718666666
8.116766,-0.48423165125285716,-8.502658808666666,-4.208751065857143,10.58729219247619
8.126713,0.30546848584238095,-8.454767968523809,-4.242163726714286,10.616879954857142
8.136659,1.0946743383185715,-8.378131714999999,-4.241312873285714,10.652559516285713
8.146605,1.8347041326519045,-8.249717503714285,-4.186814261761905,10.652741205333333
8.156551,2.539833233270952,-8.093561038523811,-4.060263070857143,10.596284458666664
8.166497,3.1804492239376185,-7.918938787904761,-3.860408107795238,10.485917699285713
8.176443,3.7699946028899998,-7.732611232952381,-3.5934575911285718,10.34395457838095
8.186389,4.322002333080476,-7.538031377238094,-3.283165514223809,10.202401374666668
8.196335,4.799221585556667,-7.33699529047619,-2.9527898177952383,10.08467528842857
8.206281,5.173560944175714,-7.127498408,-2.6192214371761904,10.020253592666666
8.216227,5.462339304809524,-6.897840548714286,-2.295932475604762,10.01283459895238
8.226173,5.698286958285713,-6.642761919380952,-1.9824467608904761,10.043791340095238
8.236119,5.89603803752381,-6.344199162142856,-1.6598382759857144,10.073524693142858
8.246066,6.071356051142857,-5.987189725552381,-1.297227206795238,10.069225808904761
8.256012,6.244584548333333,-5.578792451885714,-0.8708474478428572,10.029693592142857
8.265958,6.430347136952382,-5.13262383572381,-0.37746198055714286,9.956524162238095
8.275904,6.611255729142856,-4.65784114584762,0.1687687562523809,9.843384476142855
8.28585,6.75742077847619,-4.16869254317619,0.7533775537761904,9.70491540352381
8.295796,6.837191668619048,-3.6783334833285712,1.3533450933952382,9.547731579428572
8.305742,6.81415408447619,-3.200836905757143,1.9590738389666664,9.370855180238095
8.315688,6.689236007,-2.734923021947619,2.567704446252381,9.18125295490476
8.325634,6.499140408809524,-2.2775219045190473,3.169803101109524,8.986853016380953
8.33558,6.259102767190476,-1.8232000143761904,3.7434739021095242,8.787266054571429
8.345526,5.994129952857143,-1.379433517947619,4.269455285585714,8.596168871619048
8.355472,5.741564679571428,-0.9572158210428573,4.7338416260619045,8.445361461714286
8.365418,5.520332296047619,-0.5572001411857143,5.126783177347619,8.342220838238095
8.375365,5.345379315761905,-0.1749612777095238,5.454128853619048,8.284554356142857
8.385311,5.203073484428571,0.18612638295714287,5.721982055095237,8.258678706857143
8.395257,5.07503945352381,0.5261472356238096,5.937546342666666,8.248672541619047
8.405203,4.974457431904762,0.8466056853857141,6.112718837190476,8.264807457619048
8.415149,4.896372962285714,1.1517265404809525,6.251535189380952,8.297945832190477
8.425095,4.824390591285714,1.4340477373857143,6.355055631809524,8.331022272952382
8.435041,4.752919823761904,1.6826509095285713,6.432838218047619,8.357389526238094
8.444987,4.697388788857143,1.9012747944333335,6.497745987142857,8.393287557142859
8.454933,4.658074199095237,2.1035122473190477,6.559616044190477,8.444044008142857
8.464879,4.6388190116666665,2.2898712241285715,6.612002028857143,8.50364184552381
8.474825,4.652105751190477,2.4593517117285715,6.655431833333334,8.577631385904763
8.484771,4.708028995047619,2.610737517185714,6.6956972917142865,8.675120563428571
8.494718,4.812574677095237,2.737290754609524,6.7323776829523805,8.79532774747619
8.504664,4.973775451666667,2.8161022280476193,6.765617182714286,8.939405309190477
8.51461,5.190663493142857,2.8496494584285714,6.7906543475714285,9.106524212666667
8.524556,5.442043786428572,2.850505407285714,6.819775709047618,9.292986850857144
8.534502,5.709737700047619,2.835161004761905,6.873644937380952,9.502312235571429
8.544448,5.993779036238095,2.8067498015714287,6.954249696142857,9.738130264523809
8.554394,6.290568611428571,2.7739933375238097,7.046633364571428,9.989958277476191
8.56434,6.589106531666666,2.739036983904762,7.13335651057143,10.23847457595238
8.574286,6.887007105619047,2.688532466142857,7.194980734,10.46882143895238
8.584232,7.1956999692380945,2.6057940583809525,7.224151212047619,10.687503334714286
8.594178,7.513601417619047,2.48407972602381,7.222971188238096,10.898186905380953
8.604124,7.837698798380953,2.3280199626761906,7.198845019571429,11.103700400047618
8.614071,8.157381893619046,2.135387313285714,7.151065708095238,11.296545451333333
8.624017,8.455442569761905,1.904580698857143,7.078659483571429,11.46321702404762
8.633963,8.721894562666668,1.6417390832380951,6.981137337714286,11.59638717547619
8.643909,8.95739537752381,1.360763302809524,6.860126745571429,11.699333896428572
8.653855,9.160490700428571,1.0603357014761905,6.713081620714286,11.767752863333332
8.663801,9.341474331857142,0.7299788205238096,6.5330625989047615,11.806318446666667
8.673747,9.493904032333333,0.3765666188571429,6.329907648285714,11.818941294761904
8.683693,9.597927390999999,0.011762621095238084,6.107698445619048,11.792779068380952
8.693639,9.648693056476189,-0.3618852347142857,5.861860254714285,11.723898708047619
8.703585,9.638564843666666,-0.7334294571904761,5.582236524619048,11.60908539542857
8.713530708,9.557518536571429,-1.0789593337142855,5.275130887914286,11.45579303242857
8.723476708,9.414231347571429,-1.3963083595238095,4.942808340119048,11.271699159523811
8.733423708,9.222667374285715,-1.705210219142857,4.5699533458828565,11.050891656190476
8.743369708,9.003319743285715,-2.0333696607619047,4.150872930778095,10.803217809095237
8.753315708,8.751751253380952,-2.393384232047619,3.706670315606667,10.534276038761906
8.763261708,8.461234264857142,-2.789831356190476,3.2645518673542853,10.25502488052381
8.773207708,8.154838438571428,-3.2278766027142853,2.8382080966400003,10.000139909714285
8.783153708,7.836555361857142,-3.6961244165238094,2.4506797044257147,9.797573097952382
8.793099708,7.476666700428571,-4.172953659761905,2.1224567787666664,9.639981395619047
8.803045708,7.0714548228571426,-4.649504046500001,1.8486112323571429,9.524483020095238
8.812991708,6.635173347333333,-5.128669948533333,1.607597412004762,9.448598314380952
8.822937708,6.168130254628572,-5.601577882,1.3900633227714285,9.402700602
8.832883708,5.675374866757143,-6.056421093380953,1.1850507943857143,9.381296570095238
8.842829708,5.1595888275904755,-6.494733112238096,0.9883904976076191,9.386659319619048
8.852776708,4.620405182923809,-6.913634546761906,0.7986293723504762,9.406986660571429
8.862722708,4.0612939210666665,-7.309171147857144,0.6159863132742858,9.434395095333334
8.872668708,3.494382835495238,-7.6749865749523805,0.4450796201266667,9.464894916285713
8.882614708,2.933014242114286,-8.016634429142858,0.28172641586,9.505464107714285
8.892560708,2.3852288141619047,-8.341636123904761,0.1253916071457143,9.571884828857142
8.902506708,1.8503014970190474,-8.655054790619047,-0.01365922190666667,9.677098813952382
8.912452708,1.3252519091142856,-8.96000151004762,-0.12327954235904763,9.823044517047618
8.922398708,0.8102602282571428,-9.253343539095239,-0.20648743977809525,9.999562961
8.932344708,0.289399279352381,-9.53135525452381,-0.27199786194,10.200832789619048
8.942290708,-0.24596282002857134,-9.796669824714286,-0.32368394184666666,10.429424877714286
8.952236708,-0.7970284524095238,-10.044706039666668,-0.36936885031333333,10.672636026714287
8.962182708,-1.3563345936476192,-10.267985923000001,-0.42288309004666663,10.922265336095236
8.972129708,-1.9090220765523807,-10.46438621204762,-0.49285120317523806,11.176320937666667
8.982075708,-2.4529395713142854,-10.624021659,-0.5682016609371429,11.409878743714286
8.992021708,-2.9864006016952382,-10.732935545333333,-0.6477691462942857,11.608357251190476
9.001967708,-3.4832963196,-10.791216693,-0.7432664083019048,11.770969461619048
9.011913708,-3.9414050615047618,-10.804108411285714,-0.8573868294161906,11.90068739190476
9.021859708,-4.384841607933334,-10.776635853190477,-0.9779087753019047,12.005213101428572
9.031805708,-4.817822831561905,-10.719812555666667,-1.095509194687619,12.097078116666667
9.041751708,-5.226188892261904,-10.645483418333333,-1.1998919125876188,12.180776901904762
9.051697708,-5.598787284190476,-10.557911562809524,-1.2900399729523808,12.252983765714285
9.061643708,-5.928654725333334,-10.47328609157143,-1.3627765773619047,12.318867715238095
9.071589708,-6.20839401452381,-10.395463688809523,-1.4178280831428571,12.372783953333334
9.081535708,-6.443700924571428,-10.320460228285715,-1.4528228195666666,12.408183852380953
9.091481708,-6.647875894142858,-10.25749802290476,-1.4731931058238095,12.438008298095237
9.101428708,-6.811643123,-10.219064608333333,-1.499253787490476,12.471713906666666
9.111374708,-6.919022978333333,-10.19768618547619,-1.545374790342857,12.499271619999998
9.121320708,-6.968435709523809,-10.170915515952382,-1.6174812963666665,12.503328127142858
9.131266708,-6.9721967778571425,-10.12384620947619,-1.7153363715285714,12.477762477142857
9.141212708,-6.904813938,-10.048143700571428,-1.8197396321428574,12.402853389047618
9.151158708,-6.732738678857143,-9.938154511285713,-1.9141153634285715,12.259216815095236
9.161104708,-6.432346689838095,-9.792026132333334,-1.9929437937619048,12.050428910238095
9.171050708,-5.993455211980952,-9.620672475428572,-2.057325710238095,11.815311104666668
9.180996708,-5.447477938076191,-9.43940246947619,-2.116824944142857,11.594455719190476
9.190942708,-4.848253189742857,-9.273614331619049,-2.189854822952381,11.413136901476191
9.200888708,-4.2223882206,-9.134195103571429,-2.290194721142857,11.27369870052381
9.210834708,-3.5815601709333333,-9.016407426904761,-2.4236110235714285,11.180283725761903
9.220781708,-2.90591532112381,-8.913915593285715,-2.5810722740476186,11.134494812904762
9.230727708,-2.173190620361905,-8.802149630095238,-2.757930806190476,11.113896086238094
9.240673708,-1.3673891447428572,-8.659386824952382,-2.952988080095238,11.107402474333334
9.250619708,-0.4976247543142859,-8.487337460619049,-3.1584323340000005,11.122659147666667
9.260565708,0.40655183678095225,-8.282781280428571,-3.36306424252381,11.14613401195238
9.270511708,1.3240303420190476,-8.043822408333332,-3.542700341380953,11.162350473857142
9.280457708,2.269799792828571,-7.7907510863333345,-3.7276165038095237,11.225799341952381
9.290403708,3.176722347542857,-7.508394861857144,-3.8788651085238093,11.274179899571427
9.300349708,4.024189299923809,-7.176708672095238,-3.942060938190476,11.258644564333332
9.310295708,4.799169350066667,-6.790499577095238,-3.8949577666999993,11.173688570047618
9.320241708,5.494031603114285,-6.356577188380951,-3.7448236761285716,11.040197758
9.330187708,6.113561476066666,-5.89620938874762,-3.5022083521761904,10.891323991380952
9.340133708,6.670643058019048,-5.42304153276619,-3.1723907794619044,10.752325813190476
9.350080708,7.163881732304762,-4.95043386789,-2.7787465320333333,10.657457748857142
9.360026708,7.564528995019048,-4.481176546175714,-2.352533042842857,10.617864003285714
9.369972708,7.832503574952382,-4.024337875223334,-1.914769325842857,10.618438476761904
9.379918708,7.95668958104762,-3.590686143032857,-1.4705703303666666,10.623767858238095
9.389864708,7.964788559476191,-3.165778504175714,-1.0165693688428572,10.596059122571429
9.399810708,7.9017731163809515,-2.722692512270952,-0.5532521500333333,10.515383201761905
9.409756708,7.789699701047619,-2.258799509747143,-0.07459314593809523,10.379661342952382
9.419702708,7.63278298652381,-1.775156394794762,0.42547930853809524,10.191941112666667
9.429648708,7.414816050190477,-1.2697866970328573,0.9453247910142857,9.952654155190476
9.439594708,7.131120646238095,-0.7638101975566666,1.4747911707285715,9.674751701857142
9.449540708,6.7921309082857135,-0.28152154831857135,2.0035033849190476,9.366180412095238
9.459486708,6.414044319714286,0.18017423763380952,2.5216151401095237,9.033490617714286
9.469433708,6.019306726476191,0.6235108244909524,3.0249808856333336,8.70434768
9.479379708,5.626645284904761,1.0477176745385715,3.480589079680952,8.396543359714284
9.489325708,5.216636936333334,1.4664205404909525,3.9078681960619046,8.065082466666667
9.499271708,4.833477888380953,1.8611173980623807,4.265047020919048,7.776045875952382
9.509217708,4.479327795952381,2.224426081824286,4.509189261728572,7.552686731666667
9.519163708,4.158207149,2.5564263923480954,4.643553516095238,7.383281056142858
9.529109708,3.857250068380953,2.872276011062381,4.673097436380952,7.250373370857143
9.539055708,3.5863535790952388,3.16792000528619,4.613925883285715,7.141581008095239
9.549001708,3.373055143285714,3.4305353336380953,4.491562969428572,7.048599334333334
9.558947708,3.2173674020952383,3.666909917380952,4.328587620571429,6.964596781904762
9.568893708,3.1408849581904765,3.8808316941904764,4.1382722227619055,6.910880206714285
9.578839708,3.176006481761905,4.0877304638571434,3.935002193380953,6.924744949142858
9.588786708,3.301306633047619,4.305649926333333,3.7204643009999994,7.000668712238094
9.598732708,3.495042512809524,4.525338644904762,3.499721774952381,7.124778466714285
9.608678708,3.738696378857143,4.743770434857143,3.284870910380952,7.293031504761904
9.618624708,4.0135879643333325,4.963883744809524,3.0691830168571426,7.492168290714285
9.628570708,4.313959209619047,5.175677719904762,2.845959384952381,7.712072198619048
9.638516708,4.6326703581904765,5.373033833571428,2.612147385209524,7.939267095619047
9.648462708,4.9648547724761904,5.555655214428572,2.3772534278190474,8.17102540657143
9.658408708,5.309342229666667,5.720315229619048,2.162652580414286,8.41408299204762
9.668354708,5.6628089775238095,5.8565442724761905,1.9788661279142858,8.667099992142857
9.678300708,6.021206236809523,5.946762382809523,1.8188213618047617,8.912368355571429
9.688246708,6.369136757428571,5.970965818238095,1.680026901852381,9.13345903252381
9.698192708,6.6934751550476195,5.91601967195238,1.5588806126142858,9.324859496047619
9.708138708,6.990392227333333,5.794049315095238,1.4678506859952383,9.485480253904761
9.7180865,7.265381433476189,5.630003201857143,1.420792405804762,9.61923465352381
9.7280325,7.524517612857142,5.440412385428571,1.4111326802809525,9.736269455380953
9.7379785,7.795095818714286,5.2131716258619045,1.4395054171380952,9.849810883714285
9.7479245,8.071815995571429,4.95713048912381,1.490630588947619,9.96055905204762
9.7578705,8.322237206238094,4.677930480266666,1.5283995508047619,10.05569260695238
9.7678165,8.548757867238095,4.364372343647619,1.5381201430904763,10.141135833666667
9.7777625,8.744887040190477,3.9968241361714285,1.547751119852381,10.222095817857143
9.7877085,8.893773717809523,3.564561646695238,1.5864589635190478,10.29116158395238
9.7976545,9.024379743714286,3.073179908885714,1.6953421937095239,10.380556189714286
9.8076005,9.142165136857143,2.5357449715523805,1.9048328391857143,10.510791478285714
9.8175465,9.219937559952381,1.9509191587904762,2.189644274709524,10.654169580666666
9.8274925,9.242293999190476,1.3093973230285716,2.5313653932809523,10.796678619714285
9.8374385,9.192700978857143,0.6167911485047619,2.9175321029476193,10.930412063523809
9.8473855,9.079098767238095,-0.10962198411428564,3.314559215214286,11.043606560666667
9.8573315,8.926786512238095,-0.8646312033523808,3.682087597842857,11.130826465428571
9.8672775,8.723596130285713,-1.635659092590476,4.0082421684380956,11.192249977333333
9.8772235,8.465885446428572,-2.3877579855428572,4.3003441699857134,11.218907841619048
9.8871695,8.173941904380953,-3.097190887447619,4.562389380904762,11.21830223447619
9.8971155,7.857065779,-3.753928932495238,4.797287396523809,11.217582254
9.9070615,7.515497753,-4.336270068399999,5.026066210428572,11.224317266380954
9.9170075,7.161197749095239,-4.849318942304762,5.2505779491428575,11.243703899714287
9.9269535,6.808807557190477,-5.311773669019048,5.450716390809524,11.27506538247619
9.9368995,6.462924425285714,-5.734825512971429,5.617034244761904,11.311293911857142
9.9468455,6.110678325471428,-6.118355636547619,5.747188712714286,11.333643466857144
9.9567915,5.753500238480952,-6.469229478380953,5.850681923809524,11.33752073
9.9667375,5.400642464252381,-6.792103955904762,5.940722028190477,11.333159304095238
9.9766845,5.036894835599999,-7.083382585999999,6.01284828252381,11.306415047666666
9.9866305,4.6385014518,-7.330559928523808,6.041551595904762,11.237318096857143
9.9965765,4.187964826323809,-7.53044513004762,6.0074588620952385,11.11414610542857
10.0065225,3.665806825995238,-7.69420620547619,5.884946398714286,10.922203621904762
10.0164685,3.0845021509,-7.8305902552380955,5.649789260904762,10.663336255380951
10.0264145,2.4898986242809524,-7.943585108238096,5.325886560952381,10.379831903380953
10.0363605,1.9205701605190477,-8.020821898619047,4.950029153747619,10.103493660714285
10.0463065,1.394529580947619,-8.055493659952381,4.549834966761905,9.847408404190476
10.0562525,0.9164654892809523,-8.064276038619047,4.158342271952381,9.629921092619048
10.0661985,0.46823834689999994,-8.052075043523809,3.8079928435857138,9.456011541333334
10.0761445,0.04424649337619042,-8.019395957619048,3.4897149179761904,9.313077468809524
10.0860905,-0.3689715033380953,-7.995368328428571,3.1854529353809524,9.208312226809525
10.0960375,-0.787908605957143,-7.993054473809524,2.897581310790476,9.144415221095239
10.1059835,-1.2116966143857144,-7.996886014999999,2.623048856609524,9.109513125380953
10.1159295,-1.635272897909524,-8.010080340666667,2.3463863449014286,9.101437167761905
10.1258755,-2.0433795092904763,-8.03706451695238,2.0536729473157145,9.113040928238096
10.1358215,-2.4266609034809528,-8.086084955666667,1.7541653635728574,9.150242485380952
10.1457675,-2.7918021463857143,-8.152449071333333,1.462605538125238,9.214391146333334
10.1557135,-3.1347741723333336,-8.230181343666667,1.1930606466538094,9.302893714142856
10.1656595,-3.457587170533334,-8.316324807857143,0.9462868177061905,9.408242728238095
10.1756055,-3.7683691048761907,-8.399843234190476,0.7258297471395238,9.521788923095238
10.1855515,-4.082617769842857,-8.47893840895238,0.5384877420061904,9.650327187666667
10.1954975,-4.399848459090476,-8.554982311666667,0.3854540798204762,9.798530656142857
10.2054435,-4.714868455328572,-8.625131218619046,0.26111259521095237,9.962596900428572
10.2153895,-5.015351131857143,-8.690511916095238,0.1613173868966667,10.134467805857142
10.2253355,-5.297662472000001,-8.750127843666666,0.08918039791476191,10.307541845714287
10.2352825,-5.555598719190476,-8.795953140952381,0.04391721554809523,10.466176841047618
10.2452285,-5.781911469952381,-8.82781186252381,0.01663577794809524,10.60284978657143
10.2551745,-5.969280093857143,-8.850571286285714,-0.003195248842380953,10.716312770238094
10.2651205,-6.109217969857143,-8.857700267333334,-0.010737989970952386,10.793094233238095
10.2750665,-6.20421901904762,-8.84213690047619,-0.010305687566190472,10.827823532142856
10.2850125,-6.24995813952381,-8.81055096547619,-0.011807475294761902,10.823329893095238
10.2949585,-6.240743373142857,-8.774880388380954,-0.018562121385238092,10.787485438761905
10.3049045,-6.185479249714286,-8.737170413857143,-0.038623808654285705,10.727639121714285
10.3148505,-6.09904632052381,-8.692919131285713,-0.06877723413047619,10.647582872380951
10.3247965,-5.983446365904761,-8.63688860495238,-0.10979578649380951,10.544416341380952
10.3347425,-5.855752587285714,-8.570926471428571,-0.16758626905095236,10.429543308380952
10.3446885,-5.706534623095238,-8.485595965095238,-0.24548226340333332,10.293435502476191
10.3546345,-5.4951954500476194,-8.372763219190475,-0.3298572998604762,10.113349450666666
10.3645815,-5.193232704015714,-8.231742438809524,-0.41105920553190484,9.89350517852381
10.3745275,-4.775859146825238,-8.065244922142856,-0.47961318696523814,9.678058331285715
10.3844735,-4.228312702968095,-7.872192846428572,-0.5383870111128571,9.531249590666667
10.3944195,-3.553232555015714,-7.656090308714286,-0.5930003394557143,9.470460342238097
10.4043655,-2.806494695682381,-7.42767609647619,-0.6464026815557143,9.445507670809523
10.4143115,-2.0417393931109524,-7.197259115476191,-0.7053690269938095,9.404622638904762
10.4242575,-1.2946478607776188,-6.970331989428572,-0.76441361287,9.321859350285715
10.4342035,-0.5950236352538093,-6.751141662476191,-0.8375511353166667,9.180652657619047
10.4441495,0.06366796455571444,-6.535786983714285,-0.9404319471404761,9.009312207333332
10.4540955,0.7086032377461906,-6.310269398571429,-1.070191171145238,8.837637017904761
10.4640415,1.36914227927,-6.062885370904762,-1.2228888690357143,8.692228602
10.4739875,2.0287438450319053,-5.786674319476191,-1.412723222002381,8.587675843380953
10.4839335,2.680252223936667,-5.477718498428571,-1.62359051085,8.52522098747619
10.4938805,3.296559195174762,-5.132209671871428,-1.8356250848928573,8.487941317095238
10.5038265,3.8368945185557144,-4.741892378804762,-2.0486814198738097,8.436770909809523
10.5137725,4.3060880498890475,-4.328627660047619,-2.250985779871429,8.358537221
10.5237185,4.72540046027,-3.9039446656571424,-2.4294037487857145,8.253042376
10.5336645,5.1128503066509525,-3.458694897657143,-2.5651382285714286,8.133915743333333
10.5436105,5.486458067222381,-2.9946347483238096,-2.6584980479047617,8.011693294809524
10.5535565,5.8260252595080955,-2.5336136753714285,-2.714566121714286,7.891990612333333
10.5635025,6.085821645174763,-2.0967349762285714,-2.743407686952381,7.786303553047619
10.5734485,6.238377255714286,-1.691848510038095,-2.7530341878095235,7.700178361095238
10.5833945,6.259725607095238,-1.3131357960857142,-2.7515995525714283,7.604625318809523
10.5933405,6.1417797634761895,-0.9640424453238096,-2.736940381047619,7.445923467809523
10.6032865,5.9069285743333335,-0.6372327359904761,-2.705985444114286,7.2009944212857135
10.6132325,5.627095980238095,-0.31941654556190474,-2.6572378894142856,6.9173257812380955
10.6231785,5.373116251523809,0.00042076281904761324,-2.5930192981809523,6.658248157190477
10.6331255,5.1825227907619045,0.340605226152381,-2.521262894189048,6.460280066380952
10.6430715,5.07733060152381,0.7068163007238096,-2.435848612574762,6.338710731428571
10.6530175,5.034444031238095,1.085755608247619,-2.3248780934938096,6.26811896304762
10.6629635,5.016749660571429,1.4633897893428571,-2.1929982375128567,6.2275690045714285
10.6729095,4.983136384523809,1.8284660168190474,-2.0427744826414287,6.188719840904761
10.6828555,4.928018525000001,2.1614579872952384,-1.862334642231905,6.138889360952381
10.6928015,4.849449460428572,2.451158899342857,-1.6629062265604764,6.077984070333334
10.7027475,4.7721512185714285,2.695074247309524,-1.4526869623842857,6.023972802714285
10.7126935,4.740403510571428,2.894259397909524,-1.2254794344938096,6.004752279142857
10.72263963,4.758305819380952,3.071153291819048,-0.9896919529366668,6.022563138333332
10.73258563,4.810377307380953,3.238636064285714,-0.7572257525509524,6.073340777285715
10.74253163,4.87890183,3.3841302709047625,-0.53848007847,6.14844966204762
10.75247763,4.963004532428572,3.502292113476191,-0.3307468415176191,6.236261629571428
10.76242363,5.0706264624761905,3.5985470006190474,-0.12970820708904765,6.338547804714286
10.77237062,5.208679224047619,3.678944684428571,0.05225918357761904,6.4648339759999995
10.78231663,5.372500303,3.7402781341428573,0.2066111910538095,6.611714100095239
10.79226263,5.548816130047619,3.7757053278571426,0.34036583838714285,6.766373164380953
10.80220863,5.725930784142856,3.7860936025238097,0.4572861848157143,6.919065726761905
10.81215463,5.898666138285715,3.772683486761905,0.5553422510728572,7.065325238380952
10.82210063,6.058570223190476,3.7378248094761903,0.6332435357538095,7.198040012142857
10.83204663,6.191070009380953,3.6868901316190477,0.7018758768538095,7.303770161000001
10.84199263,6.291010577571429,3.615407307714286,0.7617730415761904,7.374054689904762
10.85193863,6.371679962,3.5235468815238096,0.8117672922952381,7.41938460804762
10.86188463,6.443936149809524,3.413476805809524,0.858727673404762,7.452170193238095
10.87183062,6.510227370142858,3.2828666309523804,0.9157701578523808,7.475021806571429
10.88177662,6.586943062238095,3.1179157028428572,0.9817118817904761,7.500604054
10.89172263,6.682041648571429,2.903503595185714,1.044947068809524,7.539891213
10.90166863,6.780540279428571,2.6328709545666666,1.1122491544238096,7.5843757255238105
10.91161563,6.855384751142857,2.3257323924714286,1.192112541961905,7.613255145238094
10.92156163,6.891475186190475,2.003435536328572,1.284889658404762,7.616576417380953
10.93150763,6.894172562428572,1.684288797995238,1.3833215614190475,7.596930616714285
10.94145363,6.886386437904762,1.3792733877095238,1.4779308819857142,7.5612059714285715
10.95139963,6.881580388571429,1.0891084294714286,1.5502010056666666,7.512535251190477
10.96134562,6.89174103952381,0.8082550508047619,1.5897921826666666,7.466348022190477
10.97129162,6.923399647095238,0.5385926859952381,1.5918405597619045,7.438687126714285
10.98123763,6.970237654333332,0.27736868870952386,1.5681793770095236,7.432102810000001
10.99118363,7.029965291619048,0.02400028642380957,1.5316451939666667,7.451146470809523
11.00112963,7.100348365619048,-0.225946882147619,1.4812550589357143,7.495439344095239
11.01107563,7.176095034904762,-0.4808896332904761,1.420161727897619,7.561394807619048
11.02102163,7.248218657952381,-0.7445697674809524,1.360906448202381,7.641715389619048
11.03096763,7.309766449904761,-1.0142583055285714,1.3109680105777142,7.7279170603333345
11.04091463,7.357149723904762,-1.2912906958619048,1.2684090723253332,7.811672058238095
11.05086062,7.3852158021428576,-1.5816294556238095,1.237087410596762,7.890187121952382
11.06080662,7.378057000333333,-1.8855521048142856,1.2224416807110476,7.952189596619046
11.07075263,7.323085042809523,-2.1890342637666667,1.2295771214729523,7.984951693571428
11.08069863,7.219926793666666,-2.4824192836714287,1.2505173789967619,7.9828537422380945
11.09064463,7.062794595285714,-2.7532929131333335,1.2844109176634286,7.94348404604762
11.10059063,6.85680437157143,-2.9794325584761907,1.3314511968062857,7.87144557847619
11.11053663,6.624824694333334,-3.1586926256666668,1.3838828175681905,7.787005717666666
11.12048263,6.38884652395238,-3.312053731952381,1.4309935556158095,7.712503848857144
11.13042863,6.168710437714286,-3.458734867666667,1.4605920916158095,7.661032679142856
11.14037463,5.959958323476191,-3.621866810476191,1.4717786365205714,7.636691775142857
11.15032063,5.735751238619048,-3.826365131,1.4709443223777143,7.638713429333333
11.16026662,5.48037665665238,-4.078100517333334,1.4686435891872383,7.666875285761904
11.17021263,5.184119567942857,-4.358211633761905,1.4728338083300954,7.698537662285714
11.18015963,4.843907427757143,-4.6543617184285715,1.4833520026158094,7.718123445190476
11.19010563,4.456776505247619,-4.962412418333334,1.496873549592,7.733020610714287
11.20005163,4.019534192819047,-5.2766939112380955,1.5072608114777144,7.743997530714285
11.20999763,3.5383210692952383,-5.585324822,1.5160780333086668,7.7531087794761895
11.21994363,3.0217528120095234,-5.875201178380952,1.5198747679086666,7.762634814238094
11.22988963,2.4830582173428573,-6.141689785904762,1.5011284274658097,7.777696313476191
11.23983563,1.943475903961905,-6.390369862857144,1.4559726084904763,7.806436277142857
11.24978162,1.4111032074857144,-6.62429532642857,1.3818475948857143,7.853494839
11.25972763,0.8809082647238097,-6.837164270333334,1.2742893229,7.918632485809523
11.26967363,0.35148404067619055,-7.030294462047619,1.1402570650714285,8.009277841095237
11.27961963,-0.17061078213333328,-7.215124809619048,0.9735731893571428,8.135306064285714
11.28956563,-0.6820083744666666,-7.401634449666667,0.7710542905000001,8.298112400190476
11.29951163,-1.1780424912285714,-7.589041219666667,0.5364838790238096,8.488869072333333
11.30945763,-1.6564821968476189,-7.779334676476189,0.27859488292857143,8.700657214238095
11.31940363,-2.1161674316095236,-7.968726297714285,-0.0017253967380952417,8.92704592095238
11.32935063,-2.549584244990476,-8.155903996047618,-0.2947262824047619,9.162611070095238
11.33929662,-2.9661235715619045,-8.339093726238096,-0.5907168633571429,9.403293582476191
11.34924263,-3.363502352085714,-8.52228309447619,-0.8954813863095238,9.655113903333334
11.35918863,-3.739607374942857,-8.689862206809526,-1.2045462161666667,9.912300404095237
11.36913463,-4.099608776071428,-8.82993016947619,-1.4965939708809526,10.163267880619047
11.37908063,-4.455213906361905,-8.943094062714286,-1.7679593442142858,10.408131796142857
11.38902663,-4.804266618938096,-9.036364224714285,-2.0216458350714284,10.648994345761905
11.39897263,-5.128637204,-9.10403065452381,-2.257621583009524,10.870643077238096
11.40891863,-5.422856009047619,-9.138780740666666,-2.468961211995238,11.059557771666666
11.41886463,-5.68860313395238,-9.152324674095237,-2.6553211041761906,11.221118136285716
11.42881063,-5.922037765523809,-9.156105873571429,-2.8113826477857145,11.35886912247619
11.43875662,-6.127236972333334,-9.14981399109524,-2.923784231171428,11.470996921238095
11.44870262,-6.306768406000001,-9.134761476,-3.0035195646666666,11.558074286
11.45864863,-6.446544843238095,-9.123257496857143,-3.0615980921904757,11.624158911904763
11.46859563,-6.540395828666667,-9.123579372142856,-3.1094541831904765,11.677480308095237
11.47854163,-6.581680066952381,-9.129566169190477,-3.160671727095238,11.713267114285715
11.48848763,-6.5639949404285725,-9.13748984252381,-3.2141596334761906,11.72499637952381
11.49843363,-6.491596164095237,-9.138302132142858,-3.260238477190476,11.704571553809524
11.50837963,-6.372708041619047,-9.122110635095238,-3.2874080380476194,11.644127928904762
11.51832563,-6.199276367619047,-9.084113311666666,-3.286596973571428,11.536704149428571
11.52827163,-5.956211817380952,-9.03154781752381,-3.251351050476191,11.388871428428573
11.53821762,-5.638837732085714,-8.968391512238096,-3.1854729776666666,11.218301724571429
11.54816363,-5.250446233419048,-8.894219052666667,-3.0978255887142856,11.041014503142858
11.55810963,-4.794675291847619,-8.813301996904762,-2.9904066962380953,10.876058476523811
11.56805563,-4.268126867657143,-8.740327576095236,-2.8787131550000002,10.738642664619048
11.57800163,-3.6732899256095237,-8.670946074428572,-2.7937502436666666,10.626578562238095
11.58794763,-3.0119183798,-8.596713778333333,-2.7385178344285714,10.53620300652381
11.59789363,-2.2950171634666665,-8.507109347190475,-2.717116885904762,10.468934801761904
11.60783963,-1.5494688505619048,-8.392367930857143,-2.7400532854285715,10.422088297952381
11.61778663,-0.8014253636571427,-8.247874489095238,-2.797535884238095,10.380518216999999
11.62773262,-0.05710649741904755,-8.06458975557143,-2.869388085095238,10.325240744619046
11.63767863,0.6807624444380954,-7.832865323190477,-2.931550085285714,10.24391803557143
11.64762463,1.3926368094857144,-7.550852260619047,-2.9690804110952382,10.117287758380952
11.65757063,2.0388467478666668,-7.226109374952381,-2.982560944047619,9.929160090238096
11.66751663,2.597568084009524,-6.867835241333334,-2.9858225627142856,9.687950466666667
11.67746263,3.091869615057143,-6.467339950595237,-2.9779664386666664,9.408604813190477
11.68740863,3.5614137287714285,-6.03612422412,-2.9452957059523808,9.124843612
11.69735463,4.037059941009524,-5.586633470600952,-2.8734125983809524,8.872637604238095
11.70730063,4.5405739552,-5.123436899315238,-2.758787792247619,8.687315191333333
11.71724621,5.036118298009524,-4.657396771362857,-2.601599711185714,8.552775392238095
11.72719221,5.476389468152381,-4.204425337410476,-2.4095281856619044,8.453568345761905
11.73713821,5.825755758533333,-3.767569247458095,-2.1898078155666667,8.372812974761905
11.74708421,6.05267737147619,-3.3382871673628567,-1.9443402824238096,8.289707219666667
11.75703021,6.162877505999999,-2.927432281110476,-1.6758117553761904,8.197603647238095
11.76697721,6.160585230380953,-2.5233146959438093,-1.3792310928999998,8.073824693999999
11.77692321,6.060562926476191,-2.1146260360390476,-1.047166268138095,7.9125744185714275
11.78686921,5.889128438571428,-1.7075247002342857,-0.6666493261380951,7.7321769053809515
11.79681521,5.665468875857143,-1.315549999967619,-0.23429311418571416,7.5444842503333325
11.80676121,5.407402013047619,-0.942074525672381,0.25682630643333343,7.349086694142857
11.81670721,5.144951966000001,-0.5943296403438095,0.8090756936714287,7.156812891952381
11.82665321,4.912410997809524,-0.28619028551523806,1.3959360033380954,6.990023646904762
11.83659921,4.723509373190477,-0.019528405491428556,1.9788090688142859,6.859225886428572
11.84654521,4.579597228190476,0.21025405516571427,2.5190915723380956,6.775217233714285
11.85649121,4.489576698047618,0.4032132714990477,2.9887975425285718,6.752903401238096
11.86643721,4.475260709333334,0.568706320022857,3.3932919946714284,6.805335641666667
11.87638321,4.5365597997142855,0.7210455557371429,3.7615049052428575,6.92394636447619
11.88632921,4.654703905714286,0.8575567406657143,4.108664442528571,7.092963064380952
11.89627521,4.790028829761904,0.982665688,4.424379505671429,7.277779140285714
11.90622121,4.907731109047619,1.0969934277190476,4.699341619719048,7.450120351380953
11.91616821,4.989221108428572,1.1917305169095238,4.927801301014286,7.58840307947619
11.92611421,5.071652147571429,1.262486810338095,5.10359054452381,7.7227987631428565
11.93606021,5.179584815380953,1.3181988304809524,5.229994218523809,7.873030844333334
11.94600621,5.333804849809524,1.3657480261952382,5.30940164852381,8.05190990442857
11.95595221,5.554988478714286,1.4031402741952381,5.352023367761905,8.269515570047618
11.96589821,5.826845721190477,1.4508261555619046,5.373707836619048,8.508502170095237
11.97584421,6.1414007245714295,1.5246928057761906,5.378766708380953,8.757894846142857
11.98579021,6.498083775142858,1.6147965055857143,5.366218667142857,9.012506826809524
11.99573621,6.883499347428571,1.7038691185428574,5.330630340857143,9.259866052857143
12.00568221,7.274921959333333,1.7921347321809522,5.263678413,9.486131761714287
12.01562821,7.66070192447619,1.8777183672190474,5.168264995857143,9.693874765999999
12.02557421,8.039070432380953,1.9487821407,5.0528808034761905,9.893012410095238
12.03552021,8.408356028714286,1.9916874499190478,4.916984188761905,10.088808043238096
12.04546621,8.755254209238094,2.0037344683285716,4.770988444142857,10.280159730380953
12.05541221,9.054345860952381,2.0019612584190476,4.63527053147619,10.452825279761905
12.06535921,9.305856602857144,2.003337720847619,4.523972039285714,10.608141810380951
12.07530521,9.52783027404762,2.0089502125619045,4.425203601190477,10.75465648142857
12.08525121,9.732692987380952,2.0209299044666666,4.315276796190476,10.893121172190476
12.09519721,9.925631752619049,2.0391366304190477,4.181488478619048,11.024853369571428
12.10514321,10.116286539714286,2.0480676954666666,4.0196014636761905,11.157912537238095
12.11508921,10.311044568476191,2.0255652986095236,3.816331295057143,11.294903898666666
12.12503521,10.504357137428572,1.9512987267047617,3.572884155914286,11.432035055857144
12.13498121,10.682989352809525,1.8310579483952378,3.2999325095333334,11.560595151428572
12.14492721,10.839039844333334,1.6736235046285715,3.0023155533904764,11.674272148571427
12.15487321,10.957040081142859,1.4780800555809523,2.6840658475809525,11.762119309523811
12.16481921,11.038897926,1.2376505948190475,2.3386373506285714,11.825804603809525
12.17476521,11.101268365761904,0.9348084275333333,1.969821076961905,11.882697511904762
12.18471121,11.147027227619049,0.5579187083428571,1.5953017354857144,11.940414909047618
12.19465721,11.16727646952381,0.1183667735809524,1.2330510218666668,11.998146845714285
12.20460321,11.153225610238096,-0.35951332565714283,0.8973888716761906,12.05083998095238
12.21455021,11.103803801761906,-0.8658631837523808,0.5960648991523809,12.100157542857144
12.22449621,11.003196776238095,-1.3920942990380953,0.3250156861761906,12.130235351428572
12.23444221,10.833762091761905,-1.9154797694190475,0.07361843598095245,12.118529524761906
12.24438821,10.586702556619048,-2.4218233348476192,-0.15149516221904755,12.06719019142857
12.25433421,10.265337913904762,-2.909820091709524,-0.3530423164523809,11.985747353333332
12.26428021,9.887219917523808,-3.3938357856952384,-0.5501954760714286,11.883669410476191
12.27422621,9.44862213695238,-3.887532519742857,-0.7601570172809523,11.763854475428571
12.28417221,8.948222349838096,-4.404939629742857,-0.9914524310904762,11.649839243285715
12.29411821,8.42686937181,-4.961897612695237,-1.240711813947619,11.57112962547619
12.30406421,7.908402439862381,-5.53903358507619,-1.4548675072809523,11.49011844052381
12.31401021,7.361369993943335,-6.105930804409525,-1.5727156606714285,11.375462354952381
12.32395621,6.760941220305238,-6.641210263171429,-1.6017950822809524,11.237975222761905
12.33390221,6.119249286495714,-7.137538077219047,-1.5817348028857143,11.098053337190477
12.34384821,5.453379115781429,-7.597388593290475,-1.5523783415999999,10.965897619190477
12.35379421,4.779211885019524,-8.022842946809524,-1.5377537591714283,10.85471169347619
12.36374021,4.105161654305239,-8.400914694571428,-1.5383953518857143,10.768275775857143
12.37368721,3.438788288924286,-8.725288732285714,-1.5609915687428573,10.701315023
12.38363321,2.77895578573381,-8.990192465952381,-1.612575774838095,10.647157834904762
12.39357921,2.121465120448095,-9.193372462285714,-1.6997893630285712,10.600609631571428
12.40352521,1.4604261698766667,-9.340611923571428,-1.8255694315047617,10.559551800142858
12.41347121,0.8068021013052383,-9.443786711809523,-1.990745971647619,10.527584060619049
12.42341721,0.16352200778142875,-9.515329845380952,-2.1914095002666665,10.514503226333334
12.43336321,-0.4538821795042855,-9.567223995761903,-2.4179252051,10.530951582523809
12.44330921,-1.0383339375042855,-9.614685873095237,-2.6610320223809523,10.588348028714286
12.45325521,-1.5890565610280951,-9.652496503285713,-2.917245262133333,10.678027571095239
12.46320121,-2.0984478066471426,-9.677204581285714,-3.178676759042857,10.791410644904762
12.47314721,-2.557919200409047,-9.69589364690476,-3.436201724185714,10.929590145380953
12.48309321,-2.952793869075714,-9.714674987142857,-3.6802037501666667,11.094928641380953
12.49303921,-3.2936723969138093,-9.723780744714285,-3.890570113595238,11.265534926380953
12.50298521,-3.6274821700761906,-9.703210518476189,-4.053553648547618,11.410236278476189
12.51293121,-3.982908793223809,-9.675633685095237,-4.220531416452381,11.560657814857143
12.52287821,-4.333892312114285,-9.658845131714285,-4.446438036261905,11.744147321857142
12.53282421,-4.665594804428571,-9.647790552857142,-4.713148051414286,11.946398095476189
12.54277021,-4.983125483714286,-9.627542062714285,-4.980853603714285,12.141480071999998
12.55271621,-5.287423190047619,-9.599743731238096,-5.218158771809523,12.321732319047621
12.56266221,-5.576305269142857,-9.564104033,-5.404481078190476,12.47818178
12.57260821,-5.850984962666666,-9.525242212619046,-5.542733313333334,12.616517778095236
12.58255421,-6.125373325619047,-9.493170179095237,-5.637749718428571,12.74964463904762
12.59250021,-6.390314843380953,-9.473861447857143,-5.6971537401428565,12.876060608571427
12.60244621,-6.635011351476191,-9.466300051190476,-5.727386434571429,12.992060460952379
12.61239221,-6.843983014761905,-9.457158681285714,-5.737060792095238,13.083683683809522
12.62233821,-7.0144692234761905,-9.43777304547619,-5.724406498571428,13.141215715238095
12.63228421,-7.149335725809524,-9.401939526142858,-5.686326743285714,13.160996728095236
12.64223021,-7.243288285761904,-9.347691648714285,-5.624462310666666,13.138321351428571
12.65217621,-7.271644775714285,-9.28125110152381,-5.5369218074285715,13.063842460952381
12.66212221,-7.205067543,-9.211510051809524,-5.419805836857143,12.932064172380953
12.67206821,-7.03308107795238,-9.149626462619048,-5.281570196666666,12.762896479619046
12.68201521,-6.748499347490477,-9.108897264333333,-5.14091411547619,12.592865182142857
12.69196121,-6.366559610871429,-9.106868948714286,-5.011492150523809,12.462628521190476
12.70190721,-5.907694712633333,-9.152283688095238,-4.897434719190476,12.385794333095237
12.71185321,-5.404756315014286,-9.236989572428572,-4.7989591152380955,12.346730481666665
12.72179871,-4.8747024014904765,-9.342329306238096,-4.722187902428571,12.327330848333334
12.73174471,-4.30059358834762,-9.450814925714287,-4.6639598532380955,12.320343496428572
12.74169071,-3.6573868078238094,-9.537697589571428,-4.615459983761904,12.313820382142856
12.75163671,-2.9334973612999997,-9.579222872333334,-4.56462275947619,12.302873592142857
12.76158271,-2.136686397395238,-9.562556442190475,-4.502909853285714,12.287748152142857
12.77152871,-1.290111284633333,-9.490010093285715,-4.426738119285714,12.269902206428572
12.78147471,-0.40851446849047607,-9.359674514809525,-4.324704957952381,12.235263650238092
12.79142071,0.4903269003190478,-9.153491987285715,-4.187376332285714,12.154723869285714
12.80136671,1.365372913557143,-8.866775382714286,-4.014886199238096,12.01055007595238
12.81131271,2.1937151827952386,-8.530022831238096,-3.812313645223809,11.805849127571427
12.82125871,2.9719487351285716,-8.172399590190476,-3.5724758252290476,11.56710600452381
12.83120471,3.7071356705095235,-7.80465165852381,-3.2992915919480956,11.326738430285715
12.84115171,4.40109391617619,-7.430292335857143,-2.999465035662381,11.086178288
12.85109771,5.049055763890476,-7.052674610447618,-2.687427356043333,10.858276896904762
12.86104371,5.642196400795238,-6.673858679219046,-2.3770558544719043,10.669323141619047
12.87098971,6.159096278747619,-6.294914081361905,-2.0742973580433333,10.537995314761904
12.88093571,6.581095735271429,-5.896619320590476,-1.774378756805238,10.44548636
12.89088171,6.900434679904762,-5.4720842328809525,-1.4627908951861903,10.362490456619048
12.90082771,7.1229804315714285,-5.010590120204762,-1.132975897995714,10.238036062190478
12.91077371,7.259280587714286,-4.49702671904762,-0.7840582143766666,10.038838761761905
12.92071971,7.3411392958095245,-3.942100448752381,-0.42293509451952377,9.775625972571428
12.93066571,7.389256896571429,-3.359441530752381,-0.041880306186190396,9.467997629904763
12.94061171,7.390413587238095,-2.7562315986571426,0.3615830869090477,9.131159859761905
12.95055771,7.326338517333332,-2.1492112308,0.7767992163852381,8.782608928238094
12.96050371,7.193741681333333,-1.5615572033714287,1.1823717976233332,8.441904283285714
12.97044971,7.005778256428572,-1.003505178514286,1.5606760278614287,8.120645585857144
12.98039571,6.781918496190477,-0.4727943998952381,1.8985138782423812,7.825530804857142
12.99034271,6.537492574809524,0.02324670567619044,2.1837821553852383,7.567126390571428
13.00028871,6.296634234666667,0.47591794077142846,2.417445872480476,7.3641616092857145
13.01023471,6.093233603523809,0.8868350023904761,2.6071341146709526,7.235449200761906
13.02018071,5.943121015333333,1.2890958042476188,2.764979520228095,7.18701919804762
13.03012671,5.83942220495238,1.6996220630571428,2.8886877809476195,7.208271635047619
13.04007271,5.775550701666667,2.1074119780571428,2.9712766461904763,7.279040695523809
13.05001871,5.769167936761905,2.4969363608666666,3.0124309022380955,7.398688101619047
13.05996471,5.814903493238096,2.8584286906,3.0211407197619047,7.5528114474761905
13.06991071,5.887944822904762,3.1959672053238095,3.0077411986190477,7.717728746571429
13.07985671,5.9587656584761906,3.518340994085715,2.9724831564761907,7.8688819367619045
13.08980271,6.026575372904762,3.81545394807619,2.919371281761905,8.00603823190476
13.09974871,6.09689137104762,4.093807725604761,2.8564026024761904,8.135891878952382
13.10969471,6.195782071666667,4.364750157309524,2.7957676861904766,8.28728469147619
13.11964071,6.346570263809523,4.630412748152381,2.751364960761905,8.487251035714285
13.12958671,6.561452125619049,4.888301103857143,2.7339568113333335,8.750069447761904
13.13953271,6.834011228809524,5.128130974428571,2.7502493955714287,9.069502209
13.14947871,7.141140602666667,5.344167605619047,2.799094083666667,9.423243019619047
13.15942571,7.464895726571429,5.526584668047619,2.8754915201904763,9.789405189238096
13.16937171,7.791282654380953,5.654796482142857,2.9673189095714285,10.143305913238096
13.17931771,8.109173550047618,5.711739870190477,3.0695616100952385,10.46850588304762
13.18926371,8.395048656904763,5.713792131476191,3.186401355428571,10.751792779761905
13.19920971,8.635163676857143,5.689405483285715,3.311919078809524,10.986105251190477
13.20915571,8.830609310285714,5.642804093380953,3.4216235226190483,11.162764476761904
13.21910171,8.994492174857143,5.570974585285714,3.498147927238095,11.286194873857143
13.22904771,9.142616097142858,5.4640519543809525,3.535878520190476,11.364564619714285
13.23899371,9.291349243619047,5.309604713904762,3.5346065420000006,11.409777210047618
13.24893971,9.439436996666666,5.102489318857143,3.4971643560000003,11.429983052380951
13.25888571,9.581157577380953,4.8470430388571435,3.4366416783809526,11.438208842857144
13.26883171,9.723710885,4.548593606280953,3.365914314709524,11.454373203333333
13.27877771,9.868827946095237,4.207726104623809,3.2854909449190473,11.484582766190476
13.28872371,10.016947942333333,3.829827267385714,3.2057888291714285,11.527739893333333
13.29867071,10.160745565619047,3.4288367731476193,3.132664044438096,11.57611918809524
13.30861671,10.287175176333333,3.0092160474809524,3.0659815618190476,11.616133573809524
13.31856271,10.373568232857142,2.561179301576191,2.998900946485714,11.627575984285714
13.32850871,10.40218124852381,2.0741322439095238,2.912235263295238,11.592933260952382
13.33845471,10.360123173,1.5469973439571427,2.7984628071523807,11.505145073333333
13.34840071,10.241885149666668,0.9905170228142859,2.659562749247619,11.364082958333332
13.35834671,10.062787941142858,0.40748488524285714,2.4923572183380953,11.183149808857143
13.36829271,9.832538538476191,-0.18892815985238096,2.3010667277285712,10.974005493761904
13.37823871,9.555038732857144,-0.7670322919476191,2.101834047614286,10.749978638
13.38818471,9.241225713238096,-1.3073226752809524,1.8958558211285716,10.52581307547619
13.39813071,8.918674558761905,-1.8266204685190477,1.6765563879190477,10.316403982095238
13.40807671,8.605699779142858,-2.349980350328571,1.4433346785190477,10.132269922904763
13.41802271,8.306946096428572,-2.880539992328571,1.2165889536133334,9.983193804999999
13.42796871,8.013028283809525,-3.415055693328571,1.00881321298,9.868847305333333
13.43791471,7.70514074904762,-3.9573163656142856,0.825006490137143,9.783928187761905
13.44786171,7.360672142142857,-4.500604867042857,0.6705434621419049,9.71763160647619
13.45780771,6.9676973730952385,-5.02392131242381,0.5503320034038095,9.659773590904763
13.46775371,6.524192525619047,-5.515818078614286,0.45100522584190483,9.599016144
13.47769971,6.023181955147619,-5.971083319561904,0.3650102670038096,9.525981796238096
13.48764571,5.474278957385714,-6.3866375573333345,0.291841509832381,9.443985925714285
13.49759171,4.8948833703285715,-6.767614897904761,0.2175590112133334,9.368594372
13.50753771,4.300982984995239,-7.127833676238096,0.13321848723238103,9.312407538190476
13.51748371,3.699364887614286,-7.474454949380952,0.030608846137142945,9.280082079142858
13.52742971,3.096072927661905,-7.799980526714286,-0.09268811171999991,9.271850054380952
13.53737571,2.4936024734238096,-8.097787211047619,-0.2263285712914285,9.293306229142857
13.54732171,1.8931434613761908,-8.363992478999998,-0.36414177100571415,9.343403494857144
13.55726771,1.3016510709952382,-8.598691779761904,-0.5073601786723808,9.421183638904761
13.56721371,0.7196910621857144,-8.799222040714286,-0.655001343667619,9.52171611695238
13.57715971,0.1573181677571431,-8.969545251142856,-0.8085168164390476,9.64305449252381
13.58710671,-0.3862082874809521,-9.122628865190475,-0.9661979848485713,9.788482526380951
13.59705271,-0.9139397704809521,-9.265516884142857,-1.1181732696961906,9.952527943190477
13.60699871,-1.4243931210523808,-9.400756466952382,-1.2615619496771426,10.13075190847619
13.61694471,-1.9178542123380948,-9.530430474666668,-1.398164267610476,10.325275552904762
13.62689071,-2.4043213375761905,-9.661870035142858,-1.5275452724666665,10.53964688509524
13.63683671,-2.891654157052381,-9.794563962761904,-1.6493040714999998,10.769240764761905
13.64678271,-3.3756181728142858,-9.915823688142856,-1.7685565311809524,11.00332538804762
13.65672871,-3.8477858486238095,-10.016460200285715,-1.8931727809952377,11.234731408857144
13.66667471,-4.299378982433333,-10.101802679476192,-2.0301786960190475,11.467198020142856
13.67662071,-4.737839938147619,-10.17236103095238,-2.173546158933333,11.699539432761904
13.68656671,-5.156630916104762,-10.221591885714284,-2.3189240059952376,11.92083619957143
13.69651271,-5.545828996390476,-10.247330911333332,-2.4557797589857144,12.117291756761906
13.70645871,-5.89519230747619,-10.256837036095238,-2.5719297695714283,12.285867132857142
13.7164045,-6.204469224238094,-10.254631856142858,-2.665063942047619,12.42606920904762
13.7263515,-6.4738715550476185,-10.239918702428572,-2.7296554325238094,12.535321993809523
13.7362975,-6.693111792190477,-10.211379890619048,-2.757720877333333,12.605687889999999
13.7462435,-6.84221094647619,-10.170476779476191,-2.7565809765714286,12.630486775714287
13.7561895,-6.921856873238095,-10.127504088285715,-2.7328349604761906,12.620765832857144
13.7661355,-6.931588227190477,-10.086160709619048,-2.697745673142857,12.582049777619048
13.7760815,-6.8587560886666665,-10.055998682857144,-2.6660026986190473,12.521860109999999
13.7860275,-6.698316148238095,-10.04615124795238,-2.6393625613333334,12.453419645238094
13.7959735,-6.44760110104762,-10.042375004761904,-2.6137291475238094,12.370868078095238
13.8059195,-6.110482945419048,-10.027539143047619,-2.5988069974761907,12.27250383490476
13.8158655,-5.679457865990476,-10.00696412742857,-2.605279698142857,12.183315957761904
13.8258115,-5.1498573065619055,-9.979931976238095,-2.6475951903809523,12.123208325857142
13.8357575,-4.5239134835619055,-9.935293134809523,-2.751702526190476,12.102054835380951
13.8457035,-3.8253542866095236,-9.86539844252381,-2.9258025926190476,12.118623967761904
13.8556495,-3.0677973798476197,-9.771378305380953,-3.1571774171428575,12.169054087285714
13.8655965,-2.273328949752381,-9.649838971809524,-3.420973521047619,12.231816013
13.8755425,-1.4415754148952382,-9.492680405238096,-3.6772567325238095,12.286467738238095
13.8854885,-0.5789680442761905,-9.304893259714285,-3.886155055047619,12.306051895380952
13.8954345,0.2984617952952381,-9.10139484104762,-4.014903810571429,12.277604789666665
13.9053805,1.178103859247619,-8.893080376999999,-4.066640559380953,12.220584429190476
13.9153265,2.051958850247619,-8.666008713380952,-4.048452878619047,12.143594189190477
13.9252725,2.889430794961905,-8.403376734380952,-3.976302636809524,12.030753821095239
13.9352185,3.6722871838190474,-8.104013883142857,-3.8732760335142857,11.878563579238094
13.9451645,4.380088434104762,-7.773977443523809,-3.7602603463285713,11.69440227847619
13.9551105,4.996436085247619,-7.422139771714287,-3.6371183466619046,11.488023206666666
13.9650565,5.522876141057143,-7.03850800404762,-3.4994263026142853,11.250563919238095
13.9750025,5.9653719818190485,-6.623978421195238,-3.341996460090476,10.991913424761904
13.9849485,6.32358026467619,-6.181282577766666,-3.1531457341380955,10.725344690666665
13.9948955,6.599385547152381,-5.707249473057143,-2.9333558587571424,10.457904537619047
14.0048415,6.7943445252,-5.21236555932381,-2.6869037659,10.204667745571427
14.0147875,6.903486007380952,-4.710643521809524,-2.4069537541857144,9.969864014714286
14.0247335,6.912906512190476,-4.200842080142857,-2.086436887947619,9.727566563619048
14.0346795,6.825137549857144,-3.6884693114285714,-1.7059463558999999,9.457749296714285
14.0446255,6.6441721283333335,-3.180076241238095,-1.2368464635190477,9.145672383571428
14.0545715,6.388377883333332,-2.6774064814285716,-0.6674758441380952,8.791885896761906
14.0645175,6.074644497285714,-2.1840550393809526,-0.01441742409047612,8.402798598619048
14.0744635,5.722337892714286,-1.7105179734761906,0.6887540286714288,7.99652505852381
