"Time (s)","Linear Acceleration x (m/s^2)","Linear Acceleration y (m/s^2)","Linear Acceleration z (m/s^2)","Absolute acceleration (m/s^2)"
1.072953000E-2,3.874309540E0,-3.792636395E0,3.016740084E-2,5.421740985E0
2.753965000E-2,-1.354748249E0,6.198265076E0,-4.326496124E0,7.679349027E0
4.435808100E-2,8.752898216E0,-4.980612755E0,3.356506348E0,1.061535988E1
6.118016500E-2,7.849694252E0,-2.502900600E0,-2.652834654E0,8.655619156E0
7.798041700E-2,4.192594528E0,-5.588049412E0,-1.454951048E0,7.135897117E0
9.477863500E-2,1.364718914E0,-7.934276581E0,-2.264622688E0,8.363236126E0
1.115864670E-1,2.597646713E-1,-8.112005234E0,3.614761233E-1,8.124208982E0
1.284075730E-1,-8.143091202E-1,-6.320719242E0,-1.198607445E0,6.484693585E0
1.452022920E-1,-4.544884682E0,-1.238598347E0,-7.151084542E-1,4.764607301E0
1.619951900E-1,-6.874246120E0,4.407277107E0,-2.649290323E0,8.584759195E0
1.788134680E-1,-7.689522266E0,5.630208492E0,-9.369957447E-2,9.530833120E0
1.956229160E-1,-4.501632690E0,4.034615517E0,2.457670867E-1,6.050059562E0
2.124254790E-1,-4.851637840E0,3.989271879E0,1.507255793E0,6.459450432E0
2.292373170E-1,-2.037791252E0,5.185039043E0,6.500407219E0,8.561104898E0
2.460446510E-1,1.011097908E0,9.130697250E0,7.394029140E0,1.179252383E1
2.628539460E-1,4.043438435E0,8.923666000E0,3.813339710E0,1.051298098E1
2.796561220E-1,5.654249668E0,9.945015907E-1,-9.686538696E0,1.126004461E1
2.964624780E-1,4.317355156E-1,-7.338900566E-1,-1.367639065E0,1.611032831E0
3.132706650E-1,-9.430098534E-1,-1.522550583E-1,3.316220522E0,3.451053134E0
3.300776220E-1,1.406579018E0,-2.867632866E0,-1.698107004E0,3.617367853E0
3.468831440E-1,-2.405880690E0,-3.880623817E0,-8.618356705E0,9.753131569E0
3.636925820E-1,2.815290451E0,-3.165484428E0,-1.157885742E1,1.232948057E1
3.804993660E-1,-1.170758963E0,4.812568188E0,3.032622099E0,5.807605867E0
3.973056000E-1,-1.455475688E0,8.185234070E0,2.666378260E0,8.730752504E0
4.141107450E-1,-5.700345039E-1,8.599051476E0,1.366286993E0,8.725558192E0
4.309197170E-1,-4.188393593E0,-7.860409737E0,2.859367609E0,9.354392831E0
4.477271810E-1,-1.306075668E1,-1.684742737E1,6.534583569E0,2.229618704E1
4.645347070E-1,-7.095104694E0,-7.635588646E0,4.876757145E0,1.150762725E1
4.813386330E-1,-2.064964056E0,-3.103466034E-1,7.414786220E-1,2.215893074E0
4.981481820E-1,9.654507637E-1,2.238828182E0,5.062198639E-1,2.490121555E0
5.149540710E-1,1.408652425E0,3.529745102E0,-1.905668020E0,4.251467128E0
5.317625340E-1,-5.063389540E-1,3.586095810E0,-1.850436211E0,4.067010753E0
5.485661530E-1,-2.048640251E0,3.238195896E0,1.591775417E-1,3.835124122E0
5.653746240E-1,2.989437342E0,1.011404705E1,4.813844681E0,1.159326460E1
5.821691820E-1,1.281914353E0,4.290145397E0,-1.141563892E0,4.620802967E0
5.989884150E-1,1.451535821E-1,2.490486145E0,-7.499296665E0,7.903356330E0
6.157754130E-1,-4.738724232E-1,1.112999916E0,-1.085360289E0,1.625217168E0
6.326134980E-1,-8.406006694E-1,-1.798579216E0,-5.866950989E0,6.193755774E0
6.493992030E-1,1.778603196E0,-3.323919296E0,4.249575615E0,5.680736020E0
6.662170950E-1,-2.192131519E0,-2.588018417E0,-7.496785641E0,8.228309357E0
6.830237060E-1,-2.476382732E0,-3.273715973E0,5.097432613E0,6.544731236E0
6.998302140E-1,-2.003275394E0,-9.296843529E0,4.615480423E0,1.057104874E1
7.166474650E-1,-9.869123101E-1,-2.643100357E1,5.089116573E0,2.693456985E1
7.334424690E-1,2.738969326E0,-3.894602966E1,5.452088356E0,3.942106603E1
7.502561000E-1,6.555131912E0,-2.966012955E1,1.944780648E-1,3.037648533E1
7.670583660E-1,4.938877106E0,-1.225619221E1,5.779251456E-2,1.321401129E1
7.838665120E-1,9.573502541E-1,-1.048084259E0,-1.909596801E0,2.379403300E0
8.006727870E-1,-1.364980221E0,7.600511551E0,-4.426140308E0,8.900655306E0
8.174800690E-1,-1.798027277E0,1.082208061E1,-2.390858173E0,1.122793541E1
8.342864040E-1,-1.228863358E0,1.160431480E1,-4.327902794E-1,1.167722290E1
8.510939420E-1,-5.543840528E-1,1.192819595E1,2.531608939E-1,1.194375531E1
8.679001650E-1,6.289184093E-1,1.247826004E1,5.030620694E-1,1.250422262E1
8.847103970E-1,2.199582577E0,1.314412212E1,2.680894434E-1,1.332959046E1
9.015151880E-1,3.179950237E0,1.281681633E1,-6.192915440E-1,1.321992384E1
9.183047280E-1,2.849305153E0,1.210988235E1,-1.404206753E-1,1.244136281E1
9.351281030E-1,1.796548486E0,1.143543720E1,2.484032512E-1,1.157836407E1
9.519359550E-1,1.116184115E0,1.092744827E1,1.448362112E0,1.107938381E1
9.687436640E-1,1.741877794E-1,1.033397675E1,1.710679293E0,1.047606035E1
9.855485140E-1,-9.933965206E-1,9.371966362E0,7.445360422E-1,9.453831184E0
1.006553997E0,-1.628745556E0,9.443421364E0,-8.600116372E-1,9.621363685E0
1.023356904E0,-1.725383878E0,9.814908028E0,-1.484460354E0,1.007536558E1
1.040175864E0,-1.666740417E0,1.031677723E1,-5.060890317E-1,1.046279323E1
1.056983432E0,-1.505876780E0,1.077708054E1,1.345948577E0,1.096470279E1
1.073790010E0,-1.354222417E0,1.107892704E1,2.145612955E0,1.136574668E1
1.090596073E0,-1.006124020E0,1.108710003E1,1.653326273E0,1.125475723E1
1.107404149E0,-7.860982418E-1,9.453449249E0,9.127839804E-1,9.529891277E0
1.124208094E0,1.319975853E-1,6.027754784E0,3.144991398E0,6.800163379E0
1.141021947E0,2.283993721E0,2.053135872E0,4.703692913E0,5.617536938E0
1.157812219E0,9.548640251E0,-5.390056610E1,-1.157741928E1,5.595073006E1
1.174629816E0,1.340645695E1,-7.450756836E1,-3.009768009E0,7.576390654E1
1.191435369E0,1.385560703E1,-6.194425201E1,-7.134090424E0,6.387459158E1
1.208248469E0,4.453656673E0,-3.618256760E1,-3.713616848E0,3.664429295E1
1.225043676E0,-1.516170502E-1,-1.360985470E1,2.223397255E0,1.379110684E1
1.241854683E0,-7.010797262E-1,-1.227248192E0,3.753828049E0,4.011094106E0
1.258649563E0,-5.680117607E-1,7.191959381E0,1.677657604E0,7.406851702E0
1.275469328E0,1.168121099E-1,1.091398716E1,1.122180223E0,1.097214880E1
1.292282733E0,8.021026254E-1,1.129715157E1,6.193313003E-1,1.134251178E1
1.309085367E0,1.678474665E0,1.282088184E1,-1.332751632E0,1.299878900E1
1.325892892E0,3.120081663E0,1.562380600E1,-6.675224781E0,1.727416711E1
1.342703227E0,4.245891094E0,1.506548023E1,-4.061910629E0,1.617081951E1
1.359508433E0,2.847298861E0,1.343901348E1,6.612228155E-1,1.375323270E1
1.376303955E0,9.929291010E-1,1.204615784E1,3.806779861E0,1.267230838E1
1.393118499E0,6.400224566E-2,1.151023483E1,3.628776550E0,1.206886993E1
1.409929496E0,-2.081908733E-1,1.087385368E1,2.302218437E0,1.111684520E1
1.426735800E0,-2.809965312E-1,1.027159786E1,1.413599610E0,1.037221990E1
1.443540946E0,-4.532910585E-1,9.886935234E0,8.250501156E-1,9.931649853E0
1.460349501E0,-7.286553383E-1,9.665950775E0,5.594597459E-1,9.709507619E0
1.477153851E0,-1.035464048E0,9.630294800E0,7.962712049E-1,9.718477842E0
1.493964735E0,-1.327211499E0,9.673020363E0,1.191625834E0,9.836096046E0
1.510770004E0,-1.554709673E0,9.697388649E0,1.579405069E0,9.947411178E0
1.527577235E0,-1.632072687E0,9.715046883E0,6.254205704E-1,9.871015555E0
1.544379734E0,-1.349643707E0,9.787490845E0,-1.825830579E0,1.004739630E1
1.561195563E0,-8.603869677E-1,9.818396568E0,-3.015610456E0,1.030704047E1
1.577986902E0,-3.431273699E-1,1.011018372E1,-2.590550900E0,1.044243770E1
1.594799718E0,-7.524764538E-2,1.058412838E1,-3.987989426E-1,1.059190617E1
1.611616564E0,-4.929848909E-1,1.034639359E1,2.930088282E0,1.076458600E1
1.628406469E0,6.372885704E-1,9.549434662E0,4.462597847E0,1.055995353E1
1.645220080E0,1.394226789E0,3.341270924E0,-5.154389381E0,6.298864153E0
1.662035073E0,2.222181320E0,3.307542801E-1,-4.682546258E-1,2.294940219E0
1.678841653E0,6.855629921E0,-1.872906494E1,6.931525230E0,2.111453474E1
1.695645393E0,1.305422974E1,-8.641030121E1,4.285332489E1,9.733221729E1
1.712450897E0,1.155828571E1,-8.062835693E1,-2.291379547E1,8.461423009E1
1.729262359E0,6.260443687E0,-4.670461273E1,-1.897373962E1,5.079878740E1
1.746058797E0,1.121582270E0,-1.677096176E1,7.275078773E0,1.831529078E1
1.762873452E0,-1.481153965E-1,-1.490020752E0,4.146312237E0,4.408401658E0
1.779669221E0,-2.757930756E-2,7.230985165E0,-4.664203525E-1,7.246064795E0
1.796489350E0,1.251981497E0,1.135133839E1,-1.016030312E0,1.146528056E1
1.813295359E0,2.312955856E0,1.280112076E1,-6.948064566E-1,1.302694183E1
1.830101890E0,2.599771023E0,1.384324646E1,1.065940976E0,1.412552697E1
1.846911012E0,3.774181128E0,1.487336922E1,1.655415416E0,1.543379264E1
1.863718314E0,5.079247952E0,1.486534119E1,-1.919813633E0,1.582601696E1
1.880513676E0,6.117533207E0,1.339048100E1,-5.130471230E0,1.559009073E1
1.897330335E0,4.280824184E0,1.258646202E1,-1.954901814E0,1.343748946E1
1.914136742E0,7.784152627E-1,1.127204800E1,9.014042616E-1,1.133479272E1
1.930945022E0,-1.083505511E0,1.033487225E1,1.338887453E0,1.047741324E1
1.947751814E0,-1.508504272E0,9.788718224E0,1.343783379E0,9.995015926E0
1.964558110E0,-1.541335702E0,9.319948196E0,2.073823452E0,9.671499048E0
1.981365717E0,-1.700870275E0,9.192846298E0,2.810827971E0,9.762281323E0
1.998173843E0,-2.018322468E0,9.221641541E0,3.133215666E0,9.946322873E0
2.082205637E0,-1.896623254E0,1.026030540E1,1.011681676E0,1.048305998E1
2.099022011E0,-1.998761177E0,1.043681908E1,1.249148369E0,1.069965468E1
2.115817219E0,-1.928979635E0,1.073202038E1,1.938672900E0,1.107500232E1
2.132609334E0,-1.716868043E0,9.870422363E0,7.096712589E-1,1.004372973E1
2.149434509E0,7.074832916E-1,7.149587631E0,-2.316143751E0,7.548619594E0
2.166240814E0,2.952835798E0,-1.140059757E1,-1.992296982E1,2.314341355E1
2.183050984E0,8.323493958E0,-5.130916977E1,1.026175499E0,5.199004222E1
2.199848176E0,2.019274521E1,-7.710405731E1,3.567805099E1,8.732528807E1
2.216663942E0,1.383924770E1,-5.140708160E1,-9.515970230E0,5.408111043E1
2.233454743E0,2.984400511E0,-2.897916603E1,-1.702753830E1,3.374367749E1
2.250276370E0,-3.799108267E-1,-1.884942627E1,2.296233654E0,1.899257465E1
2.267070873E0,-1.742784858E0,-8.411855698E0,4.807678699E0,9.844307483E0
2.283890719E0,-1.686216235E0,1.620785713E0,1.341989040E0,2.696517403E0
2.300702945E0,-2.230040431E-1,9.301058769E0,-2.050797224E0,9.527076901E0
2.317505740E0,1.577494144E0,1.231005573E1,-1.045315742E0,1.245466358E1
2.334309931E0,3.142687082E0,1.309087181E1,-6.724231243E-1,1.347959791E1
2.351119429E0,3.335560799E0,1.362861824E1,1.112042367E-2,1.403087042E1
2.367929978E0,3.467511654E0,1.515370464E1,1.376259565E0,1.560616839E1
2.384730717E0,4.428413868E0,1.525986862E1,-1.149489164E0,1.593096874E1
2.401541246E0,4.299694538E0,1.432754993E1,-1.288881421E0,1.501423576E1
2.418348475E0,2.603024006E0,1.266005611E1,4.574088752E-2,1.292496990E1
2.435152267E0,7.142259479E-1,1.117973709E1,9.271093607E-1,1.124082612E1
2.451961137E0,-2.258044481E-1,1.046298218E1,1.435837984E0,1.056345656E1
2.468770118E0,-7.842046618E-1,1.010173225E1,1.742070913E0,1.028079679E1
2.485569934E0,-8.050997853E-1,9.659309387E0,1.901593924E0,9.877575763E0
2.502381447E0,-1.038455248E0,9.484909058E0,2.417033434E0,9.842963972E0
2.519191863E0,-1.340470314E0,9.544362068E0,2.645455837E0,9.994505718E0
2.535987873E0,-1.519329309E0,9.463785172E0,2.599449396E0,9.931199751E0
2.552799213E0,-1.558855891E0,9.531900406E0,1.878755450E0,9.839556854E0
2.569612478E0,-1.503119111E0,9.807963371E0,4.292507172E-1,9.931755572E0
2.586415721E0,-1.023625374E0,1.055249023E1,-2.309033155E0,1.085055267E1
2.603223318E0,-5.174866915E-1,1.116177559E1,-2.642495394E0,1.148197756E1
2.620032697E0,-6.042321920E-1,9.158286095E0,-2.627431870E0,9.546868542E0
2.636838635E0,-1.286099434E0,2.477978706E0,-2.209330177E1,2.226900118E1
2.653630912E0,-2.024638653E0,6.425230026E0,5.381244421E-2,6.736886398E0
2.670452140E0,-1.164126396E-2,2.165341377E0,9.474726677E0,9.719016638E0
2.687260927E0,1.430738544E1,-6.895166016E1,2.119523621E1,7.354094611E1
2.704065544E0,2.138855362E1,-8.601542664E1,1.481297207E1,8.986405281E1
2.720859430E0,1.071736050E1,-4.963131332E1,-1.864942360E1,5.409186703E1
2.737679142E0,2.846847057E0,-1.654175949E1,-6.934102058E0,1.816084019E1
2.754481398E0,3.761502504E-1,-3.455476761E-1,-3.836006641E0,3.869862938E0
2.771290238E0,4.700779915E-3,8.494506836E0,-3.242252111E0,9.092242146E0
2.788102818E0,3.337631226E-1,1.130579472E1,-2.737476349E0,1.163727497E1
2.804907914E0,3.460161686E-1,1.228607178E1,-3.203958750E0,1.270167857E1
2.821721238E0,-7.645142078E-2,1.263643742E1,-2.281552553E0,1.284098429E1
2.838521957E0,-4.548049569E-1,1.235513973E1,5.449967384E-1,1.237551400E1
2.855327113E0,-1.055458426E0,1.125161076E1,3.193176985E0,1.174347122E1
2.872133226E0,-9.964910746E-1,9.458850861E0,5.143090248E0,1.081268844E1
2.888946164E0,-1.243046999E0,9.787753105E0,5.118976116E0,1.111526847E1
2.905748116E0,-1.633908391E0,1.075129223E1,2.996498346E0,1.128002409E1
2.922555246E0,-1.693679452E0,1.062604141E1,6.836423278E-1,1.078186779E1
2.939363696E0,-1.508080006E0,1.059547806E1,-1.237902403E0,1.077361884E1
2.956170145E0,-1.008839130E0,1.089288807E1,-2.397308826E0,1.119910070E1
2.972978211E0,-3.086675406E-1,1.113527012E1,-1.725756526E0,1.127243327E1
2.989784231E0,2.887437344E-1,9.926939011E0,-1.864621937E-1,9.932887758E0
3.006587372E0,5.856354237E-1,9.567137718E0,6.979101896E-1,9.610419949E0
3.023402730E0,5.140403509E-1,9.730736732E0,1.180971980E0,9.815608471E0
3.040205162E0,6.197922230E-1,9.864425659E0,1.335007668E0,9.973629302E0
3.057020478E0,1.019254923E0,1.010067558E1,1.099467874E0,1.021133475E1
3.073818350E0,1.263766050E0,1.085905838E1,1.377477646E0,1.101878842E1
3.090627433E0,1.094726086E0,1.134967232E1,1.863872290E0,1.155367936E1
3.107434665E0,1.856732368E-1,6.118435860E0,-6.732770443E0,9.099446673E0
3.124239403E0,-4.638910294E-3,-1.786375046E0,-8.934634209E0,9.111467816E0
3.141052606E0,1.415732622E0,-1.419413757E1,2.731610537E0,1.452375766E1
3.157855087E0,7.923143387E0,-5.802341843E1,1.619597435E1,6.076020797E1
3.174658330E0,7.368926048E0,-6.717841339E1,6.811650395E-1,6.758479328E1
3.191469019E0,3.737154484E0,-4.139744568E1,-7.597182274E0,4.225437268E1
3.208277075E0,2.264235020E-1,-2.074841881E1,2.323485136E0,2.087933748E1
3.225081660E0,-4.945967197E-1,-9.002083778E0,2.650502205E0,9.397196401E0
3.241870104E0,-1.077768087E0,-1.423678398E0,-1.775873303E-1,1.794430687E0
3.258698768E0,-1.755482912E0,4.733692646E0,-1.959426045E0,5.415617855E0
3.275491095E0,-2.101944447E0,9.255143166E0,-2.570401907E0,9.832741807E0
3.292309414E0,-1.733158827E0,1.206162643E1,-2.970235586E0,1.254228732E1
3.309117876E0,-6.767032146E-1,1.352987480E1,-2.837820053E0,1.384083314E1
3.325923878E0,1.717720747E0,1.391270161E1,-6.416329741E-1,1.403301548E1
3.342730671E0,3.841011047E0,1.365003967E1,4.112169743E-1,1.418612168E1
3.359537688E0,3.433995724E0,1.303874302E1,5.410178304E-1,1.349421530E1
3.376344442E0,1.525005698E0,1.220032787E1,1.303946018E0,1.236421926E1
3.393152476E0,-8.970725536E-2,1.131664371E1,2.422960043E0,1.157347000E1
3.409959950E0,-9.633649588E-1,1.065605831E1,2.720625162E0,1.103999330E1
3.426767518E0,-1.335103989E0,1.043298054E1,2.433800936E0,1.079597020E1
3.443572682E0,-1.458983660E0,1.036729813E1,1.641983509E0,1.059743429E1
3.460380087E0,-1.814806819E0,1.018956470E1,4.559627175E-1,1.035995438E1
3.477189404E0,-2.232845306E0,9.835170746E0,-1.618604064E-1,1.008674281E1
3.493987318E0,-2.512514591E0,9.701408386E0,4.050103128E-1,1.002966039E1
3.510797997E0,-2.834314585E0,9.586305618E0,4.760882258E-1,1.000785964E1
3.527610712E0,-3.217510462E0,9.662371635E0,-1.220999658E-1,1.018472914E1
3.544413506E0,-3.799295902E0,9.717301369E0,-3.602941930E-1,1.043984708E1
3.561224106E0,-4.130041122E0,9.489455223E0,2.777282596E-1,1.035297702E1
3.578030115E0,-4.256792068E0,5.126549244E0,-1.041180515E1,1.236153196E1
3.657861326E0,4.466390991E1,-6.580259705E1,-6.446514130E0,7.978974979E1
3.674666989E0,1.801882553E1,-2.433269691E1,-1.244375038E1,3.273538050E1
3.691473112E0,3.148773909E0,-1.042333794E1,2.677858353E0,1.121301370E1
3.708285724E0,-1.853286028E0,-5.376378059E0,5.538291931E0,7.938059439E0
3.725085122E0,-4.275978088E0,4.894857407E-1,3.813120842E0,5.750084822E0
3.741898183E0,-5.061519146E0,7.725057125E0,-1.653099060E0,9.382335538E0
3.758702230E0,-2.870046616E0,1.118037033E1,-1.686104059E0,1.166536734E1
3.775520884E0,-1.708176851E0,1.292480183E1,-1.277835131E0,1.309966538E1
3.792316957E0,-7.554043531E-1,1.511236095E1,-2.498449087E0,1.533611219E1
3.809123119E0,-2.863526344E-2,1.569594383E1,3.643937707E-1,1.570019922E1
3.825930696E0,3.114497960E-1,1.385176468E1,1.763669968E0,1.396706546E1
3.842738364E0,2.696495950E-1,1.237791538E1,1.900543809E0,1.252587589E1
3.859546196E0,3.884065151E-1,1.137369633E1,2.075430870E0,1.156802667E1
3.876350293E0,4.388714135E-1,1.065379333E1,2.412742376E0,1.093239435E1
3.893160373E0,3.723676801E-1,1.029993725E1,2.315672398E0,1.056360278E1
3.909970687E0,-5.392197520E-3,1.008487606E1,2.641728878E0,1.042513720E1
3.926773156E0,-3.060674071E-1,9.975195885E0,2.384953022E0,1.026090693E1
3.943579064E0,-5.790797472E-1,9.997204781E0,1.922903776E0,1.019691109E1
3.960387466E0,-7.159261703E-1,1.002620792E1,1.310184002E0,1.013676367E1
3.983484143E0,-9.003230929E-1,9.967224121E0,-1.988080293E-1,1.000977837E1
4.000301626E0,-7.007327080E-1,1.001741505E1,-1.001085162E0,1.009166993E1
4.017114543E0,-5.997920632E-1,9.945209503E0,-4.901142120E-1,9.975327289E0
4.033922206E0,-2.518491149E-1,1.037081146E1,-8.138694167E-1,1.040574561E1
4.050726219E0,3.247295022E-1,1.009825993E1,-2.533568859E0,1.041629848E1
4.067531791E0,1.457074523E0,8.776859283E0,-2.288151264E0,9.186509743E0
4.084339027E0,1.622952580E0,5.520626545E0,-6.968009472E0,9.036838414E0
4.178879842E0,1.472619295E0,-1.427475834E1,-1.215787125E1,1.880827388E1
4.195685120E0,-5.306950808E-1,2.515794754E0,-5.545196533E0,6.112288042E0
4.212492199E0,-1.266408086E0,1.030202007E1,-5.576225281E0,1.178260139E1
4.229301484E0,-1.002491713E0,1.221251202E1,-4.017208576E0,1.289528612E1
4.246101706E0,-5.774736404E-1,1.323393631E1,-4.666746855E-1,1.325474750E1
4.262916485E0,5.486039519E-1,1.491550446E1,2.786304474E0,1.518343611E1
4.279707441E0,1.576000690E0,1.458453178E1,5.132297873E-1,1.467841103E1
4.296529493E0,1.663019776E0,1.393504143E1,-4.889717996E-1,1.404243952E1
4.313333631E0,1.081164360E0,1.300938892E1,6.115592718E-1,1.306855467E1
4.330141708E0,4.092981219E-1,1.176105976E1,1.863181472E0,1.191475962E1
4.346947921E0,-2.197732329E-1,1.082927799E1,1.924516320E0,1.100115108E1
4.363759770E0,-9.179936051E-1,1.022009659E1,1.785617471E0,1.041544604E1
4.380561447E0,-1.508213997E0,9.817096710E0,1.760406494E0,1.008707729E1
4.397370092E0,-1.945240974E0,9.484533310E0,1.931500435E0,9.872741690E0
4.414176519E0,-2.199059963E0,9.341309547E0,1.579888344E0,9.725840630E0
4.430983751E0,-2.060590029E0,9.542013168E0,4.634853601E-1,9.772966042E0
4.445689134E0,-1.451330900E0,1.032135487E1,-1.100196123E0,1.048079955E1
4.462497408E0,-1.131294250E0,1.074964428E1,-2.008605242E0,1.099405175E1
4.479304618E0,-4.316619635E-1,1.117881107E1,-2.416239262E0,1.144510206E1
4.496112704E0,9.989243746E-1,1.234334564E1,6.029055119E-1,1.239836790E1
4.512913974E0,3.746276140E0,1.104436302E1,1.774082184E0,1.179660574E1
4.529727669E0,3.151539087E0,2.860879898E0,-5.165009022E0,6.692843238E0
4.546532835E0,5.023275375E0,-2.366526604E0,-3.102187634E0,6.360606243E0
4.563338336E0,8.424352646E0,-2.689075279E1,7.732073307E0,2.922100718E1
4.580136571E0,6.647655487E0,-7.612608337E1,2.644111633E1,8.086101982E1
4.596954183E0,1.587837458E0,-7.147906494E1,-9.385307312E0,7.211006827E1
4.613764486E0,-1.036815643E0,-3.085586929E1,-1.314875889E1,3.355666129E1
4.630566952E0,-1.024333239E0,-9.022369385E0,-4.207926989E-2,9.080428325E0
4.647373750E0,-6.802020073E-1,2.690753460E0,-3.774665892E-1,2.800948050E0
4.664178722E0,-1.505911350E-1,8.528157234E0,-2.612408161E0,8.920584056E0
4.680990695E0,4.937014580E-1,1.164833832E1,-2.408093929E0,1.190489156E1
4.697793428E0,1.943846822E0,1.310932350E1,-1.471397638E0,1.333408843E1
4.714605517E0,2.995223045E0,1.519435406E1,-1.365231752E0,1.554682006E1
4.731408018E0,2.888216734E0,1.571367645E1,-2.535912275E0,1.617690559E1
4.748218738E0,2.065022469E0,1.424831676E1,-1.551073194E0,1.448049296E1
4.765020008E0,2.988197207E-1,1.219892693E1,1.062142968E0,1.224872479E1
4.781820364E0,-8.953208923E-1,1.099978065E1,2.533721447E0,1.132327330E1
4.798637670E0,-1.621452570E0,1.055761623E1,3.035714149E0,1.110441036E1
4.815445246E0,-1.900180340E0,1.039239407E1,2.777716637E0,1.092374704E1
4.832250383E0,-1.797321200E0,1.011141872E1,1.630525231E0,1.039854628E1
4.849058600E0,-1.787036657E0,9.964361191E0,5.151822567E-1,1.013643955E1
4.865871319E0,-2.073811293E0,9.949479103E0,-1.405368090E0,1.026001399E1
4.882671923E0,-1.802261591E0,9.962450027E0,-1.717390776E0,1.026878710E1
4.899478213E0,-1.325191021E0,9.925065994E0,-1.215625286E0,1.008666501E1
4.916287005E0,-7.968475819E-1,1.018764591E1,-1.176869631E0,1.028630728E1
4.933096647E0,-1.121798754E-1,1.054301262E1,-1.209748864E0,1.061278435E1
4.949887633E0,1.019899130E0,1.116378784E1,3.025075912E0,1.161126339E1
4.966709308E0,3.722345114E0,6.137081146E0,-2.113170147E0,7.482319574E0
4.983512125E0,3.119392395E0,-2.698197365E0,-3.636782885E0,5.498824209E0
5.000321726E0,1.810256481E0,-6.914833069E0,5.093888283E0,8.777222951E0
5.017128809E0,1.940369844E0,-5.996810150E1,2.249598694E1,6.407813715E1
5.033924149E0,3.512731075E0,-7.193896484E1,2.102182388E1,7.502980089E1
5.050743633E0,2.508338451E0,-4.245676422E1,-1.887520981E1,4.653108784E1
5.067536149E0,-3.990368843E-1,-1.719953346E1,-1.401190376E1,2.218820923E1
5.084354184E0,-3.171543598E0,-5.013880730E0,-7.774869919E0,9.779892178E0
5.101151227E0,-3.904315948E0,1.155845642E0,-1.901188612E0,4.493793532E0
5.187293502E0,6.636852264E0,1.606441689E1,-7.012500763E-1,1.739554683E1
5.204108973E0,4.307129860E0,1.501062584E1,-4.140183926E-1,1.562183302E1
5.220908575E0,1.668068409E0,1.209559822E1,1.393658638E0,1.228935446E1
5.237726700E0,-9.280226231E-1,1.131799889E1,2.418527603E0,1.161066753E1
5.254519669E0,-2.498218536E0,1.063328838E1,1.753419995E0,1.106265788E1
5.271336128E0,-3.191664696E0,1.002715588E1,3.210563362E-1,1.052775644E1
5.286040895E0,-2.884469032E0,9.057452202E0,8.430117369E-2,9.506035382E0
5.302847592E0,-2.372123957E0,9.078372002E0,1.066811323E0,9.443616715E0
5.319654946E0,-1.723518252E0,9.513912201E0,1.858805180E0,9.845821308E0
5.336460599E0,-1.276399136E0,1.001113224E1,1.714338064E0,1.023674355E1
5.353267907E0,-2.970597744E-1,1.097774887E1,-1.370980144E-1,1.098262312E1
5.370077967E0,7.032291889E-1,1.143611050E1,-3.722953498E-1,1.146375848E1
5.386885309E0,2.326053619E0,6.467635155E0,-5.874822617E0,9.041812358E0
5.403687896E0,-5.702896118E-1,2.944335461E0,-5.268243790E0,6.062073422E0
5.420502045E0,-1.980081558E0,3.505057812E0,-2.439165115E-2,4.025760573E0
5.437300721E0,-1.850293636E0,-3.119007492E1,1.240153217E1,3.361610269E1
5.454110856E0,3.100107193E0,-8.895709991E1,2.787490654E1,9.327371926E1
5.470916124E0,1.933316946E0,-6.284770584E1,-1.585904980E1,6.484659825E1
5.487725252E0,6.594574451E-1,-2.448477554E1,-7.689209938E0,2.567222365E1
5.504531333E0,5.464696884E-2,-8.330309868E0,1.831292748E0,8.529401029E0
5.521345218E0,1.550550461E-1,3.214254379E-1,-1.584967017E0,1.624646677E0
5.538145145E0,1.541168928E0,6.363078594E0,-3.569437265E0,7.456866182E0
5.554940632E0,2.390058994E0,1.092930412E1,-3.166876554E0,1.162717411E1
5.571759551E0,2.424035072E0,1.290643501E1,-1.309228897E0,1.319720012E1
5.588565851E0,3.261744499E0,1.399689198E1,8.396785259E-1,1.439642394E1
5.605373189E0,4.963024616E0,1.596483803E1,3.088049650E0,1.700128575E1
5.622170803E0,5.800473213E0,1.632819748E1,8.248986006E-1,1.734750645E1
5.638988007E0,3.773553371E0,1.452865791E1,-2.735972881E0,1.525801931E1
5.655807155E0,7.004946470E-1,1.170794868E1,-1.341667771E-1,1.172965285E1
5.672600812E0,-9.163715243E-1,1.074821472E1,2.162177563E0,1.100176660E1
5.689408623E0,-1.694908381E0,1.023748112E1,2.920295715E0,1.077992862E1
5.706218055E0,-2.163233280E0,1.014374924E1,3.071334839E0,1.081703862E1
5.723021746E0,-2.370914459E0,1.004363060E1,2.931252956E0,1.072790729E1
5.739829802E0,-2.449896097E0,9.864590645E0,2.290750265E0,1.041919749E1
5.756638599E0,-2.615032196E0,9.594903946E0,1.095320344E0,1.000501383E1
5.773443231E0,-3.082700729E0,9.028356552E0,-1.395727634E0,9.641697021E0
5.790247568E0,-3.558161974E0,8.526887894E0,-1.647238016E0,9.385186565E0
5.807060572E0,-3.574966431E0,8.759164810E0,8.193550706E-1,9.496035798E0
5.823868072E0,-3.280390263E0,9.773756027E0,2.393220901E0,1.058370320E1
5.840673559E0,-3.225543261E0,1.024266624E1,1.372487307E0,1.082589777E1
5.857477184E0,-3.029956818E0,7.382725716E0,-1.234123588E0,8.075168007E0
5.874285401E0,-2.956333637E0,3.826205254E0,-2.226917744E0,5.323431023E0
5.891099072E0,-3.498521566E0,-1.510059547E1,1.622504950E0,1.558525454E1
5.907887281E0,1.423690510E1,-7.251904297E1,2.149808121E1,7.696667172E1
5.924724250E0,2.997623634E1,-7.808521271E1,3.574082851E0,8.371767589E1
5.941513980E0,1.387364388E1,-3.238121414E1,-2.114667130E1,4.108774429E1
5.958321648E0,1.396610260E0,-1.574640751E1,-3.303236008E0,1.614965132E1
5.975129526E0,-3.566499233E0,-9.891572952E0,5.877711773E-1,1.053131555E1
5.991923258E0,-2.938204527E0,-5.657867432E0,-1.233185410E0,6.493477957E0
6.008743337E0,-2.056412220E0,1.348714828E0,-1.526970387E0,2.894736857E0
6.025550771E0,-1.014421701E0,8.728328705E0,-1.151062608E0,8.862150896E0
6.042344219E0,4.938491583E-1,1.201134109E1,1.028864622E0,1.206543676E1
6.059170442E0,3.670092583E0,1.434106255E1,2.873384476E0,1.507952230E1
6.075962708E0,9.989674568E0,1.960681343E1,2.377648354E0,2.213309609E1
6.092775045E0,1.077430534E1,1.871308899E1,-1.957040429E0,2.168168265E1
6.109574954E0,5.128000736E0,1.612997055E1,-1.992796063E-1,1.692666695E1
6.126392591E0,6.422019005E-1,1.415534687E1,2.191375732E0,1.433835402E1
6.143185381E0,-1.726412892E0,1.311491585E1,2.214879990E0,1.341220387E1
6.160004424E0,-2.153614283E0,1.174800873E1,1.023213863E0,1.198752394E1
6.176813450E0,-2.025265694E0,1.037452221E1,3.985207081E-1,1.057786514E1
6.193616423E0,-2.149495363E0,9.123808861E0,2.910978198E-1,9.378110491E0
6.210429173E0,-2.887212276E0,8.696725845E0,6.669346094E-1,9.187700307E0
6.227232630E0,-3.397667885E0,8.564892769E0,1.489576101E0,9.333829448E0
6.244041219E0,-3.652649879E0,8.410161972E0,1.932739496E0,9.370600701E0
6.260848192E0,-3.931370974E0,8.015130043E0,2.095022202E0,9.169902146E0
6.277654944E0,-3.947670937E0,7.828884125E0,2.459210396E0,9.106220304E0
6.294462800E0,-3.699233532E0,8.309142113E0,2.880671978E0,9.540673059E0
6.311268181E0,-3.371595621E0,9.175305367E0,2.550868750E0,1.010251538E1
6.328076896E0,-2.924418688E0,9.626253128E0,1.661867380E0,1.019699844E1
6.344886035E0,-7.577188015E-1,6.267978668E0,-5.242004395E-1,6.335335861E0
6.361687911E0,-9.601211548E-1,-6.769664764E0,-4.360306740E0,8.109406176E0
6.378498050E0,9.340000153E0,-4.908145905E1,5.329021931E0,5.024563364E1
6.395304453E0,3.493339920E1,-8.758176422E1,2.634015656E1,9.790154060E1
6.412109803E0,1.833891869E1,-4.543094254E1,-1.500918388E1,5.124023887E1
6.428915370E0,3.226678848E0,-2.026637268E1,-1.407194233E1,2.488286316E1
6.445725897E0,-1.457879424E0,-1.046248817E1,-2.424534798E0,1.083823972E1
6.462530702E0,-3.741356850E0,-1.953333855E0,2.355803847E-1,4.227145886E0
6.479339367E0,-4.216903210E0,5.291557312E0,-1.740491867E0,6.986570218E0
6.496144971E0,-3.002065420E0,9.802500725E0,-1.221629858E0,1.032442719E1
6.512952771E0,-1.754160643E0,1.187913132E1,1.432416141E-1,1.200880338E1
6.529748151E0,-7.141715884E-1,1.284067345E1,5.659941435E-1,1.287296722E1
6.546568982E0,1.877742767E0,1.365997124E1,1.961930156E0,1.392730778E1
6.563370369E0,6.420103550E0,1.506391335E1,2.027185917E0,1.649996053E1
6.580181497E0,8.195049286E0,1.593469238E1,2.794644535E-1,1.792069626E1
6.596975641E0,4.804895401E0,1.500827217E1,-4.925795197E-1,1.576635303E1
6.613793908E0,1.201780558E0,1.310498333E1,-7.399533987E-1,1.318075854E1
6.630601730E0,-4.969683886E-1,1.147894382E1,-1.845078021E-1,1.149117801E1
6.647408651E0,-1.047523499E0,1.030421638E1,1.494720876E-1,1.035840348E1
6.664214788E0,-1.145354271E0,9.729722977E0,3.385609984E-1,9.802753142E0
6.681022402E0,-1.195691109E0,9.485281944E0,6.194159985E-1,9.580392840E0
6.697832154E0,-1.316879272E0,9.489750862E0,9.223682284E-1,9.624983407E0
6.714637951E0,-1.174159527E0,9.346999168E0,6.651458144E-1,9.443911425E0
6.731446409E0,-5.514867306E-1,9.597866058E0,1.284649968E-1,9.614555307E0
6.748250135E0,-2.341630459E-1,1.008449173E1,2.166852355E-1,1.008953707E1
6.765059248E0,4.287966490E-1,1.065310574E1,5.104367137E-1,1.067394370E1
6.781865486E0,2.386845589E0,1.208616257E1,9.201089144E-1,1.235390456E1
6.867988094E0,9.941916466E-1,-9.585784912E1,1.588464832E1,9.717014823E1
6.884808254E0,1.125040650E0,-4.853778076E1,-2.028256607E1,5.261714895E1
6.901610064E0,-6.627607346E-2,-1.480657196E1,1.823631287E0,1.491859902E1
6.918425636E0,5.656731129E-2,2.481605053E0,-7.092306137E0,7.514144651E0
6.935227171E0,-6.015476584E-1,6.140190601E0,-4.069017410E0,7.390582040E0
6.952035206E0,-5.295149088E-1,7.853510857E0,-4.222632647E-1,7.882659772E0
6.968844318E0,2.909607887E-1,1.026394367E1,7.579112053E-1,1.029600055E1
6.985647887E0,1.760880709E0,1.250365543E1,1.979670525E-1,1.262859022E1
7.002455271E0,4.270301819E0,1.396401882E1,9.389813542E-1,1.463253174E1
7.019251526E0,8.692849159E0,1.593028069E1,1.196370244E0,1.818710452E1
7.036069722E0,9.671647072E0,1.524278450E1,-3.140532374E-1,1.805496790E1
7.052868083E0,5.179902554E0,1.282950401E1,5.282509923E-1,1.384581571E1
7.069684785E0,1.328091860E0,1.173646736E1,6.578558683E-1,1.182967745E1
7.086479697E0,-6.241463423E-1,1.133894920E1,-2.769657969E-1,1.135949109E1
7.103297009E0,-1.388323069E0,1.093789864E1,-5.894911289E-1,1.104140242E1
7.117991464E0,-1.677730083E0,1.016975307E1,-1.711845249E-1,1.030863521E1
7.139040337E0,-1.133807778E0,9.038517952E0,5.687177181E-1,9.127089716E0
7.155819561E0,-5.340245962E-1,8.860466957E0,3.464442194E-1,8.883303471E0
7.172628900E0,-2.063119411E-2,9.059571266E0,4.758631885E-1,9.072083716E0
7.189436934E0,1.679239273E-1,9.576481819E0,1.107793808E0,9.641805308E0
7.206230453E0,3.592288494E-1,1.007820320E1,1.132747293E0,1.014802156E1
7.223048598E0,7.500702143E-1,1.109653473E1,2.105107754E-1,1.112384839E1
7.239858464E0,2.665300369E-1,8.556050301E0,-3.767758608E0,9.352702280E0
7.256664399E0,-1.888391614E0,2.221264839E0,-1.257166481E1,1.290530110E1
7.273469945E0,-2.426850319E0,1.958230019E0,7.385035157E-1,3.204630200E0
7.290280168E0,-5.182312012E0,-1.771830368E1,1.898251534E1,2.647886953E1
7.307083045E0,-6.903056622E0,-6.341973495E1,3.534198761E1,7.292990512E1
7.323884360E0,6.953081131E0,-6.918566132E1,-1.303371048E1,7.074516717E1
7.340700046E0,6.538768291E0,-3.999519730E1,-1.444557285E1,4.302378264E1
7.357507780E0,-2.599025726E0,-2.072670174E1,3.632996082E0,2.120258852E1
7.374311959E0,-7.703383446E0,-1.139942074E1,-6.533553004E-1,1.377373525E1
7.391121784E0,-6.665879250E0,-4.511048317E0,-6.056841850E0,1.007317409E1
7.407929488E0,-1.511642337E0,2.424962044E0,-3.302928925E0,4.367475581E0
7.424735391E0,4.128973007E0,8.297974586E0,-1.967321157E0,9.474975085E0
7.441542490E0,7.953436375E0,1.217941093E1,-1.532350898E0,1.462680075E1
7.458348541E0,1.069358921E1,1.618072128E1,2.268609762E0,1.952729325E1
7.475157395E0,1.159690475E1,1.683334732E1,5.221561790E-1,2.044804218E1
7.491962348E0,8.119104385E0,1.367646885E1,-2.877995968E0,1.616318400E1
7.508769121E0,2.642760038E0,1.230079746E1,6.772207022E-1,1.259969947E1
7.525577939E0,-4.350591600E-1,1.130727005E1,2.595313311E0,1.160944803E1
7.542382647E0,-1.353571177E0,1.079212093E1,3.310673952E0,1.136937075E1
7.559189364E0,-1.710712910E0,1.068182850E1,2.732308626E0,1.115766594E1
7.575998029E0,-2.186680317E0,1.053371525E1,2.030600548E0,1.094824490E1
7.592793313E0,-2.702382326E0,1.004314709E1,9.489417076E-2,1.040080182E1
7.609613041E0,-2.861340761E0,9.314852715E0,-1.315099239E0,9.832763500E0
7.626413802E0,-2.948191643E0,8.690979004E0,-1.066446781E0,9.239169808E0
7.643224573E0,-2.990725517E0,8.633243561E0,6.785891056E-1,9.161758383E0
7.660020804E0,-2.983852148E0,8.965738297E0,2.451065063E0,9.761944314E0
7.676840450E0,-2.635430813E0,9.735526085E0,2.450654030E0,1.037938673E1
7.693634950E0,-2.252218962E0,1.021266270E1,1.295071959E0,1.053794007E1
7.710454128E0,-1.889381409E0,1.031187916E1,7.007986307E-1,1.050693736E1
7.727261609E0,-1.890676737E0,1.030023289E1,1.609059572E0,1.059521254E1
7.744065609E0,-2.148473501E0,8.584107399E0,-1.554576874E0,8.984405794E0
7.760884102E0,-2.312417507E0,4.788018703E0,-7.221882343E0,8.968164941E0
7.777681024E0,-4.324808598E0,-2.235359192E0,-6.564407349E-1,4.912404153E0
7.794489236E0,3.683730602E0,-5.044361496E1,1.068865490E1,5.169502399E1
7.811298267E0,3.008908463E1,-8.654296112E1,1.659481430E1,9.311511690E1
7.828103154E0,1.531093407E1,-3.871565628E1,-1.392655849E1,4.390074914E1
7.844913726E0,2.618079901E0,-1.747435760E1,-7.301099777E0,1.911840930E1
7.861720225E0,-2.716701746E0,-1.459178257E1,8.340847492E-2,1.484276066E1
7.878524415E0,-3.602139711E0,-1.311754704E1,1.046265244E0,1.364331784E1
7.895330476E0,-2.428292036E0,-6.243673325E0,-2.344820738E0,7.097763245E0
7.912137600E0,5.335807800E-1,2.500838757E0,-5.521196365E0,6.084612744E0
7.928950319E0,3.377701521E0,9.384641647E0,-4.530034542E0,1.095452324E1
7.945753034E0,3.776214600E0,1.227319050E1,-1.381894827E0,1.291513202E1
7.962558745E0,2.499827385E0,1.347308922E1,2.087908268E0,1.386119154E1
7.979367354E0,2.050342083E0,1.377969933E1,2.804943323E0,1.421097193E1
7.996175184E0,3.171980858E0,1.408126926E1,1.976906180E0,1.456886285E1
8.012979720E0,4.116286278E0,1.428268051E1,1.041178107E0,1.490043044E1
8.029774719E0,4.663022995E0,1.398110580E1,8.698107004E-1,1.476386378E1
8.046597020E0,2.500456333E0,1.351107216E1,1.251582146E0,1.379738419E1
8.063385615E0,-5.508084297E-1,1.269551659E1,1.735115945E-1,1.270864421E1
8.080209128E0,-1.719210863E0,1.176866436E1,-9.338638186E-2,1.189394248E1
8.097014919E0,-1.835011005E0,1.078614426E1,2.900187373E-1,1.094496616E1
8.113822241E0,-1.727058887E0,1.003521538E1,9.111730456E-1,1.022342978E1
8.130631543E0,-1.674752712E0,9.566694260E0,1.274243474E0,9.795413832E0
8.147422702E0,-1.715058327E0,9.288361549E0,1.333105326E0,9.538986065E0
8.180973666E0,-8.070874810E-1,9.277749062E0,-2.437567115E-1,9.315977414E0
8.197861098E0,-4.252349138E-1,9.069488525E0,-1.057365060E0,9.140813296E0
8.214652739E0,5.824973583E-1,8.535321236E0,-2.066218138E0,8.801151582E0
8.231472478E0,1.276646137E0,6.636391640E0,-5.391955376E0,8.645501844E0
8.248279780E0,3.846561909E0,1.566280365E0,-1.056494999E1,1.135197961E1
8.265090448E0,3.764084816E0,-8.665542603E-1,-1.221267462E0,4.051017773E0
8.281885646E0,1.226940155E-1,-5.944155693E0,1.045459557E1,1.202691187E1
8.298697653E0,-5.040929794E0,-4.099094391E1,3.710449219E1,5.551947223E1
8.315507707E0,1.320817709E0,-6.879972839E1,1.988397789E1,7.162764664E1
8.332312945E0,6.681419373E0,-5.034844208E1,-4.379860687E1,6.706657102E1
8.349122566E0,4.157278061E0,-2.784138870E1,-1.179734802E1,3.052217728E1
8.365929995E0,-9.797999859E-1,-1.423838234E1,-1.501468062E0,1.435081691E1
8.382734998E0,-3.161925793E0,-7.774986267E0,-1.832536697E0,8.591063783E0
8.399544620E0,-5.246820450E-1,-2.286293030E0,-8.184257746E-1,2.484400897E0
8.416348896E0,4.378296852E0,3.843570709E0,-1.813862562E0,6.101853531E0
8.433159082E0,8.545375824E0,9.626813889E0,-8.154073954E-1,1.289821239E1
8.449964147E0,9.572051048E0,1.295622063E1,6.548521519E-1,1.612193058E1
8.466772359E0,7.263009548E0,1.438578606E1,9.018230438E-1,1.614049048E1
8.483579346E0,6.059071064E0,1.676047134E1,1.608170986E0,1.789446718E1
8.500385697E0,5.738302708E0,1.825737381E1,-3.793261528E0,1.951021910E1
8.517191366E0,5.117501736E0,1.281392479E1,-6.288876057E0,1.516362274E1
8.534000312E0,3.192193031E0,1.022761726E1,-1.070631981E0,1.076756723E1
8.550805372E0,4.140198827E-1,9.915227890E0,2.436875582E0,1.021868481E1
8.567631487E0,-1.721918106E0,9.395176888E0,2.079751253E0,9.775465001E0
8.584418948E0,-2.265334606E0,8.863390923E0,2.135505676E0,9.394244196E0
8.601215346E0,-2.738453388E0,8.893502235E0,4.063012600E0,1.015389484E1
8.618033445E0,-3.173851967E0,9.320261002E0,4.303681850E0,1.074533754E1
8.634834258E0,-3.323997498E0,9.973846436E0,3.200238705E0,1.098945403E1
8.651658107E0,-3.087807655E0,1.022062683E1,1.202717423E0,1.074440776E1
8.668445922E0,-2.568996429E0,1.013470268E1,6.606280804E-1,1.047608565E1
8.685263240E0,-2.343488216E0,1.034789085E1,4.789699912E-1,1.062074359E1
8.702056810E0,-2.393172979E0,9.754846573E0,-2.088077307E0,1.025886813E1
8.718879248E0,-1.770443559E0,6.232526302E0,-1.210717201E1,1.373180500E1
8.735685345E0,-5.837344170E0,-4.155178070E-1,-2.022096252E1,2.105076168E1
8.752492002E0,-4.926733017E0,-3.074891090E0,7.308550835E0,9.335018411E0
8.769294014E0,-1.522978783E0,-1.090551567E1,1.898029709E1,2.194314048E1
8.786104770E0,1.179410744E1,-3.964617157E1,2.796146631E0,4.145766909E1
8.802919070E0,2.463948631E1,-6.535948181E1,-1.011615753E1,7.057834506E1
8.819718418E0,7.114515781E0,-3.496642303E1,-4.777116776E0,3.600122108E1
8.836527959E0,-2.862718821E0,-1.708701324E1,4.470386028E0,1.789261110E1
8.853331924E0,-5.132878304E0,-9.438078880E0,9.190738201E-1,1.078278579E1
8.870140188E0,-2.669592381E0,-7.958782196E0,-1.709412575E0,8.566856417E0
8.886951396E0,-6.747297049E-1,-5.161241531E0,5.985605121E-1,5.239460755E0
8.903753190E0,1.981763840E-1,5.544166565E-1,4.095129073E-1,7.171837487E-1
8.920560594E0,1.607874036E0,7.403363705E0,-2.039629459E0,7.845708470E0
8.937370251E0,3.078479052E0,1.184556389E1,-3.069456339E0,1.261808144E1
8.954172471E0,3.397276402E0,1.313394260E1,-2.726328850E0,1.383744211E1
8.970986456E0,3.539252281E0,1.294699860E1,-3.388531446E0,1.384316527E1
8.987784411E0,4.991625786E0,1.229072285E1,-5.252755165E0,1.426778304E1
9.004601678E0,3.598427296E0,1.115120888E1,-5.757200718E0,1.305540113E1
9.021404260E0,3.254777193E-2,1.039064980E1,-1.085103989E0,1.044720600E1
9.038210946E0,-1.741031528E0,1.004909897E1,1.392977238E0,1.029349146E1
9.055016743E0,-2.084967613E0,1.022448826E1,1.925074339E0,1.061099247E1
9.071816793E0,-2.382855892E0,1.036700726E1,2.008284330E0,1.082525046E1
9.088626333E0,-2.712681770E0,1.011479473E1,1.679446220E0,1.060604801E1
9.105439423E0,-2.879931927E0,9.463939667E0,9.519373178E-1,9.938125909E0
9.122224876E0,-2.746497631E0,8.862356186E0,5.574506521E-1,9.294910308E0
9.139053977E0,-2.410746336E0,9.168831825E0,4.041860998E-2,9.480548961E0
9.155848910E0,-2.192265511E0,9.665756226E0,-1.611340046E-1,9.912559490E0
9.172668028E0,-2.120197296E0,9.875147820E0,7.725609839E-2,1.010048264E1
9.189473284E0,-2.232821465E0,1.024142838E1,9.170652628E-1,1.052204142E1
9.206281818E0,-2.152776480E0,1.106658840E1,2.748885870E0,1.160431812E1
9.223090229E0,-1.661634207E0,9.371615410E0,4.034949303E0,1.033774731E1
9.239883463E0,-3.173153400E0,5.559892178E0,-2.035564423E0,6.717501474E0
9.256701863E0,-5.494293213E0,-5.279342651E0,-8.631826401E0,1.151378060E1
9.273508295E0,-1.595328689E0,-2.514924240E1,1.369497061E0,2.523697663E1
9.290319458E0,8.533750534E0,-5.941981888E1,1.662420082E1,6.228887402E1
9.307123663E0,9.600900650E0,-5.559126282E1,4.186300039E-1,5.641578721E1
9.323933178E0,7.416383743E0,-3.313634872E1,-9.634882927E0,3.529661915E1
9.340739697E0,2.592965603E0,-2.407145691E1,-5.229447365E0,2.476904576E1
9.357545498E0,-1.685097694E0,-1.733194351E1,-2.994165421E0,1.766920617E1
9.374351595E0,-3.645183563E0,-9.733879089E0,-9.111874700E-1,1.043388844E1
9.391160225E0,-3.308740377E0,-1.842675209E0,4.756493568E-1,3.816995824E0
9.407967289E0,-1.245147705E0,6.683673859E0,-6.193525195E-1,6.826821120E0
9.424773680E0,1.048087716E0,1.205851364E1,-2.287600994E0,1.231825302E1
9.441580570E0,2.911295891E0,1.371650887E1,-9.414874315E-1,1.405363504E1
9.458387685E0,4.573484898E0,1.607813454E1,1.181325197E0,1.675764612E1
9.475195647E0,6.752423763E0,1.793814468E1,3.062511683E0,1.941008086E1
9.492000005E0,7.470470905E0,1.696637154E1,-1.715806127E-2,1.853823058E1
9.508807292E0,5.147882462E0,1.419386673E1,-2.839512229E-1,1.510123091E1
9.525622702E0,2.643435001E0,1.138936138E1,2.054470778E-1,1.169390909E1
9.542422416E0,1.523271799E-1,9.970922470E0,-1.126378775E0,1.003549837E1
9.559228212E0,-1.560028791E0,9.816894531E0,-1.456923962E0,1.004627968E1
9.576035707E0,-2.017942190E0,9.462898254E0,-6.417135000E-1,9.696923753E0
9.592842649E0,-1.803739190E0,9.059841156E0,5.098928809E-1,9.251712684E0
9.609638736E0,-1.377807021E0,9.029376030E0,1.296294212E0,9.225419360E0
9.626456597E0,-7.900336981E-1,9.214859962E0,1.849350095E0,9.431749209E0
9.643256056E0,1.448798180E-2,9.684406281E0,1.638124943E0,9.821984944E0
9.660072616E0,4.209483862E-1,9.929013252E0,1.212183952E0,1.001158787E1
9.676868657E0,-1.369973421E-1,1.007863331E1,7.421973944E-1,1.010685285E1
9.758810564E0,-2.930121422E0,9.740800858E-1,8.483178616E-1,3.202200299E0
9.775618416E0,-3.657906771E0,-5.813970947E1,2.325243568E1,6.272385403E1
9.792426360E0,2.030649185E-1,-8.573804474E1,3.839022446E1,9.394074135E1
9.809234332E0,6.786495209E0,-5.740342331E1,-4.590893173E1,7.381625524E1
9.826038959E0,5.001240730E0,-2.979537392E1,-1.291428089E0,3.023978343E1
9.842848520E0,2.922284365E0,-1.117013168E1,1.218792796E0,1.161021290E1
9.859657511E0,1.126018882E0,-4.625473022E-1,-1.292666674E0,1.775628243E0
9.876460999E0,1.635071397E0,4.468795300E0,-9.841655493E-1,4.859235715E0
9.893263346E0,3.133372307E0,1.009642410E1,-1.881579995E0,1.073760425E1
9.910080375E0,5.960783482E0,1.394995499E1,-3.371104717E0,1.554015865E1
9.926883841E0,9.147149086E0,1.608255577E1,-2.372675896E0,1.865337845E1
9.943691305E0,8.864336967E0,1.685450554E1,-1.953848153E-1,1.904439556E1
9.960496472E0,4.772450924E0,1.487234402E1,-5.368706584E-1,1.562853590E1
9.977287010E0,1.566630006E0,1.323345852E1,1.433233023E0,1.340272028E1
9.994098666E0,-5.141142607E-1,1.218318939E1,1.990042090E0,1.235535045E1
1.001090559E1,-1.289193153E0,1.161374569E1,1.645688653E0,1.180039826E1
1.002772594E1,-1.336606026E0,1.096753025E1,1.977172494E0,1.122419024E1
1.004451642E1,-1.988496065E0,1.052244377E1,2.301438570E0,1.095319857E1
1.006133962E1,-2.328602791E0,1.028040981E1,2.454411507E0,1.082281630E1
1.007814666E1,-2.536078930E0,1.018592930E1,2.229872704E0,1.073113155E1
1.009495069E1,-2.916614771E0,9.611199379E0,2.106858253E0,1.026258481E1
1.011176444E1,-3.455131054E0,8.812434196E0,1.971357346E0,9.668669859E0
1.012856456E1,-4.120656967E0,7.267309189E0,1.856811523E0,8.558115781E0
1.014537697E1,-3.849544048E0,6.674662590E0,-2.524409533E0,8.108190523E0
1.016218337E1,-2.325922012E0,7.051539421E0,-9.052357674E0,1.170808699E1
1.017898908E1,-7.647182941E-1,8.942241669E0,-4.599258900E0,1.008472422E1
1.019579067E1,1.214034557E0,1.149548244E1,-1.687648773E0,1.168195852E1
1.021259606E1,5.021663189E0,1.325833321E1,4.488215923E0,1.487093080E1
1.022941075E1,9.906505585E0,-2.150058746E-2,-2.449388504E0,1.020484293E1
1.024621573E1,8.858684540E0,-1.691655350E1,2.033853340E1,2.789806472E1
1.026302252E1,6.467354774E0,-2.287370682E1,9.418956757E0,2.556853316E1
1.027983023E1,1.202307224E0,-5.621968842E1,-2.707513094E0,5.629768677E1
1.029663746E1,-6.555821896E-1,-6.694586945E1,-2.197773743E1,7.046417647E1
1.031344609E1,6.051604748E-1,-3.556868744E1,-5.275785923E0,3.596292066E1
1.033025098E1,6.186845303E-1,-1.657609177E1,-1.340579748E0,1.664171694E1
1.034706134E1,-1.051138878E0,-8.182305336E0,-2.668540001E0,8.670416327E0
1.036386336E1,-2.266272545E0,-5.519797325E0,-7.602187991E-1,6.015154726E0
1.038067470E1,-1.041227341E0,-3.791847229E-1,-1.499546409E0,1.864557551E0
1.039747985E1,1.651549101E0,6.474557877E0,-2.956646442E0,7.306796310E0
1.041428756E1,3.819128275E0,1.168141365E1,-2.279236555E0,1.249944338E1
1.043109475E1,2.925083637E0,1.366660309E1,1.067568779E0,1.401684192E1
1.044790291E1,2.415421486E0,1.419697571E1,1.245794773E0,1.445477031E1
1.046469633E1,2.871715784E0,1.455095482E1,1.322383881E0,1.489045791E1
1.048151680E1,2.206361294E0,1.461867332E1,-1.484130859E0,1.485854247E1
1.049830435E1,6.004103422E-1,1.318321228E1,-1.994841337E0,1.334679627E1
1.051512899E1,-7.612290382E-1,1.121919155E1,3.042542934E-1,1.124910216E1
1.053192241E1,-2.168176413E0,1.037734699E1,1.027320266E0,1.065108945E1
1.054663488E1,-2.797026157E0,9.984882355E0,1.459238529E0,1.047141863E1
1.056344702E1,-3.049322605E0,9.717626572E0,1.514548182E0,1.029681945E1
1.058025910E1,-3.235630751E0,9.250352859E0,8.695840240E-1,9.838420135E0
1.059706494E1,-2.602947712E0,8.997045517E0,-4.900780022E-1,9.378824088E0
1.061387703E1,-7.125628591E-1,9.975469589E0,-1.060426950E0,1.005695007E1
1.063068218E1,5.648939610E-1,1.140784073E1,-3.993400633E-1,1.142879730E1
1.064748360E1,1.623122334E0,1.182139969E1,4.464157671E-2,1.193239329E1
1.066429535E1,2.672455788E0,1.073196697E1,-3.235667348E-1,1.106443991E1
1.068110186E1,3.176809311E0,1.083806229E1,-1.216878176E0,1.135942358E1
1.069792257E1,2.128708363E0,1.039689541E1,-2.331798226E-1,1.061514043E1
1.071472357E1,-8.719694614E-1,7.521008968E0,1.417614818E-1,7.572714372E0
1.073152314E1,-1.477085948E0,2.751559258E0,-4.562615871E0,5.529043754E0
1.074833001E1,-2.632224083E0,-4.732281685E0,-3.610783815E-1,5.427105229E0
1.076513769E1,-6.235713005E0,-5.179195404E1,2.002841759E1,5.587869121E1
1.078194272E1,1.566036463E0,-9.529862976E1,1.552822304E1,9.656814700E1
1.079875125E1,1.146030617E1,-5.679364777E1,-2.323083496E1,6.242218145E1
1.081556347E1,6.249992371E0,-2.331836319E1,-6.874289989E0,2.510108223E1
1.083236407E1,2.141785622E-1,-8.521109581E0,-3.157163858E-1,8.529645818E0
1.084917053E1,-2.753862381E0,-2.937708855E0,-6.033393145E-1,4.071597924E0
1.086597994E1,-2.270234585E0,1.850160599E0,-2.304078817E0,3.726370688E0
1.088278534E1,1.052339077E-1,8.304711342E0,-4.345066071E0,9.373308050E0
1.089959513E1,1.649017811E0,1.242444038E1,-3.095666409E0,1.291003986E1
1.091639930E1,2.304190159E0,1.401186562E1,-4.253741503E-1,1.420642860E1
1.093320662E1,2.486195564E0,1.481551456E1,1.843914509E0,1.513541083E1
1.095000193E1,3.001701593E0,1.526368809E1,4.338700771E0,1.614975885E1
1.096681576E1,2.693689823E0,1.441716862E1,2.589612007E0,1.489351557E1
1.098362798E1,6.417426467E-1,1.337481689E1,1.630316138E0,1.348908786E1
1.100043631E1,-6.459670067E-1,1.235728073E1,1.261071920E0,1.243824597E1
1.101723356E1,-1.403686166E0,1.179170799E1,4.072839022E-1,1.188194397E1
1.103404855E1,-1.971331120E0,1.133556557E1,-1.359904110E-1,1.150650627E1
1.105084561E1,-2.114934921E0,1.024454117E1,-5.122268796E-1,1.047310603E1
1.106766349E1,-1.629076123E0,9.038490295E0,-1.565536857E0,9.316603538E0
1.108447151E1,-7.933704853E-1,8.500815392E0,-8.425825238E-1,8.579233320E0
1.110127687E1,4.773550034E-1,8.691021919E0,1.755033433E-2,8.704139120E0
1.111806989E1,2.244279146E0,9.384385109E0,8.935557604E-1,9.690300029E0
1.113488596E1,1.879120111E0,1.128490829E1,1.594190955E0,1.155083081E1
1.115169894E1,1.136500120E0,1.186067581E1,6.985323429E-1,1.193546022E1
1.116850537E1,1.917114258E-1,1.083898735E1,6.968973279E-1,1.086305970E1
1.118531562E1,-1.336753488E0,1.060818768E1,1.701603770E0,1.082663434E1
1.120212098E1,-1.482314706E0,1.089024925E1,2.111800194E0,1.119171505E1
1.121891563E1,-8.752095699E-1,6.508943081E0,5.048600674E0,8.283761258E0
1.123573356E1,-5.752406120E-1,2.919578552E-1,-7.545180798E0,7.572707205E0
1.125254127E1,-5.164216042E0,-1.572242260E1,-8.515769243E-2,1.654904685E1
1.126934932E1,-4.296115875E0,-7.851654816E1,1.344034481E1,7.977435562E1
1.128615514E1,5.136268616E0,-8.101992798E1,3.252519608E0,8.124770070E1
1.130296288E1,1.212948132E1,-4.455818939E1,-1.525607586E1,4.863439533E1
1.131976992E1,5.431159019E0,-2.041322517E1,-1.109831047E1,2.386146990E1
1.133657769E1,-3.495023727E0,-1.240039158E1,-5.791603565E0,1.412542297E1
1.135338374E1,-6.914649963E0,-6.261700630E0,-1.551563978E0,9.456671173E0
1.137019186E1,-4.049179077E0,2.865869045E0,-6.091742516E-1,4.998014591E0
1.138699924E1,8.439562321E-1,1.006525421E1,1.798062801E0,1.025936812E1
1.140380466E1,7.824076653E0,1.503391552E1,2.903866291E0,1.719497690E1
1.142061177E1,1.452633858E1,2.224536514E1,9.298294067E0,2.814834019E1
1.143742028E1,1.072435284E1,2.018710327E1,-1.222737789E0,2.289161353E1
1.145422567E1,5.048345089E0,1.499811649E1,-3.908238173E0,1.630041754E1
1.147102299E1,8.324943781E-1,1.295103645E1,-1.397456646E0,1.305278810E1
1.148784001E1,-1.154711604E0,1.198399353E1,1.164964139E-1,1.204005944E1
1.150463855E1,-2.256950378E0,1.134775352E1,9.435656071E-1,1.160843017E1
1.152146124E1,-2.872372627E0,1.094440937E1,9.203283787E-1,1.135242817E1
1.153824944E1,-3.262364864E0,1.061244297E1,1.492319345E0,1.120240989E1
1.155505564E1,-3.422929287E0,9.942106247E0,2.783389330E0,1.087700224E1
1.157186311E1,-3.563081503E0,9.825282097E0,3.279697180E0,1.095390942E1
1.165801974E1,-3.534452915E0,1.080254841E1,5.895245075E-1,1.138134213E1
1.168112901E1,-4.651687145E-1,7.088888168E0,-1.457442760E1,1.621365651E1
1.169793342E1,-1.442861557E0,2.014033318E0,-2.303804588E1,2.317088125E1
1.171472936E1,-3.273472548E0,5.814711571E0,2.830487490E0,7.248320674E0
1.173154522E1,-6.838974953E-1,-3.317236710E1,1.502496338E1,3.642283870E1
1.174834453E1,3.061863136E1,-1.144775009E2,3.680665207E1,1.240859720E2
1.176516015E1,3.000818253E1,-7.960102844E1,-2.541126251E1,8.878370915E1
1.178194879E1,1.126374531E1,-2.646706390E1,-2.103865051E1,3.563709087E1
1.179877065E1,3.971385479E0,-3.367541313E0,2.224515676E-1,5.211690879E0
1.181556266E1,1.275560141E0,8.329975128E0,5.661592007E0,1.015229843E1
1.183238540E1,1.243791342E0,1.188884544E1,4.054850578E0,1.262273647E1
1.184918123E1,2.519340992E0,1.345455933E1,1.747521162E0,1.379949549E1
1.186599965E1,3.181851625E0,1.658284569E1,2.959119797E0,1.714267601E1
1.188280714E1,3.335425377E0,2.032481384E1,1.009423852E0,2.062139803E1
1.189962317E1,2.644396544E0,2.061471176E1,-2.325082064E0,2.091327762E1
1.191642098E1,1.179677844E0,1.878651810E1,-1.869969726E0,1.891617532E1
1.193322658E1,1.187934160E0,1.532539177E1,2.121731043E-1,1.537282791E1
1.195003774E1,-5.232509971E-1,1.434400845E1,5.725221634E-1,1.436496264E1
1.196684415E1,-1.520673394E0,1.176598740E1,3.301783800E0,1.231473440E1
1.198364903E1,-5.984010100E-1,9.948191643E0,-1.127533674E0,1.002975239E1
1.200045611E1,-1.079064727E0,9.132541656E0,-1.585693121E0,9.331780134E0
1.201726482E1,-1.724130392E0,9.011742592E0,1.273184270E-1,9.176074331E0
1.203407042E1,-2.035024166E0,9.097553253E0,1.376677990E0,9.423483477E0
1.205088310E1,-2.070837975E0,9.190948486E0,1.679598212E0,9.569898335E0
1.206768445E1,-2.056125879E0,9.267813683E0,1.333927512E0,9.586416781E0
1.208449216E1,-2.094836712E0,9.221670151E0,6.359428763E-1,9.477972598E0
1.210128405E1,-2.058522940E0,9.170832634E0,2.532767355E-1,9.402437822E0
1.211810581E1,-1.575777769E0,9.533908844E0,9.448682070E-1,9.709339285E0
1.213491613E1,-1.292283773E0,1.004895592E1,1.068426371E0,1.018788728E1
1.215172010E1,-2.802300453E-1,1.037047482E1,4.570928574E0,1.133660729E1
1.216852877E1,4.630847454E0,4.693225861E0,9.502545595E-1,6.661388808E0
1.218533447E1,2.377590418E0,-1.126959133E1,-1.841526413E1,2.172046450E1
1.220214156E1,-1.088156462E0,-3.048804474E1,7.118433475E0,3.132693811E1
1.221895070E1,3.114359856E0,-9.206903839E1,1.569779682E1,9.344960082E1
1.223574534E1,6.451223373E0,-5.925720978E1,-1.935038757E1,6.266955156E1
1.225256348E1,2.347247601E0,-2.376879120E1,-1.123122692E0,2.391080114E1
1.226937145E1,-1.668229103E-1,-6.948642731E0,1.517857671E0,7.114447104E0
1.228617830E1,-1.450757980E-1,-5.954885483E-1,-6.193303108E0,6.223556619E0
1.230297337E1,1.064884186E0,1.919123173E0,-1.307555103E1,1.325847076E1
1.231979090E1,1.012388945E0,4.185567856E0,-9.687420845E0,1.060141652E1
1.233658732E1,1.157904387E0,8.350313187E0,-4.518194675E0,9.564651379E0
1.235340320E1,2.559154510E0,1.176910782E1,5.379375815E-1,1.205614148E1
1.237021602E1,4.423110485E0,1.502509499E1,5.528925419E0,1.660982848E1
1.238701944E1,7.224603176E0,1.485114765E1,1.473816633E0,1.658082064E1
1.240382696E1,7.866579056E0,1.289333916E1,-1.031195998E0,1.513884493E1
1.242063406E1,4.821201324E0,1.169705200E1,-6.727848053E-1,1.266955592E1
1.243744202E1,1.008817792E0,1.184632301E1,-2.826402783E-1,1.189255935E1
1.245424569E1,-1.578610659E0,1.133430481E1,7.701866031E-1,1.146959740E1
1.247105828E1,-2.706187010E0,1.060743999E1,1.609019995E0,1.106481707E1
1.248786683E1,-3.222938538E0,9.891357422E0,1.503282666E0,1.051123890E1
1.250467031E1,-3.419682503E0,9.514678955E0,8.616730571E-2,1.011092324E1
1.252147765E1,-3.591211796E0,9.284492493E0,-1.364491701E0,1.004790728E1
1.253828455E1,-3.939936638E0,9.325812340E0,-1.475854278E0,1.023093458E1
1.255509688E1,-4.286070824E0,9.345220566E0,-2.560472488E-1,1.028441105E1
1.257188606E1,-4.563808441E0,9.321873665E0,6.609560251E-1,1.040012207E1
1.258870463E1,-4.719367027E0,8.941166878E0,6.325628757E-1,1.013000622E1
1.260551500E1,-5.659381866E0,8.195584297E0,-4.828059196E0,1.106825915E1
1.262232258E1,-5.970332146E0,5.172175407E0,-8.482959747E0,1.159124111E1
1.263913029E1,-5.471392632E0,3.022028923E0,2.938075304E0,6.906597037E0
1.265593617E1,-7.266406059E0,-5.977486610E0,4.917428493E0,1.061659579E1
1.267274022E1,-5.383471012E0,-4.486772156E1,1.911350822E1,4.906547049E1
1.268954941E1,2.557787895E1,-8.678701782E1,2.726445007E1,9.449637343E1
1.270635451E1,3.042588234E1,-5.137645721E1,-1.429113293E1,6.139634478E1
1.272315658E1,1.559129524E1,-1.780752945E1,-1.686216354E1,2.906078374E1
1.273996976E1,8.505396843E-1,-6.850452423E0,-3.428683281E0,7.707657569E0
1.275677701E1,-4.322404861E0,-1.197673798E0,-1.935505867E0,4.885057755E0
1.277358295E1,-5.472617149E0,4.788965702E0,-6.278864384E0,9.607698419E0
1.279039283E1,-3.985121727E0,9.763012886E0,-7.441522121E0,1.290634988E1
1.280719827E1,-1.482445955E0,1.225862312E1,-4.479461670E0,1.313533645E1
1.282399419E1,5.583261251E-1,1.372220516E1,-2.437522888E0,1.394819560E1
1.284081201E1,1.930394292E0,1.538759708E1,1.777498484E0,1.560974269E1
1.285762838E1,2.775676727E0,1.536124611E1,2.900005102E0,1.587709964E1
1.287442364E1,2.179455757E0,1.443779850E1,1.323417187E0,1.466122389E1
1.289123399E1,1.079696178E0,1.328818226E1,2.307186127E0,1.353013819E1
1.290803983E1,-2.261726856E-1,1.202540684E1,3.368412733E0,1.249030696E1
1.292484995E1,-1.611101627E0,1.121966267E1,3.381509781E0,1.182840172E1
1.294165447E1,-1.990459442E0,1.067279530E1,1.424142718E0,1.094982514E1
1.295845131E1,-1.686231256E0,1.010394764E1,-1.510368228E0,1.035443605E1
1.297527037E1,-1.427615881E0,9.549424171E0,-3.088883162E0,1.013759283E1
1.299206173E1,-1.135553837E0,9.172692299E0,-2.842864752E0,9.670038600E0
1.300888730E1,-6.420952082E-1,8.727348328E0,-1.659177542E0,8.906838115E0
1.302568838E1,-6.817150116E-2,8.196560860E0,-1.017274737E0,8.259727911E0
1.304249735E1,-3.234260082E-1,8.041934013E0,-3.083140850E-1,8.054338249E0
1.305930464E1,-1.197571754E0,8.612067223E0,-1.814699173E-2,8.694953092E0
1.307611249E1,-1.437033653E0,8.905519485E0,1.228598595E0,9.103998986E0
1.309291643E1,3.184385300E-1,4.946067810E0,-6.423944950E0,8.113695742E0
1.310972658E1,-1.997151613E0,4.578475952E0,-2.873764277E0,5.762775176E0
1.312653320E1,-6.300967216E0,-2.480001831E1,1.131470299E1,2.797794846E1
1.314333887E1,-6.326624393E0,-8.298992157E1,2.922585869E1,8.821283396E1
1.316014528E1,3.342559338E0,-6.970753479E1,-1.636305809E1,7.168028166E1
1.317695893E1,5.938024044E0,-3.425230408E1,-2.346532631E1,4.194164998E1
1.325468817E1,1.745379686E0,1.126606750E1,-1.411831260E0,1.148755391E1
1.327149150E1,6.158107281E0,1.339539909E1,-2.390789509E0,1.493569137E1
1.328830186E1,8.769044876E0,1.584247398E1,-2.104579687E0,1.822935505E1
1.330510444E1,8.001255035E0,1.728105736E1,-1.874014378E0,1.913548942E1
1.332191212E1,4.870272636E0,1.584868336E1,-3.996219873E0,1.705491404E1
1.333872305E1,1.721392155E0,1.101242542E1,1.091381669E0,1.119945617E1
1.335552831E1,-5.277420878E-1,1.018039989E1,3.612997293E0,1.081539658E1
1.337233584E1,-1.720014572E0,1.016635036E1,3.562628508E0,1.090896199E1
1.338914372E1,-2.938322544E0,1.005741119E1,4.357456207E0,1.134780525E1
1.340594851E1,-3.340376854E0,1.011381912E1,6.948693991E-1,1.067381367E1
1.342275922E1,-3.611571789E0,9.819957733E0,-3.849512637E-1,1.047011023E1
1.343956451E1,-3.899113655E0,9.666615486E0,-9.547320604E-1,1.046699840E1
1.345636995E1,-4.275199890E0,9.510409355E0,-2.172417402E0,1.065103833E1
1.347317712E1,-4.721252441E0,9.005907059E0,-2.547230959E0,1.048260331E1
1.348998454E1,-4.662343979E0,8.532651901E0,8.498734832E-1,9.760424416E0
1.350679253E1,-3.108554363E0,9.831494331E0,5.429748058E0,1.165347824E1
1.352361066E1,-7.571582794E-1,8.168003082E0,-6.664103985E0,1.056881474E1
1.354040567E1,-3.591845751E0,6.200140476E0,-4.080528259E0,8.245835840E0
1.355721442E1,-4.541413307E0,4.178071022E0,9.701559544E-1,6.246752346E0
1.357401778E1,-6.408747673E0,-2.079810333E1,1.024542522E1,2.405414490E1
1.359081549E1,8.932996750E0,-8.632542419E1,2.828092384E1,9.127808032E1
1.360763451E1,2.207132149E1,-7.023184967E1,-4.232798576E0,7.373989778E1
1.362444208E1,9.305590630E0,-2.361732483E1,-1.534968376E1,2.966453844E1
1.364124740E1,4.078898430E-1,-8.695040703E0,-3.014202118E0,9.211705670E0
1.365805865E1,-3.323494434E0,-5.854057312E0,5.024850368E-2,6.731873972E0
1.367486545E1,-4.062631130E0,-2.373747826E0,-7.427671552E-1,4.763544215E0
1.369167044E1,-4.301150799E0,4.552832127E0,-3.638675213E0,7.243489206E0
1.370848143E1,-2.865939379E0,9.856120110E0,-5.449201584E0,1.162112344E1
1.372528134E1,-1.828238487E0,1.138387108E1,-2.539753914E0,1.180615630E1
1.374209245E1,-9.713034630E-1,1.194648266E1,-2.359482646E-1,1.198822547E1
1.375890049E1,1.818901539E0,1.357775688E1,1.781250238E0,1.381436706E1
1.377570815E1,6.262162209E0,1.447876453E1,3.000859261E0,1.605784712E1
1.379251295E1,5.032811165E0,1.423121643E1,-5.898485780E-1,1.510644335E1
1.380932066E1,1.821829438E0,1.336340141E1,-3.454169929E-1,1.349143701E1
1.382612704E1,2.014166117E-1,1.261500645E1,1.188934684E0,1.267251048E1
1.384293535E1,-7.258301377E-1,1.220917130E1,1.862653971E0,1.237174898E1
1.385974096E1,-1.098248839E0,1.172211266E1,2.003028631E0,1.194262112E1
1.387654803E1,-1.370832443E0,1.075129223E1,1.398098946E0,1.092813556E1
1.389335697E1,-1.619484782E0,9.836352348E0,5.135316849E-1,9.981997459E0
1.391435567E1,-7.732119560E-1,9.544013977E0,-1.501095295E0,9.692231250E0
1.393749855E1,4.846761227E-1,9.877060890E0,-2.419128656E0,1.018054155E1
1.395428108E1,1.036895275E0,1.008101559E1,-2.368836641E0,1.040737306E1
1.397108917E1,1.635774136E0,1.002560711E1,-1.786120772E0,1.031400903E1
1.398788592E1,8.124876022E-1,9.849786758E0,6.430318356E-1,9.904136774E0
1.400472452E1,2.393539667E0,3.948862553E0,-7.309583664E0,8.645956334E0
1.402151378E1,-4.254965782E-1,7.165384293E-1,-7.850825310E0,7.894930823E0
1.403831898E1,-3.079683065E0,-2.247603416E0,4.116870880E0,5.611131325E0
1.405512470E1,-6.268116951E0,-4.121668625E1,1.974385071E1,4.612942831E1
1.407193115E1,1.013358021E1,-8.253142548E1,5.857578278E0,8.335728440E1
1.408874177E1,1.525912094E1,-5.159197998E1,-1.952160645E1,5.723343680E1
1.410554567E1,4.406759262E0,-1.726964951E1,1.193337202E0,1.786293299E1
1.412234693E1,-3.127078056E0,-5.952056885E0,3.628541946E0,7.640151503E0
1.413917050E1,-6.608351231E0,-4.661557198E0,5.484255552E-1,8.105627186E0
1.415596928E1,-6.839898109E0,-2.939506531E0,-6.128106117E0,9.642540608E0
1.417277773E1,-4.732233524E0,1.129136086E0,-9.638405800E0,1.079665915E1
1.418958256E1,-1.562707663E0,6.185702324E0,-6.789433002E0,9.316725228E0
1.420639089E1,1.381350279E0,1.041528893E1,-3.027397156E0,1.093396111E1
1.422319577E1,4.407304764E0,1.328028965E1,1.938465834E-1,1.399385597E1
1.424000314E1,6.569262981E0,1.484919167E1,2.557477713E0,1.643759111E1
1.425681216E1,6.238136292E0,1.359031296E1,-1.451887608E0,1.502394516E1
1.427361802E1,1.571040750E0,1.100742531E1,-1.197656035E0,1.118328936E1
1.429042580E1,-1.487535834E0,9.767352104E0,3.079925060E0,1.034890663E1
1.430723148E1,-2.622474670E0,1.013454914E1,2.900168180E0,1.086266243E1
1.432403754E1,-3.286518097E0,1.005996132E1,1.040825605E0,1.063425319E1
1.434084886E1,-4.066065788E0,9.803119659E0,-1.534504414E0,1.072328074E1
1.435765284E1,-4.660476208E0,9.479633331E0,-2.554789782E0,1.086786260E1
1.437446087E1,-4.608464241E0,9.191218376E0,-1.079131484E0,1.033832494E1
1.439126891E1,-4.268822670E0,9.198851585E0,9.322425723E-1,1.018384965E1
1.440805535E1,-3.395787716E0,9.310138702E0,2.355225086E0,1.018612498E1
1.442488361E1,-2.600118160E0,9.839358330E0,2.131309986E0,1.039788772E1
1.444166902E1,-2.066431284E0,1.020243835E1,9.055291414E-1,1.044891715E1
1.445849707E1,-1.391759992E0,1.059913349E1,6.541815996E-1,1.071011579E1
1.447531121E1,-5.175710917E-1,9.689832687E0,1.350821018E0,9.797216685E0
1.449211022E1,1.179134846E-1,3.226768494E0,-1.635355759E1,1.666927666E1
1.450892295E1,-3.560803175E0,-3.410940170E-1,-1.289845467E0,3.802547266E0
1.452571312E1,-4.671706200E0,-1.904676819E1,8.755773544E0,2.147714570E1
1.454253175E1,9.465898514E0,-6.627774048E1,2.218735886E1,7.053099326E1
1.455933834E1,2.026128960E1,-6.278375626E1,-1.208053112E1,6.706906245E1
1.457614864E1,6.970230103E0,-2.492738342E1,-9.457154274E0,2.755714642E1
1.459295026E1,1.511725187E0,-1.176481724E1,6.048343182E-1,1.187695509E1
1.460976361E1,-2.579691410E-1,-7.075313568E0,4.948722124E-1,7.097288825E0
1.462656735E1,-2.054307461E0,-2.492529869E0,-2.078045607E0,3.840723608E0
1.464337430E1,-3.318105698E0,2.323489189E0,-5.253663063E0,6.633958322E0
1.466018248E1,-3.225512028E0,6.551906586E0,-6.340099335E0,9.671001361E0
1.467698959E1,-2.275353193E0,9.394542694E0,-4.289147377E0,1.057503900E1
1.469379567E1,-1.337140083E0,1.175476742E1,-5.647754669E-1,1.184404796E1
1.471060532E1,2.023153305E0,1.321449947E1,1.035617471E0,1.340852897E1
1.472741174E1,8.146720886E0,1.288682365E1,-1.845856667E0,1.535729377E1
1.474421628E1,6.165916920E0,1.368140030E1,-2.147388935E0,1.515950279E1
1.476102414E1,1.121949553E0,1.219500351E1,1.266305685E0,1.231179969E1
1.477783231E1,-1.820616841E0,1.098104954E1,2.560506105E0,1.142165864E1
1.479464183E1,-3.027070999E0,1.052260590E1,2.743542194E0,1.128784379E1
1.481144438E1,-3.606163025E0,1.021241379E1,3.505868912E0,1.138371310E1
1.482825489E1,-3.875658035E0,9.549394608E0,2.515395641E0,1.060843428E1
1.484506131E1,-3.654820442E0,9.277070999E0,-1.129573584E-2,9.971052421E0
1.486187041E1,-3.091408730E0,9.587431908E0,-1.715016842E0,1.021846081E1
1.487867397E1,-2.497735977E0,9.690006256E0,-2.318243504E0,1.027176515E1
1.489546962E1,-1.889793873E0,9.500047684E0,-2.391623020E0,9.977078107E0
1.491228815E1,-1.220570087E0,9.981300354E0,-1.102538943E0,1.011591519E1
1.492910337E1,-1.230945587E-1,1.107644463E1,2.357053280E0,1.132512596E1
1.494589113E1,3.881669521E0,7.018786907E0,-6.600644588E-1,8.047758260E0
1.496268865E1,2.639291525E0,-2.012687683E0,-1.353894901E1,1.393986771E1
1.503624250E1,8.392901421E-1,-3.031664085E1,-1.175412369E1,3.252633616E1
1.505303598E1,-1.133089066E0,-1.216966724E1,-8.694880605E-1,1.225319147E1
1.506985279E1,-3.621183634E0,-4.828046799E0,-7.435601950E-1,6.080780259E0
1.508665570E1,-4.661233902E0,-3.498525620E-1,-7.099792480E0,8.500385378E0
1.510346972E1,-3.463007689E0,4.074874878E0,-9.298725128E0,1.072675704E1
1.512026433E1,-1.756240845E0,8.477211952E0,-6.530594826E0,1.084417692E1
1.513707925E1,-4.672183990E-1,1.177907658E1,-3.565575838E0,1.231577318E1
1.515389642E1,8.580375910E-1,1.377670765E1,1.327305794E0,1.386707045E1
1.517070020E1,3.328109264E0,1.376679802E1,2.722435474E0,1.442264518E1
1.518750576E1,4.023524284E0,1.282346344E1,1.446916580E0,1.351752677E1
1.520430634E1,9.132312536E-1,1.027834797E1,4.649519444E0,1.131797064E1
1.522112396E1,-1.159938455E0,1.080876255E1,3.216515779E0,1.133670053E1
1.523792208E1,-2.469270945E0,1.093746090E1,-6.496390104E-1,1.123153510E1
1.525473738E1,-3.545926571E0,1.035298061E1,-3.906659365E0,1.161980164E1
1.527153932E1,-4.140001774E0,9.557432175E0,-4.905066490E0,1.151276690E1
1.528834821E1,-3.605939388E0,9.224866867E0,5.252168775E-1,9.918508978E0
1.530515371E1,-3.297654152E0,9.212614059E0,3.298243046E0,1.032594731E1
1.532196129E1,-3.374119997E0,9.279775620E0,3.848262072E0,1.059754888E1
1.533876990E1,-3.240293980E0,9.581514359E0,3.170424938E0,1.059983570E1
1.535557351E1,-2.672656059E0,1.017679501E1,1.232449055E0,1.059382734E1
1.537238322E1,-1.831077099E0,1.039201546E1,-6.175231934E-1,1.057015437E1
1.539544517E1,9.611496925E-1,9.311319351E0,-8.589389801E0,1.270441238E1
1.541229994E1,2.178399801E0,6.107925892E0,-9.097608566E0,1.117222744E1
1.542911017E1,-8.316125870E-1,4.461660385E0,-5.484561920E0,7.118877183E0
1.544591535E1,-3.740806818E0,-1.196728897E1,1.028414726E0,1.258043234E1
1.546272151E1,1.420909405E0,-6.661466980E1,1.987360382E1,6.953052096E1
1.547953021E1,6.114527702E0,-7.850613403E1,2.151498413E1,8.163023381E1
1.549633805E1,4.739451408E0,-3.647192764E1,-7.581288815E0,3.755182879E1
1.551314275E1,7.567374706E-1,-1.516407871E1,-8.468070984E0,1.738476807E1
1.552995516E1,-1.147562027E0,-6.851033211E0,-3.008401871E0,7.569942964E0
1.554675873E1,-5.014376640E-1,-2.522478104E-1,-5.355380058E0,5.384715801E0
1.556356796E1,1.878513336E0,4.612156868E0,-7.394103050E0,8.914794627E0
1.558037150E1,2.250086546E0,7.462046146E0,-5.682153225E0,9.645303905E0
1.559717406E1,1.261335135E0,9.104781151E0,-1.991620779E0,9.405028413E0
1.561398586E1,5.455161333E-1,1.022280788E1,1.134289980E0,1.030000013E1
1.563079443E1,-2.570420504E-1,1.115726757E1,3.170765638E0,1.160191557E1
1.564760036E1,-1.044360161E0,1.155227852E1,4.127525806E0,1.231187623E1
1.566440749E1,-1.526797414E0,1.171214867E1,4.268410206E0,1.255885594E1
1.568121569E1,-1.350228310E0,1.187406731E1,3.644467115E0,1.249394779E1
1.569802280E1,-1.187204957E0,1.186609650E1,2.705168486E0,1.222831297E1
1.571482871E1,-1.372950792E0,1.172926617E1,1.973388195E0,1.197309232E1
1.573164637E1,-1.667297363E0,1.174592304E1,1.675873518E0,1.198144986E1
1.574844425E1,-1.877095699E0,1.158685875E1,1.521104336E0,1.183606955E1
1.576524998E1,-2.035458565E0,1.133340645E1,1.246512771E0,1.158201137E1
1.578204934E1,-1.935061932E0,1.143933296E1,8.493767381E-1,1.163289492E1
1.579887097E1,-1.299396634E0,1.145616817E1,-8.704071641E-1,1.156243182E1
1.581565686E1,-5.161367655E-1,1.061680222E1,-2.111556768E0,1.083704565E1
1.583247723E1,-2.633507252E-1,9.694678307E0,-3.093232155E0,1.017959853E1
1.584929431E1,-4.822394848E-1,9.747364044E0,-1.815653443E0,9.926744590E0
1.586609935E1,2.707121134E0,7.542911530E0,-1.469919205E0,8.147679525E0
1.588290600E1,1.858400822E0,-1.450948715E-1,-1.110668182E1,1.126201968E1
1.589970773E1,-6.102266312E-1,-4.983425140E-1,-3.006453037E0,3.107970667E0
1.591651549E1,-2.144729614E0,-1.171627426E1,1.034605122E1,1.577693644E1
1.593332175E1,-2.621876717E0,-5.561434174E1,1.697830391E1,5.820731954E1
1.595012771E1,3.025247097E0,-8.147007751E1,-6.119416237E0,8.175556804E1
1.596693548E1,4.203805923E0,-3.741355896E1,-7.775089741E0,3.844344416E1
1.598374553E1,2.135496140E0,-1.042226410E1,-2.159714699E-1,1.064098569E1
1.600055055E1,-6.955673695E-1,-3.060169220E-1,-4.279296875E0,4.346244593E0
1.601734735E1,-1.086519480E0,2.256976604E0,-1.001640415E1,1.032486417E1
1.603416420E1,-1.176068783E0,2.693557739E0,-1.095862007E1,1.134591314E1
1.605097313E1,-1.190537930E0,5.160354614E0,-6.856676579E0,8.663755191E0
1.606777989E1,-2.566823959E-1,8.942087173E0,-1.877926469E0,9.140755805E0
1.608458736E1,7.736330032E-1,1.182340813E1,1.141857743E0,1.190358462E1
1.610139322E1,2.267649174E0,1.354929829E1,3.595721483E0,1.420052569E1
1.611820154E1,3.994162798E0,1.371220016E1,1.090586662E0,1.432365697E1
1.613500863E1,3.020388126E0,1.311457825E1,-6.781130433E-1,1.347496732E1
1.615181709E1,-1.565592289E-1,1.141317844E1,8.581697941E-1,1.144646707E1
1.616862658E1,-2.261237621E0,1.056372166E1,1.260296106E0,1.087629335E1
1.618543039E1,-3.260214329E0,1.013166809E1,1.013630152E0,1.069145181E1
1.620223587E1,-3.735336781E0,9.576103210E0,9.644088149E-2,1.027928959E1
1.621904276E1,-3.942060471E0,8.930737495E0,-6.120892167E-1,9.781235411E0
1.623585230E1,-4.065618038E0,8.584187508E0,-8.435704112E-1,9.535677020E0
1.625265762E1,-4.355120659E0,8.371110916E0,-1.657778025E-1,9.437693373E0
1.626945231E1,-4.900822639E0,8.426430702E0,1.621711135E0,9.881940292E0
1.628627145E1,-5.608345985E0,8.085190773E0,2.524369478E0,1.015855776E1
1.630307947E1,-6.515998840E0,7.685441971E0,9.285682440E-2,1.007635259E1
1.631988750E1,-7.736786842E0,6.226709843E0,-2.343758011E1,2.545486098E1
1.633667819E1,-6.596663475E0,3.190530300E0,-5.458483219E0,9.137313153E0
1.635350096E1,-4.626566887E0,3.023311138E0,1.124501228E1,1.252979779E1
1.637029654E1,-1.680708170E0,6.567382812E-2,9.103509903E0,9.257590699E0
1.638711286E1,1.180725098E1,-3.069123459E1,2.006476402E1,3.852217299E1
1.640392486E1,4.006425095E1,-9.060218048E1,8.505214691E0,9.942956295E1
1.642072688E1,2.391645241E1,-4.700304413E1,-3.275421906E1,6.208157310E1
1.643753888E1,4.386795998E0,-2.119531250E1,-1.019114399E1,2.392372602E1
1.645434052E1,-4.223446369E0,-1.273528099E1,1.825769067E0,1.354098644E1
1.647115252E1,-7.914085865E0,-7.444785118E0,4.055083275E0,1.159746873E1
1.648795590E1,-7.504641056E0,-2.159472466E0,9.129357338E-2,7.809692262E0
1.650476749E1,-4.956150055E0,5.141634941E0,-4.607707977E0,8.498870868E0
1.652157595E1,-1.071878672E0,1.083796501E1,-5.539050102E0,1.221848949E1
1.653837844E1,3.830691814E0,1.270021725E1,-6.244388103E0,1.466158589E1
1.655518754E1,7.451263905E0,1.486732674E1,-3.799761534E0,1.705863200E1
1.657199299E1,6.824661255E0,1.509202957E1,6.708404422E-1,1.657695342E1
1.658880142E1,4.785952568E0,1.471328354E1,-1.269340515E-1,1.547262637E1
1.660560729E1,1.951660275E0,1.295935249E1,1.728931665E0,1.321903928E1
1.662241705E1,-5.883181095E-2,1.150097084E1,3.894883156E0,1.214273059E1
1.663922217E1,-9.767574668E-1,1.121275806E1,3.341011047E0,1.174062832E1
1.665603038E1,-1.833532572E0,1.059111881E1,2.257022381E0,1.098306831E1
1.667283569E1,-2.366419315E0,1.038587570E1,9.368345141E-1,1.069317602E1
1.668964451E1,-2.718325138E0,1.027799225E1,-6.048967838E-1,1.064858283E1
1.670645042E1,-2.930830717E0,1.012569141E1,-1.437328339E0,1.063885840E1
1.672325817E1,-3.031819344E0,9.933738708E0,-5.705695748E-1,1.040176153E1
1.674006496E1,-2.990899563E0,9.730346680E0,5.283976197E-1,1.019334738E1
1.675686747E1,-2.892261982E0,9.514338493E0,9.854588509E-1,9.992944785E0
1.677366766E1,-2.431746244E0,9.251837730E0,8.088885546E-1,9.600218325E0
1.679048557E1,-1.760885000E0,9.336232185E0,-1.709828138E0,9.653468789E0
1.680729294E1,-1.287520647E0,9.428895950E0,-2.563265085E0,9.855562701E0
1.682409530E1,1.393395185E0,7.270551682E0,-1.355658913E1,1.544615100E1
1.684092155E1,-1.577182174E0,4.810629845E0,-1.037841225E1,1.154734185E1
1.685770248E1,-5.394652843E0,-3.867421150E0,-1.919859171E0,6.909781827E0
1.687452190E1,-7.277723312E0,-1.807593155E1,7.936203480E0,2.104014933E1
1.689133067E1,-1.144316673E0,-5.898296738E1,2.155198479E1,6.280754691E1
1.690813586E1,3.170385933E1,-7.601602173E1,3.358417749E0,8.243087544E1
1.692494447E1,2.440312195E1,-3.002072144E1,-1.686530495E1,4.220420106E1
1.694174917E1,2.947997332E0,-1.130952263E1,-8.768872261E0,1.461126658E1
1.703628421E1,3.543882370E-1,1.372142220E1,-2.300386906E0,1.391742785E1
1.705309645E1,2.900269508E0,1.426844120E1,-2.596122026E-1,1.456253330E1
1.706989447E1,4.572382927E0,1.549567413E1,-2.590136290E0,1.636250007E1
1.708671034E1,5.602080345E0,1.593098831E1,-3.860747814E0,1.732296356E1
1.710350979E1,8.367401123E0,1.415141678E1,-6.511932611E-1,1.645296481E1
1.712032507E1,5.931623459E0,1.249088287E1,1.772664547E0,1.394089852E1
1.713713419E1,2.273089886E-1,1.038482666E1,2.413135052E0,1.066393525E1
1.715394211E1,-2.319483042E0,9.332847595E0,2.087100029E0,9.840631705E0
1.717074741E1,-2.836003780E0,9.164493561E0,4.303511977E-1,9.602919443E0
1.718754999E1,-3.629045486E0,9.184270859E0,-5.242431760E-1,9.889167470E0
1.720227085E1,-4.970444679E0,9.419006348E0,-2.588450909E0,1.096006747E1
1.721906798E1,-5.617434502E0,9.130130768E0,-2.562016010E0,1.102174143E1
1.723588514E1,-5.855500221E0,8.491672516E0,-4.177041054E-1,1.032326797E1
1.725268268E1,-5.695467949E0,7.908861160E0,4.147630930E-2,9.746289565E0
1.726949156E1,-5.353269577E0,7.601634026E0,-1.375493169E0,9.398633756E0
1.728629810E1,-5.399188995E0,6.502464771E0,-2.635568380E0,8.853220352E0
1.730310389E1,-4.950053215E0,6.668165207E0,6.444549561E-1,8.329632420E0
1.731991682E1,-5.291730881E0,5.636207581E0,-2.813622355E-1,7.736175820E0
1.733672011E1,-7.068011284E0,-2.218051529E1,3.907759905E0,2.360513990E1
1.735352552E1,1.878393173E0,-7.825119781E1,2.263419914E1,8.148058230E1
1.737033243E1,2.555628777E1,-7.590245056E1,1.539597511E-1,8.008950961E1
1.738714274E1,1.824648476E1,-2.934458733E1,-4.557110786E0,3.485407107E1
1.740394790E1,1.019333076E1,-4.736698151E0,-1.246585083E1,1.678504508E1
1.742075523E1,1.677193642E0,1.173774719E0,-9.769943237E0,9.982109820E0
1.743756196E1,-2.045500755E0,4.500735283E0,-3.800754547E0,6.235898216E0
1.745436850E1,-4.441380024E0,9.602952003E0,8.961976051E0,1.386576931E1
1.747117707E1,-3.356576920E0,1.111860275E1,1.121058106E0,1.166819211E1
1.748798406E1,-2.794376373E0,1.125089550E1,-2.316068411E0,1.182181719E1
1.750478993E1,-2.534483671E0,1.278965187E1,-3.097060680E0,1.340114127E1
1.752158828E1,-2.320825100E0,1.387487221E1,-1.925298333E0,1.419877043E1
1.753840598E1,-2.410799503E0,1.389381313E1,-3.887144923E-1,1.410677485E1
1.755519794E1,-2.909117937E0,1.242265034E1,1.447997570E0,1.284063494E1
1.757201847E1,-3.009410143E0,1.150300217E1,2.654516220E0,1.218285946E1
1.758880606E1,-2.645682812E0,1.150760651E1,2.940558910E0,1.216846464E1
1.760563480E1,-2.300880909E0,1.150895119E1,3.170052052E0,1.215727109E1
1.762243982E1,-1.718052506E0,1.070533657E1,-8.138201833E-1,1.087282111E1
1.763924469E1,-1.499129057E0,9.780016899E0,-3.577164173E0,1.052103712E1
1.765605828E1,-1.514410138E0,8.891140938E0,-2.697627306E0,9.413979941E0
1.767286572E1,-1.246966839E0,8.900245667E0,-1.095162153E0,9.053655580E0
1.768966805E1,5.856814384E-1,1.025290012E1,-4.751955867E-1,1.028060283E1
1.770647571E1,2.847971678E0,1.090619087E1,2.583363056E0,1.156415612E1
1.772328448E1,1.710755348E0,6.174590588E0,1.114640117E0,6.503435659E0
1.774009640E1,-3.328809023E0,2.088009834E0,-6.323309898E0,7.444797019E0
1.775688526E1,-1.119832993E-1,-9.594783783E-1,-3.503456116E0,3.634190938E0
1.777370294E1,2.914137840E-1,-4.166030884E1,1.036156940E1,4.293050634E1
1.779051630E1,1.258072090E1,-8.899747467E1,9.118938446E0,9.034367756E1
1.780731877E1,1.133641434E1,-4.737451553E1,-1.441340160E1,5.079965706E1
1.782412693E1,3.154117584E0,-1.593674278E1,-4.944879532E0,1.698175674E1
1.784093664E1,-2.842658043E0,-3.082436562E0,9.264277220E-1,4.294227315E0
1.785774147E1,-5.565799713E0,2.067818165E0,-1.892669201E0,6.231869311E0
1.787454850E1,-5.746498108E0,5.128484249E0,-8.377238274E0,1.137988191E1
1.789135551E1,-4.045019627E0,7.597478867E0,-9.421673775E0,1.276134028E1
1.790817087E1,-2.592190504E0,9.937777519E0,-6.557487965E0,1.218521736E1
1.792495804E1,-6.217739582E-1,1.120945168E1,-1.722018600E0,1.135798212E1
1.794177651E1,2.371400118E0,1.155639648E1,6.130269170E-1,1.181311306E1
1.795858303E1,3.008671522E0,1.197674561E1,2.924808502E0,1.269051001E1
1.797539220E1,2.935294628E0,1.198507118E1,4.530977726E0,1.314487143E1
1.799219739E1,-6.362271309E-2,1.145348263E1,4.477744579E0,1.229782536E1
1.800899873E1,-2.333947182E0,1.086684036E1,2.736211777E0,1.144650094E1
1.802581195E1,-2.947968245E0,1.050636768E1,1.092499971E0,1.096666927E1
1.804260614E1,-3.246421337E0,1.032943249E1,-3.135369420E-1,1.083211579E1
1.805941480E1,-3.626065731E0,1.034346294E1,-1.643755198E0,1.108320845E1
1.807614830E1,-4.142443657E0,9.962143898E0,-2.130749226E0,1.099746529E1
1.809303917E1,-4.251988411E0,9.529083252E0,-1.679463148E0,1.056898432E1
1.810985043E1,-4.707383156E0,9.480628014E0,-1.677589655E0,1.071709246E1
1.812665655E1,-5.101769447E0,9.712290764E0,-1.970801592E0,1.114633134E1
1.814346224E1,-4.003245354E0,9.849287033E0,-1.963599443E0,1.081157487E1
1.816027044E1,5.571529865E-1,6.787704945E0,-1.236945343E1,1.412043682E1
1.817707864E1,-2.970054626E0,4.836475372E0,-4.038057804E0,6.965531519E0
1.819388658E1,-3.586983204E0,-3.366591454E0,4.981067181E0,7.000815437E0
1.821069062E1,-7.408504486E-1,-2.614895439E1,1.339016819E1,2.938729792E1
1.822749884E1,1.373563766E1,-7.229977417E1,1.264004612E1,7.467058225E1
1.824430651E1,2.130409813E1,-5.533987808E1,-1.596914482E1,6.141156479E1
1.826111278E1,9.399859428E0,-2.250338936E1,-3.220788240E0,2.459945867E1
1.827791549E1,-5.296938419E-1,-9.230542183E0,1.164058805E0,9.318718660E0
1.829473274E1,-5.909221172E0,-6.646023750E0,5.983722210E-1,8.913280870E0
1.831153488E1,-6.929709911E0,-4.939424515E0,-1.680164576E0,8.674200078E0
1.832834061E1,-5.294069767E0,5.062036514E-1,-6.538281441E0,8.428080507E0
1.834515173E1,-1.903321743E0,7.146289825E0,-7.244561195E0,1.035257257E1
1.836195524E1,1.420686007E0,1.073182869E1,-5.787734985E0,1.227551922E1
1.837876353E1,4.226515770E0,1.259427929E1,-3.930746078E0,1.385388289E1
1.839557001E1,5.957065582E0,1.441178608E1,-1.370635509E0,1.565454726E1
1.841237637E1,6.583076477E0,1.335824585E1,-1.408501983E0,1.495872675E1
1.842917273E1,3.831531763E0,1.138012505E1,-2.908215523E0,1.235498277E1
1.844599272E1,3.632863760E-1,1.093450737E1,7.324934006E-1,1.096503420E1
1.846280413E1,-1.395496249E0,1.069756413E1,2.255589008E0,1.102147766E1
1.847960830E1,-2.286906242E0,1.053301620E1,2.303575993E0,1.102183437E1
1.849640174E1,-2.759973049E0,1.043935776E1,2.527840137E0,1.108997824E1
1.851321860E1,-3.054285526E0,1.028966236E1,1.699295521E0,1.086707950E1
1.853001525E1,-3.579793453E0,1.011556816E1,-4.366663694E-1,1.073919540E1
1.854683585E1,-3.685200214E0,9.418171883E0,-1.844508171E0,1.028031481E1
1.856365081E1,-2.754002333E0,8.735446930E0,-1.535809994E0,9.287156414E0
1.858044983E1,-1.935616970E0,8.962652206E0,-1.039633512E0,9.228032589E0
1.859724461E1,-1.591184378E0,9.653040886E0,-1.229938507E0,9.860315147E0
1.861406298E1,-1.315945625E0,1.056181335E1,-6.486148238E-1,1.066322256E1
1.863087861E1,-6.562042236E-2,1.038254929E1,3.410153389E0,1.092843913E1
1.864767623E1,2.468285561E-1,3.742218018E0,-1.463105774E1,1.510407133E1
1.866448317E1,9.408330917E-2,-1.746785164E0,-4.819925308E0,5.127552053E0
1.868129310E1,2.380024433E0,-3.040664673E1,1.126825714E1,3.251464748E1
1.869810296E1,1.820515823E1,-8.047817993E1,1.406896591E1,8.370245536E1
1.871491353E1,1.199947071E1,-5.769170761E1,-1.610556221E1,6.108772019E1
1.873171509E1,2.382621765E0,-2.391690063E1,-2.735958099E0,2.419050411E1
1.874852084E1,-2.543357849E0,-1.057087708E1,4.517810822E0,1.177381527E1
1.876532876E1,-4.731983662E0,-4.745210648E0,2.363251448E0,7.105888464E0
1.878213415E1,-5.376733780E0,1.800270081E0,-4.749091625E0,7.396222669E0
1.879895255E1,-4.504485130E0,7.577471733E0,-9.010395050E0,1.260538310E1
1.881575013E1,-2.404463291E0,1.157185936E1,-7.762838364E0,1.414040425E1
1.883255986E1,-2.873277664E-2,1.303047562E1,-4.591684341E0,1.381584907E1
1.884936285E1,2.964370728E0,1.361584759E1,-1.493444204E0,1.401460577E1
1.886617186E1,5.928005695E0,1.255099678E1,-5.926284790E-1,1.389316307E1
1.888297750E1,2.992735863E0,1.180291843E1,1.870393753E-2,1.217644042E1
1.889978498E1,-3.008078337E-1,1.131047821E1,2.032890797E0,1.149565343E1
1.891659095E1,-1.643978715E0,1.091071033E1,3.021141529E0,1.143999835E1
1.893340072E1,-2.148060799E0,1.082092285E1,3.286995173E0,1.151133675E1
1.895020720E1,-2.539819002E0,1.043651390E1,2.272868633E0,1.097895418E1
1.896701308E1,-2.730955839E0,9.887104034E0,6.104748845E-1,1.027548663E1
1.898382757E1,-3.021491528E0,9.703969955E0,-8.180328012E-1,1.019635335E1
1.900062906E1,-3.423360586E0,9.648153305E0,-2.092688322E0,1.044919156E1
1.901743713E1,-3.717289209E0,9.256827354E0,-1.236777782E0,1.005170190E1
1.903423935E1,-3.753731728E0,9.295511246E0,6.171010137E-1,1.004379634E1
1.905103763E1,-3.737770796E0,9.504364967E0,1.146019459E0,1.027702508E1
1.906784679E1,-3.575193167E0,9.834944725E0,-1.773532867E0,1.061383827E1
1.908465540E1,-2.011731625E0,9.077599525E0,-1.093079853E1,1.435033915E1
1.910146816E1,-2.401682138E0,8.021463394E0,-6.290360928E0,1.047285027E1
1.911828143E1,-3.756204128E0,7.470451355E0,-2.031865358E0,8.604951466E0
1.913508827E1,-6.007947922E0,-8.041868210E-1,2.101790905E-1,6.065173528E0
1.915188762E1,-5.443745613E0,-3.539038849E1,1.004892159E1,3.718998237E1
1.916869764E1,1.338203049E1,-8.236864471E1,2.419795609E1,8.688620978E1
1.918550887E1,2.187421417E1,-5.427496338E1,-1.775744915E0,5.854405320E1
1.920231547E1,1.104740715E1,-1.854599190E1,-1.217221260E1,2.478228762E1
1.921911929E1,2.742643118E0,-7.594224930E0,-8.256288528E0,1.154818790E1
1.923592796E1,-1.633230686E0,-5.619182587E0,-7.407586098E0,9.440073475E0
1.925273539E1,-2.080162764E0,-4.160327911E0,-6.587145329E0,8.063863158E0
1.926954401E1,-1.494065523E0,1.531165600E0,-4.789128304E0,5.245231147E0
1.928634971E1,-1.209852219E0,6.621913910E0,-6.920946240E-1,6.767014201E0
1.930315663E1,-1.249628305E0,9.657107353E0,4.806210995E-1,9.749476395E0
1.931996535E1,-1.810541153E0,1.119109821E1,6.038820148E-1,1.135268303E1
1.933677256E1,-1.972510576E0,1.181318188E1,1.001343727E0,1.201851710E1
1.935357935E1,-1.891154528E0,1.264344788E1,1.660001278E0,1.289142521E1
1.937038693E1,-1.868758917E0,1.351854324E1,2.461935997E0,1.386738621E1
1.938719414E1,-1.842521548E0,1.444542408E1,3.344568014E0,1.494159622E1
1.940399970E1,-1.596816778E0,1.393156338E1,2.599142075E0,1.426162058E1
1.942080818E1,-1.117413402E0,1.304809189E1,1.464868307E0,1.317752457E1
1.943762128E1,-7.536144257E-1,1.201284695E1,-3.109647930E-1,1.204047863E1
1.945442107E1,-1.071798563E0,1.110284805E1,-1.653309464E0,1.127632117E1
1.947122974E1,-1.568175554E0,9.930714607E0,-1.429498434E0,1.015488715E1
1.948803555E1,-2.136025190E0,9.450826645E0,-4.856007993E-1,9.701367740E0
1.950484442E1,-2.415804625E0,9.354655266E0,8.985506296E-1,9.703251020E0
1.952165772E1,-2.154263735E0,9.381309509E0,2.691055298E0,9.994578479E0
1.953845077E1,-1.585839748E0,8.434948921E0,-1.845210791E0,8.778841260E0
1.955526444E1,-3.581122637E0,4.405087471E0,-1.573326683E1,1.672617470E1
1.957210053E1,-3.277977467E0,4.962047577E0,-3.376399040E0,6.838649202E0
1.965820768E1,1.254682159E1,-2.530405807E1,-9.143759727E0,2.968714249E1
1.967501900E1,3.988091469E0,-7.092480659E0,-3.386200666E-1,8.143882306E0
1.969182142E1,-5.859348774E-1,-1.737790108E0,-1.109528184E0,2.143428779E0
1.970863210E1,-2.500869036E0,1.948859692E0,-2.511596441E0,4.044813558E0
1.972543808E1,-3.144505024E0,6.678222656E0,-5.006353378E0,8.919088734E0
1.974223905E1,-3.088088989E0,9.976713181E0,-5.097750664E0,1.162145263E1
1.975905219E1,-2.597414494E0,1.222661400E1,-4.425525665E0,1.325978617E1
1.977585499E1,-1.923899770E0,1.462634277E1,1.099741936E1,1.840039472E1
1.979267031E1,8.810415268E-1,1.846101189E1,-1.459573269E1,2.355038443E1
1.980947168E1,1.610930681E0,1.115491104E1,-8.042901993E0,1.384613341E1
1.982627944E1,-1.885238528E0,9.103022575E0,-4.956603527E0,1.053503976E1
1.984308729E1,-1.444249868E0,8.052462578E0,1.003095865E0,8.242221337E0
1.985989465E1,-6.119639874E-1,7.805117607E0,-1.379862189E0,7.949740904E0
1.987670051E1,9.939904213E-1,7.221832275E0,-3.077687502E0,7.912966494E0
1.989351012E1,-8.801336288E-1,9.409312248E0,9.211651683E-1,9.495174430E0
1.991031540E1,-2.692077875E0,1.023500443E1,2.170585394E0,1.080342723E1
1.992712082E1,-3.271378040E0,9.411506653E0,1.267252207E0,1.004411768E1
1.994393627E1,-3.268285275E0,8.722098351E0,-4.315882921E-2,9.314427033E0
1.996494082E1,-3.777699947E0,9.062448502E0,2.673621774E-1,9.821938315E0
1.998174761E1,-3.753082514E0,8.811692238E0,-1.246036887E-1,9.578469321E0
1.999855362E1,-4.000847816E0,9.020387650E0,-8.038104177E-1,9.900519572E0
2.001536124E1,-4.006198883E0,9.434450150E0,2.129735947E-1,1.025201623E1
2.003217012E1,-3.396231651E0,9.737137794E0,1.511946678E0,1.042267838E1
2.004898335E1,1.792281389E0,7.687588692E0,-5.234584332E0,9.471650627E0
2.006576038E1,4.172205925E-2,-4.275846481E-1,-5.233968258E0,5.251570535E0
2.008259206E1,-3.733815670E0,-1.303471661E1,3.870289803E0,1.410050920E1
2.009939954E1,3.686424732E0,-6.023248672E1,1.898897552E1,6.326233774E1
2.011620810E1,1.888832855E1,-6.667932129E1,4.359215736E0,6.943992803E1
2.013301995E1,1.224369335E1,-2.937959671E1,-1.739658737E1,3.627271677E1
2.014982585E1,1.141855240E0,-1.379888916E1,-9.712267876E0,1.691275621E1
2.016662743E1,-3.458662510E0,-1.133976078E1,-4.292215347E0,1.260855398E1
2.018342826E1,-5.567148209E0,-7.776226044E0,-2.893435955E0,9.991736700E0
2.020023990E1,-5.772066116E0,-1.041586876E0,-3.161270618E0,6.662978493E0
2.021705930E1,-4.153898716E0,5.256515503E0,-1.780264139E0,6.932183652E0
2.023385508E1,-2.332844019E0,9.353375435E0,-7.422506809E-1,9.668439859E0
2.025064988E1,-8.509352207E-1,1.088293934E1,-1.305400610E0,1.099393151E1
2.026746912E1,2.970280170E0,1.270351219E1,-2.773175716E0,1.333762684E1
2.028427718E1,5.969093323E0,1.393811417E1,-1.377934456E0,1.522497307E1
2.030108348E1,5.887771606E0,1.447235107E1,-3.252985001E0,1.595922027E1
2.031789203E1,1.681391954E0,1.296301079E1,-1.490260959E0,1.315627627E1
2.033469876E1,-6.032694578E-1,1.120000648E1,8.700890541E-1,1.124993930E1
2.035150889E1,-1.466882706E0,1.066892242E1,2.339752197E0,1.102053043E1
2.036831069E1,-1.982793808E0,1.002815723E1,2.429826021E0,1.050711489E1
2.038512160E1,-2.449641705E0,9.753118515E0,2.244995356E0,1.030359497E1
2.040192752E1,-2.886058807E0,9.623388290E0,1.291999221E0,1.012957055E1
2.041873506E1,-3.143887997E0,9.259663582E0,-7.295625210E-1,9.806001369E0
2.043553786E1,-2.667768002E0,8.887138367E0,-1.861750364E0,9.463843240E0
2.045235082E1,-2.402516127E0,9.142082214E0,-2.012532234E0,9.664369454E0
2.046915687E1,-2.024440765E0,1.018209362E1,-2.555100918E0,1.069120815E1
2.048596562E1,-1.691423774E0,1.065303040E1,-2.687669992E-1,1.078981959E1
2.050277206E1,-3.759009838E-1,8.022128105E0,-4.313617706E0,9.116092288E0
2.051957604E1,-2.081380844E0,3.322975159E0,-1.323884010E1,1.380728784E1
2.053638359E1,2.365071774E-1,1.397509575E0,-2.206839085E0,2.622805254E0
2.055319644E1,7.618980408E-1,-2.592158508E1,1.408227444E1,2.950965122E1
2.056998693E1,1.395906830E1,-8.393325806E1,3.228635025E1,9.100580096E1
2.058680802E1,1.307373428E1,-6.140795135E1,-2.469595909E1,6.746665408E1
2.060361742E1,2.215489626E0,-2.631180573E1,-1.814811325E1,3.204018616E1
2.062042079E1,-2.688905239E0,-1.068006992E1,7.823152542E-1,1.104111055E1
2.063721621E1,-4.781404972E0,-2.053422928E0,2.247250080E0,5.668201845E0
2.065403428E1,-5.119400978E0,3.442075729E0,-1.809261918E0,6.428808629E0
2.067085278E1,-4.349487305E0,7.615468979E0,-6.620541096E0,1.098840170E1
2.068764985E1,-3.102620363E0,1.116543198E1,-4.812892437E0,1.254818943E1
2.070444449E1,-1.343241930E0,1.300110435E1,3.012636662E0,1.341301580E1
2.072127246E1,-4.218634367E-1,1.283480644E1,-3.679771900E0,1.335855331E1
2.073805863E1,2.244060040E0,1.225665379E1,-5.051739693E0,1.344549893E1
2.075487656E1,7.027717590E0,1.098980618E1,-3.464367151E0,1.349690683E1
2.077169198E1,6.199100494E0,1.009714794E1,-2.694622517E0,1.215081207E1
2.078849725E1,9.996500015E-1,1.075111294E1,5.981305838E-1,1.081404132E1
2.080529503E1,-1.273059130E0,1.057302666E1,1.653673172E0,1.077702219E1
2.082210488E1,-2.368161440E0,1.025887680E1,2.591099739E0,1.084281051E1
2.083891614E1,-2.762151480E0,1.024409389E1,2.614284754E0,1.092727895E1
2.085571722E1,-2.798982382E0,1.030741692E1,1.658174992E0,1.080863961E1
2.087253222E1,-2.491643906E0,1.029874039E1,8.991837502E-1,1.063394914E1
2.088933398E1,-2.499574184E0,1.012280083E1,-8.975357413E-1,1.046539718E1
2.090614295E1,-1.808343172E0,9.665826797E0,-2.001869917E0,1.003522774E1
2.092293737E1,-1.316050172E0,8.562876701E0,-1.194447517E0,8.745373081E0
2.093975434E1,-3.696326733E0,7.790801048E0,-9.577166557E0,1.288726238E1
2.095656595E1,-4.379027843E0,5.402863026E0,-9.884557724E0,1.208599583E1
2.097337324E1,-7.453610420E0,-4.833207130E0,-7.857857227E0,1.186010622E1
2.099017975E1,-9.505685806E0,-3.087589645E1,1.561144733E1,3.588030563E1
2.100698927E1,-1.054459333E0,-8.437043762E1,2.766303825E1,8.879598141E1
2.102378947E1,9.878925323E0,-5.504766083E1,-5.609148979E0,5.620765678E1
2.104059116E1,4.095885277E0,-1.874844360E1,-2.844851494E0,1.940035035E1
2.105740808E1,-3.959255219E-1,-2.249810219E0,-2.103986263E0,3.105665989E0
2.107420404E1,-2.394144058E0,6.658944130E0,-5.649986744E0,9.055153941E0
2.109101984E1,-2.308774710E0,1.113900948E1,-8.461512566E0,1.417762913E1
2.110783089E1,2.799880505E-1,1.389905548E1,-1.210982990E1,1.843665145E1
2.112462930E1,5.368566513E0,1.435734463E1,-1.015377712E1,1.838624597E1
2.114144346E1,6.435664177E0,1.222083092E1,-2.654591560E0,1.406461297E1
2.115825016E1,3.435522556E0,9.933192253E0,1.046031713E-1,1.051104492E1
2.117505823E1,3.598520756E-1,9.092881203E0,2.348154306E0,9.398074842E0
2.119186852E1,-1.035684586E0,1.021329498E1,3.416261673E0,1.081919039E1
2.120867088E1,-1.747617483E0,1.055400467E1,3.609999895E0,1.129040658E1
2.122545769E1,-2.634454727E0,1.041183567E1,3.130011082E0,1.118676196E1
2.124228774E1,-3.158066511E0,1.024561501E1,2.142692566E0,1.093330427E1
2.125909460E1,-3.431140423E0,1.013235855E1,8.288309574E-1,1.072960275E1
2.127589745E1,-3.520697832E0,1.000694180E1,4.558306932E-2,1.060831161E1
2.129271226E1,-3.568761826E0,9.926620483E0,-2.727693319E-1,1.055216842E1
2.130951382E1,-3.593623400E0,9.821681023E0,-2.888423204E-2,1.045850762E1
2.132632446E1,-3.741194487E0,9.818563461E0,4.723159671E-1,1.051778527E1
2.134313082E1,-3.987809658E0,9.729126930E0,6.281203032E-1,1.053342640E1
2.135993470E1,-4.825565338E0,8.481657028E0,-2.453336477E0,1.006198025E1
2.137674670E1,-5.976517677E0,5.253502369E0,-1.014102364E1,1.289024480E1
2.139355158E1,-1.118468666E1,-6.943406105E0,-1.113322449E1,1.724113661E1
2.141035710E1,-1.225723267E1,-2.267494774E1,4.830341339E0,2.622451534E1
2.142716644E1,-4.792458534E0,-4.744223785E1,2.454975319E1,5.363230345E1
2.144396533E1,1.478944302E1,-4.702152252E1,1.359343624E1,5.113250154E1
2.146078142E1,3.847223282E1,-3.619011688E1,3.998572350E0,5.297004662E1
2.154061103E1,-7.616313934E0,2.075021267E0,-7.493934631E0,1.088453065E1
2.155741986E1,-5.136049271E0,8.237835884E0,-7.282891273E0,1.213595680E1
2.157422039E1,-2.911359072E0,1.122236633E1,-3.860062122E0,1.221955798E1
2.159102601E1,-1.653784037E0,1.176502228E1,-1.418793201E-1,1.188153528E1
2.160784440E1,-7.561825514E-1,1.248135567E1,1.366042137E0,1.257863754E1
2.162464685E1,-1.166990995E-1,1.288707352E1,2.227049828E0,1.307860977E1
2.164145866E1,-3.586280346E-2,1.211235809E1,7.868784666E-1,1.213794391E1
2.165826121E1,-1.355465651E-1,1.170712376E1,-7.737916708E-1,1.173345103E1
2.167506563E1,-2.205586433E-1,1.164323807E1,-1.105589032E0,1.169769062E1
2.169188365E1,-3.522377610E-1,1.146745682E1,-7.952326536E-1,1.150039270E1
2.170868497E1,-6.759381294E-1,1.109913158E1,-9.794902802E-2,1.112012627E1
2.172549196E1,-2.806948423E-1,1.085759068E1,9.798943996E-2,1.086166041E1
2.174229820E1,1.893768311E-1,9.831245422E0,-3.234412432E0,1.035136097E1
2.175911025E1,3.284636736E-1,9.190758705E0,-3.379921436E0,9.798050973E0
2.177591412E1,5.708650351E-1,8.775212288E0,-2.575540066E0,9.163167805E0
2.179271948E1,4.448853731E-1,9.082072258E0,-5.043010712E-1,9.106935767E0
2.180953082E1,-2.694696188E-1,1.107680511E1,1.915237427E0,1.124439237E1
2.182633094E1,3.845775127E-1,1.054301357E1,6.946524620E0,1.263159686E1
2.184314392E1,-7.063101530E-1,7.691298485E0,-3.070798159E0,8.311723512E0
2.185994880E1,-3.126690865E0,6.385411263E0,-5.405870438E0,8.931579252E0
2.187675907E1,-4.118304253E0,4.735286236E0,-6.086111546E0,8.742088961E0
2.189356441E1,-4.775133133E0,-2.389707375E1,1.009768200E1,2.637868859E1
2.191037267E1,1.869685364E1,-9.560686493E1,2.458487701E1,1.004721909E2
2.192717791E1,2.410108566E1,-6.152622986E1,-2.533088303E1,7.076717407E1
2.194398716E1,3.617982149E0,-1.900082779E1,-1.636452103E1,2.533611651E1
2.196079099E1,-3.106901407E0,-1.069058037E1,-3.296542168E-1,1.113777432E1
2.197760200E1,-5.829409122E0,-1.057408905E1,7.631618977E-1,1.209858612E1
2.199440661E1,-5.036847115E0,-6.094395638E0,-1.119875789E0,7.985337114E0
2.201120778E1,-3.113605261E0,1.436693668E0,-1.412212014E0,3.708499587E0
2.202802242E1,-1.074959397E0,8.336509705E0,-1.940424085E0,8.626597092E0
2.204482927E1,3.763482571E-1,1.161424255E1,-2.766731739E0,1.194516943E1
2.206163640E1,1.255204320E0,1.266050911E1,-3.230763912E0,1.312638047E1
2.207843236E1,4.852197170E0,1.531841564E1,-1.638931274E0,1.615189682E1
2.209525303E1,5.340465546E0,1.680953598E1,-3.257189989E0,1.793572855E1
2.211204595E1,3.070101738E0,1.466977501E1,-1.545631647E0,1.506707671E1
2.212886181E1,-3.018407822E-1,1.182090378E1,2.547202587E0,1.209599583E1
2.214567877E1,-2.099570513E0,1.048832893E1,4.253268719E0,1.151101798E1
2.216247956E1,-2.750440836E0,1.016577148E1,3.231678963E0,1.101596948E1
2.217928671E1,-3.422144175E0,1.021212482E1,1.931549191E0,1.094209516E1
2.219608985E1,-3.748601913E0,1.002101135E1,-7.661179304E-1,1.072658480E1
2.221290559E1,-3.736710548E0,9.372454643E0,-3.427919865E0,1.065629140E1
2.222970707E1,-2.872082233E0,8.674266815E0,-3.913650513E0,9.940242526E0
2.224651852E1,-1.658556461E0,9.293753624E0,-2.622773647E0,9.798143067E0
2.226332313E1,-1.155451059E0,9.896087646E0,-5.447435379E-2,9.963462516E0
2.228013065E1,-1.131960392E0,1.030619240E1,1.480445981E0,1.047333072E1
2.229693645E1,1.970591545E-1,1.047824574E1,-7.174655795E-1,1.050462864E1
2.231374764E1,3.416565657E0,1.194404793E1,-2.505102396E0,1.267315035E1
2.233055129E1,3.091813326E0,8.890638351E0,5.889045238E0,1.110331544E1
2.234736032E1,-6.478464603E-1,3.969611645E0,-3.800772667E0,5.533840846E0
2.236416436E1,-3.306914330E0,4.021099567E0,-5.527023315E0,7.592951392E0
2.238097678E1,-6.998557091E0,-3.367445374E1,5.966397285E0,3.490768586E1
2.239778134E1,-4.176092148E-2,-9.594464111E1,3.212471390E1,1.011799048E2
2.241458908E1,1.334182739E1,-7.284738922E1,-2.019454193E1,7.676305100E1
2.243139318E1,2.611942291E-1,-2.296552658E1,-1.199210739E1,2.590934722E1
2.244820522E1,-4.131896973E0,-4.282491684E0,-1.250998378E0,6.080896690E0
2.246502326E1,-4.124609947E0,2.746651173E0,-2.044052601E0,5.360471147E0
2.248181839E1,-2.203217506E0,6.424767494E0,-4.368932724E0,8.075851527E0
2.249861317E1,2.471911907E-1,9.545428276E0,-6.100728989E0,1.133116052E1
2.251543119E1,2.909663200E0,1.167624378E1,-4.329559803E0,1.278850644E1
2.253223815E1,5.069847107E0,1.333104706E1,-1.810055137E0,1.437694213E1
2.254905103E1,5.123189926E0,1.311781788E1,-1.757165790E-1,1.408385946E1
2.256583473E1,2.575973988E0,1.139223003E1,-5.437901020E0,1.288368405E1
2.258265821E1,-2.153555393E0,7.323105812E0,9.758979082E-2,7.633819708E0
2.259945596E1,-3.990617990E0,7.746622562E0,4.308877945E0,9.721194485E0
2.261626844E1,-4.280425549E0,9.350771904E0,4.222906590E0,1.111719021E1
2.263308494E1,-4.356231689E0,9.808143616E0,2.686051130E0,1.106306044E1
2.264988954E1,-4.399603844E0,9.689519882E0,1.013259292E-1,1.064206636E1
2.266669800E1,-4.344201088E0,9.994614601E0,-2.535599709E0,1.118899772E1
2.268350085E1,-4.720790863E0,1.077446938E1,-5.272899628E0,1.289102506E1
2.270031149E1,-4.292708874E0,1.078720570E1,-2.083920002E0,1.179550248E1
2.271711579E1,-2.981406450E0,9.201391220E0,9.640196562E-1,9.720273592E0
2.274438940E1,-6.752564907E-1,9.951350212E0,-1.266812682E0,1.005436009E1
2.281795947E1,-1.887265444E0,-1.399120331E0,-4.183896065E0,4.798363767E0
2.283476864E1,-1.751997948E0,-2.653536987E1,1.365582275E1,2.989442835E1
2.285157293E1,1.036880589E1,-7.078413391E1,1.926368904E1,7.408775516E1
2.286838221E1,1.996340561E1,-6.338626099E1,-8.785470009E0,6.703387299E1
2.288518997E1,5.750885487E0,-2.396165466E1,-1.444321251E1,2.856291242E1
2.290198981E1,-2.571961403E0,-8.688882828E0,-8.280399442E-1,9.099303292E0
2.291879997E1,-7.231789589E0,-4.146563530E0,1.761398315E-1,8.338093008E0
2.293561250E1,-9.290299416E0,-3.474206924E-1,-7.691616058E0,1.206612290E1
2.295241650E1,-8.356877327E0,3.789760590E0,-7.871491432E0,1.208966755E1
2.296922495E1,-6.464797020E0,7.710761547E0,-3.139695406E0,1.054073676E1
2.298603527E1,-4.177778244E0,9.600045204E0,2.486834526E0,1.076099647E1
2.300283791E1,-2.608855009E0,1.088734055E1,1.936301470E0,1.136175919E1
2.301963393E1,3.918324232E0,1.116199875E1,1.138689232E1,1.641964669E1
2.303645454E1,3.182888746E0,1.280555534E1,4.142953753E-1,1.320169190E1
2.305324396E1,5.574221611E0,1.323537827E1,-1.758672118E0,1.446859053E1
2.307006695E1,4.662226677E0,1.448363495E1,-3.627572060E0,1.564197296E1
2.308686116E1,1.899980307E-1,1.362306309E1,-2.628068924E0,1.387554299E1
2.310368238E1,-2.160121679E0,1.041350365E1,-3.134339452E-1,1.063980379E1
2.312049091E1,-2.861494064E0,9.348595619E0,1.346231699E0,9.868978069E0
2.313729260E1,-3.038286686E0,8.653815269E0,4.654530883E-1,9.183482525E0
2.315410439E1,-3.072205067E0,8.376802444E0,-1.029679894E0,8.981620335E0
2.316890490E1,-2.952196121E0,8.805886269E0,-1.623358011E0,9.428381947E0
2.318560581E1,-2.485826015E0,9.531989098E0,-7.495862246E-1,9.879272577E0
2.320242341E1,-1.970284224E0,9.640285492E0,-1.353563666E-1,9.840500274E0
2.321923504E1,-2.302130699E0,9.422835350E0,1.093188524E-1,9.700597013E0
2.323604118E1,-6.790657043E-1,9.108418465E0,-6.214828491E0,1.104755676E1
2.325284659E1,-8.504593372E-1,6.814074516E0,-6.666706085E0,9.570781714E0
2.326965383E1,-1.987413168E0,5.875496864E0,-3.322869539E-1,6.211416032E0
2.328646256E1,-5.480358124E0,-2.234075165E1,8.936611176E0,2.467805764E1
2.330326815E1,1.991523504E0,-9.098704529E1,3.226124573E1,9.655773688E1
2.332007566E1,1.383511734E1,-7.110334015E1,-1.940528154E-1,7.243709760E1
2.333688239E1,6.472375870E0,-2.735677719E1,-3.457774353E1,4.456349689E1
2.335369165E1,-2.161710262E-1,-1.204343605E1,-4.622831821E0,1.290200201E1
2.337049925E1,-3.110924244E0,-3.516180992E0,9.681901932E-1,4.793617702E0
2.338730404E1,-3.758183479E0,2.939715385E0,1.631391048E0,5.042549590E0
2.340411229E1,-2.949625015E0,8.235070229E0,6.253180504E-1,8.769703077E0
2.342092150E1,-7.367768288E-1,1.340977287E1,1.144511938E0,1.347867783E1
2.343771416E1,9.208295345E-1,1.771867561E1,-7.368753910E0,1.921192147E1
2.345453316E1,4.186733723E0,1.811572838E1,-1.043271446E1,2.132017554E1
2.347134195E1,3.426561356E0,1.533620834E1,-3.097218513E0,1.601665919E1
2.348814930E1,5.611593723E-1,1.130696774E1,-1.112234116E0,1.137538940E1
2.350494416E1,-1.069512367E0,1.027348042E1,2.824608326E0,1.070825237E1
2.352176358E1,-1.725824475E0,1.028971291E1,5.603655815E0,1.184304101E1
2.353857997E1,-2.157847881E0,1.020310020E1,2.745601654E0,1.078414993E1
2.355537790E1,-2.847158909E0,9.103855133E0,-4.547233582E0,1.056711055E1
2.357217496E1,-3.154655933E0,8.169568062E0,-4.446475506E0,9.821651633E0
2.358899085E1,-3.498566628E0,8.822564125E0,-2.636921406E0,9.850429467E0
2.360579971E1,-3.339112282E0,9.126505852E0,4.756324291E-1,9.729799900E0
2.362260573E1,-3.070738316E0,9.439597130E0,1.221691608E0,1.000139781E1
2.363941466E1,-2.299180746E0,9.294175148E0,-6.560635567E-2,9.574561503E0
2.365621855E1,-1.480461240E0,8.791142464E0,-9.772806764E-1,8.968334785E0
2.367302796E1,-3.209991455E-1,9.047832489E0,-1.236626029E0,9.137590335E0
2.368983547E1,4.084913731E-1,1.019947624E1,6.863451004E-1,1.023070136E1
2.370664095E1,2.200551271E0,5.331769943E0,-8.412296295E0,1.019984929E1
2.372344873E1,-1.031776428E0,3.271465778E0,-7.392405510E0,8.149522082E0
2.374025604E1,-1.936072588E0,3.489425182E0,1.173619628E-1,3.992272410E0
2.375705224E1,-5.247515202E0,-2.928828430E1,1.622747421E1,3.389204822E1
2.377387240E1,8.399637222E0,-8.235614014E1,2.050193214E1,8.528433001E1
2.379067943E1,1.114801979E1,-5.675156403E1,-2.007047272E1,6.121962300E1
2.380748539E1,2.064323902E0,-2.166749954E1,-8.381384850E0,2.332358424E1
2.382429157E1,-3.571717501E0,-8.808294296E0,1.668016911E-1,9.506368240E0
2.384108894E1,-6.584814072E0,-7.134098053E0,1.160691500E0,9.777644714E0
2.385789438E1,-7.143502235E0,-5.760960579E0,-5.006916523E-1,9.190700904E0
2.387473318E1,-4.521159649E0,-7.459945679E-1,-4.955478668E0,6.749382290E0
2.389152130E1,-2.549774647E-1,5.279445648E0,-6.899112701E0,8.691105564E0
2.390832874E1,2.881986856E0,1.007150269E1,-5.834850311E0,1.199110056E1
2.392513571E1,4.221961498E0,1.352264595E1,-4.890942097E0,1.498693521E1
2.394194242E1,6.454085350E0,1.461306000E1,-1.912168622E0,1.608891323E1
2.395874203E1,5.686800003E0,1.372095680E1,-1.148172259E0,1.489706848E1
2.397555862E1,1.737442732E0,1.217802906E1,1.236265421E0,1.236331069E1
2.399235227E1,-9.552829266E-1,1.086423492E1,3.217595577E0,1.137088771E1
2.400917202E1,-2.322757244E0,1.019775391E1,3.480883598E0,1.102297313E1
2.402597974E1,-3.442376614E0,9.733779907E0,3.408302546E0,1.087257809E1
2.404278558E1,-4.060822010E0,8.702382088E0,-6.630790234E-1,9.626079326E0
2.405958630E1,-4.346659660E0,8.245590210E0,-4.977816105E0,1.056701762E1
2.407640160E1,-3.885599613E0,8.600737572E0,-3.859925032E0,1.019654806E1
2.409320697E1,-3.063549757E0,8.887619972E0,-1.129314303E-1,9.401482829E0
2.411001442E1,-2.677393436E0,9.016987801E0,2.380088329E0,9.702542196E0
2.412682460E1,-2.074453831E0,9.968076706E0,1.956999063E0,1.036801607E1
2.414362596E1,-1.338462234E0,1.083348751E1,1.989871264E-1,1.091767048E1
2.416043865E1,-8.764606714E-1,1.117462730E1,8.786398172E-2,1.120929073E1
2.417724346E1,-3.223237991E-1,1.173764324E1,1.334997654E0,1.181771468E1
2.419405144E1,2.157328844E0,1.168248558E1,7.320633411E0,1.395443337E1
2.421085963E1,1.007999039E1,-1.086639404E0,-1.296924782E1,1.646172471E1
2.422766528E1,7.610831738E0,-1.603814125E1,-1.153292370E1,2.116967320E1
2.424447159E1,-4.381282330E-1,-4.402118301E1,2.076362610E1,4.867427122E1
2.426128057E1,5.230464935E-1,-6.973561096E1,-5.910747528E0,6.998761283E1
2.427808749E1,-1.393650770E0,-4.097760010E1,-1.689955330E1,4.434750133E1
2.429488696E1,-5.122888565E0,-2.116896057E1,4.853161335E0,2.231416711E1
2.431169854E1,-6.332691193E0,-1.269745922E1,6.120749950E0,1.545289709E1
2.432851076E1,-5.771799088E0,-7.726325035E0,3.968513012E-1,9.652318592E0
2.434531373E1,-4.629333019E0,-2.271368980E0,-4.975548744E0,7.165607201E0
2.436212506E1,-2.644303799E0,3.778916359E0,-8.959764481E0,1.007719857E1
2.437893284E1,-3.429690599E-1,7.826174736E0,-5.914220810E0,9.815530885E0
2.439573872E1,3.535369635E-1,1.068064117E1,-2.111683130E0,1.089313040E1
2.441254353E1,4.536412954E-1,1.300555801E1,5.575875044E-1,1.302540723E1
2.442935289E1,2.786895752E0,1.533251858E1,1.506743073E0,1.565641046E1
2.444616136E1,5.794436455E0,1.367398548E1,-4.102451801E0,1.540725425E1
2.446296595E1,3.598092079E0,1.189110756E1,-3.117855549E0,1.280881450E1
2.447977308E1,-3.269201517E-1,1.074783134E1,7.824736834E-1,1.078123464E1
2.449658080E1,-2.180866480E0,9.979704857E0,2.403686047E0,1.049420765E1
2.451337769E1,-2.944252014E0,9.604045868E0,2.784447670E0,1.042398512E1
2.453019582E1,-3.461694956E0,9.488731384E0,2.127466679E0,1.032208650E1
2.454698144E1,-3.959832430E0,9.303318024E0,-4.778510034E-1,1.012226954E1
2.456380908E1,-4.131684303E0,9.223190308E0,-2.964432716E0,1.053213729E1
2.458060532E1,-3.510664225E0,9.228459358E0,-1.972745895E0,1.006881084E1
2.459742347E1,-3.289735794E0,9.105981827E0,-4.910675585E-1,9.694452742E0
2.461423038E1,-3.408085585E0,8.999968529E0,-1.323118806E-1,9.624551278E0
2.463103831E1,-3.134002924E0,9.200149536E0,-6.133518815E-1,9.738630620E0
2.464784760E1,-2.996029854E0,9.558247566E0,3.266218305E-1,1.002212419E1
2.466465461E1,-2.607238770E0,1.001903629E1,3.199676752E0,1.083589930E1
2.475078861E1,3.554442978E1,-8.126235962E1,-4.327438831E0,8.880148820E1
2.476759455E1,1.883152962E1,-3.123118210E1,-1.034955025E1,3.790945045E1
2.478440601E1,1.589258194E0,-1.829649734E1,-3.352752686E0,1.866891821E1
2.480120989E1,-5.177613735E0,-1.575953102E1,2.027051687E0,1.671165583E1
2.481802235E1,-8.419843674E0,-1.246293545E1,1.862591028E0,1.515545357E1
2.483482478E1,-8.159217834E0,-6.562785149E0,-7.828928232E-1,1.050028122E1
2.485162944E1,-5.712189674E0,1.546478271E-1,-4.154167175E0,7.064710309E0
2.486844176E1,-2.684440613E0,6.403135300E0,-5.138470650E0,8.637722135E0
2.488524927E1,3.901441097E-1,1.072172070E1,-4.705688477E0,1.171541767E1
2.490205463E1,3.543599844E0,1.201148510E1,-2.829220533E0,1.283890038E1
2.491886133E1,4.757282734E0,1.239355469E1,-6.181156039E-1,1.328962015E1
2.493566801E1,4.544659138E0,1.341738510E1,4.523857594E0,1.487095952E1
2.495247596E1,4.747316837E0,1.543383408E1,3.209536076E-1,1.615064279E1
2.496927048E1,2.845884323E0,1.264439678E1,-5.452038765E0,1.406074515E1
2.498609253E1,-4.930189848E-1,1.100391579E1,-2.516931534E0,1.129885723E1
2.500289494E1,-1.515652418E0,1.024765491E1,-3.934735060E-1,1.036660286E1
2.501758007E1,-2.030334234E0,1.001862049E1,-5.999314785E-1,1.023986970E1
2.506801519E1,-2.320462465E0,9.153420448E0,-1.536735296E0,9.567194329E0
2.508483381E1,-2.224721432E0,9.031455040E0,-8.585613966E-1,9.340968540E0
2.510164458E1,-2.211581469E0,9.073904037E0,4.010585546E-1,9.348137517E0
2.511844947E1,-2.146950006E0,9.645040512E0,1.498861074E0,9.994137548E0
2.513525724E1,-2.034510612E0,1.069129753E1,3.021500587E0,1.129480155E1
2.515206084E1,-1.340097070E0,1.044727707E1,5.188085556E0,1.174128145E1
2.516887925E1,5.567097664E-2,7.229304790E0,-2.128561974E0,7.536360069E0
2.518567442E1,5.442776680E-1,3.197280884E0,-9.718151093E0,1.024506241E1
2.520248706E1,-1.684773326E0,-1.314847660E1,-2.434804916E0,1.347772878E1
2.521929249E1,8.025771141E0,-7.229061127E1,1.171960449E1,7.367288924E1
2.523610076E1,1.237316608E1,-6.647563934E1,-1.818828583E-1,6.761759347E1
2.525291821E1,6.251872063E0,-2.935623169E1,-1.060053349E1,3.183151824E1
2.526971548E1,2.600635767E0,-1.807153893E1,-4.840778351E0,1.888854046E1
2.528652082E1,5.429556370E-1,-1.350898647E1,-4.787684441E0,1.434257434E1
2.530332720E1,-1.572415709E0,-7.267214775E0,-5.566132545E0,9.287988655E0
2.532013465E1,-2.570818901E0,1.749897003E-1,-5.018395424E0,5.641278565E0
2.533695298E1,-2.873020172E0,7.149342537E0,-4.322928905E0,8.834877359E0
2.535374871E1,-2.537896633E0,1.087374401E1,-2.623080969E0,1.146995126E1
2.537055772E1,-2.363636017E0,1.127103233E1,-5.091162920E-1,1.152745178E1
2.538736552E1,-1.905979633E0,1.160872269E1,5.806180239E-1,1.177846841E1
2.540417078E1,-1.645890951E0,1.182133484E1,1.402103066E0,1.201743764E1
2.542097932E1,-1.148166895E0,1.223996067E1,2.353593826E0,1.251696163E1
2.543778504E1,-9.483207464E-1,1.254108238E1,2.011504650E0,1.273672684E1
2.545458953E1,-7.499122620E-1,1.297471237E1,1.598118663E0,1.309425495E1
2.547140141E1,-3.984667063E-1,1.372973728E1,1.076497793E0,1.377763801E1
2.548820820E1,-6.695514917E-1,1.388147736E1,-2.437027693E-1,1.389975193E1
2.550501389E1,-1.342254162E0,1.312686253E1,-1.070142746E0,1.323863178E1
2.552182449E1,-2.509088039E0,1.176399708E1,-1.291908503E0,1.209777573E1
2.553862997E1,-3.326364517E0,1.062735176E1,-1.024302959E0,1.118277707E1
2.555542415E1,-3.771930456E0,9.929242134E0,-2.666525841E-1,1.062489587E1
2.557224304E1,-3.813227892E0,9.621253014E0,6.087139845E-1,1.036724405E1
2.558905159E1,-3.606685162E0,9.284303665E0,5.727481842E-1,9.976698496E0
2.560585873E1,-3.532779694E0,9.269233704E0,-3.990029693E-1,9.927659804E0
2.562266645E1,-2.867121220E0,1.066256237E1,1.805422068E0,1.118794750E1
2.563947027E1,-2.528518200E0,8.508226395E0,2.015463114E-1,8.878284834E0
2.565628178E1,1.777558327E-1,3.046870232E0,-8.646942139E0,9.169766829E0
2.567308658E1,9.265871048E-1,2.223730087E-1,-5.902133465E0,5.978561102E0
2.568988727E1,3.872677326E0,-5.082863808E0,1.458117008E0,6.554329819E0
2.570670122E1,1.501056194E1,-6.262374115E1,1.776084900E1,6.680192873E1
2.572350910E1,2.994021606E1,-9.007912445E1,-5.327609062E0,9.507391134E1
2.574031650E1,9.366277695E0,-3.868343353E1,-1.980139160E1,4.445481186E1
2.575712321E1,-1.643571854E0,-1.265348244E1,-1.589702606E0,1.285842528E1
2.577393302E1,-5.243239880E0,-3.603919983E0,5.525263786E0,8.426644859E0
2.579073856E1,-6.601684570E0,-3.277978897E-1,6.781432152E0,9.469821152E0
2.580754621E1,-6.785361767E0,1.924764156E0,4.436634541E0,8.332441264E0
2.582435141E1,-5.439001083E0,4.850731373E0,2.692257166E-1,7.292791655E0
2.584116075E1,-3.931623459E0,8.754157066E0,-4.859938145E0,1.075694788E1
2.585796646E1,-2.836919308E0,1.173920822E1,-9.876580238E0,1.560140885E1
2.587477520E1,-1.634511828E0,1.213518906E1,-6.205350876E0,1.372737491E1
2.589158220E1,3.625655174E-2,1.225305748E1,-2.677705288E0,1.254228200E1
2.590838923E1,1.034667253E0,1.100694180E1,1.378470659E-1,1.105632425E1
2.592519605E1,7.450723648E-1,9.596953392E0,-9.198069572E-2,9.626271744E0
2.594200117E1,-1.439482450E0,9.874564171E0,8.186514378E-1,1.001245811E1
2.595880889E1,-2.467457533E0,1.026911354E1,1.278617740E0,1.063851037E1
2.597560807E1,-2.869977474E0,1.031999874E1,8.002846241E-1,1.074148966E1
2.599242362E1,-3.010909557E0,1.071034718E1,-1.217177868E0,1.119190042E1
2.600921907E1,-2.148831606E0,1.101089096E1,-3.666293621E0,1.180249575E1
2.602603926E1,-8.167827129E-1,1.024491596E1,-3.913951397E0,1.099747483E1
2.604284394E1,1.252121925E-1,9.723551750E0,-2.366767406E0,1.000823285E1
2.605965222E1,1.415446758E0,9.273338318E0,-1.116547465E0,9.446955664E0
2.614578676E1,-4.585172653E0,3.984127045E0,-8.094672203E0,1.012031594E1
2.616259563E1,-2.455238819E0,3.348024845E0,-5.473533869E-1,4.187727755E0
2.617940588E1,-1.081479311E0,-1.866024399E1,1.038620281E1,2.138334661E1
2.619621087E1,1.705894279E1,-6.911444092E1,1.651471519E1,7.307906192E1
2.621301932E1,1.453837395E1,-5.491463470E1,-1.727951431E1,5.937645187E1
2.622982454E1,-2.866147995E0,-2.189660072E1,-1.169176006E1,2.498746047E1
2.624663233E1,-7.691451073E0,-1.331896210E1,1.425171375E0,1.544617378E1
2.626343767E1,-7.650567055E0,-1.324259949E1,1.485387564E0,1.536567583E1
2.628024617E1,-4.327494144E0,-1.329351234E1,-1.323362350E0,1.404264804E1
2.629705425E1,1.981997490E-2,-9.267434120E0,-4.991926193E0,1.052639801E1
2.631386056E1,2.839078188E0,-3.320478439E0,-5.447043419E0,6.982565720E0
2.633066759E1,2.743479252E0,3.346592426E0,-4.516329765E0,6.254885596E0
2.634747714E1,2.246036768E0,8.932607651E0,-5.080380917E0,1.051886072E1
2.636428073E1,1.775434971E0,1.138180065E1,-1.980180621E0,1.168839898E1
2.638109090E1,6.579847336E-1,1.168635273E1,7.133176327E-1,1.172657691E1
2.639789564E1,-1.291937828E-1,1.191939831E1,2.230688095E0,1.212702422E1
2.641470472E1,9.360537529E-1,1.415206718E1,2.243552208E0,1.435934291E1
2.643151265E1,2.188032627E0,1.544439316E1,-2.666878462E0,1.582494889E1
2.644831845E1,1.564205647E0,1.272472286E1,-3.924344063E0,1.340767644E1
2.646512169E1,-8.044862747E-2,1.090603065E1,-1.801608801E0,1.105412913E1
2.648193457E1,-1.693053246E0,1.027719212E1,-1.262752175E0,1.049198028E1
2.650729422E1,-2.814596415E0,9.507485390E0,-9.870315790E-1,9.964359626E0
2.652395109E1,-2.878141165E0,9.192152977E0,-1.147753000E0,9.700345863E0
2.654075996E1,-2.525809765E0,8.784845352E0,-1.001833081E0,9.195482171E0
2.655756698E1,-1.539950967E0,8.533754349E0,-1.432981253E0,8.789189242E0
2.657437264E1,-2.772467136E-1,8.451096535E0,-1.704594851E0,8.625748778E0
2.659117712E1,3.570036888E-1,8.916590691E0,-7.588062286E-1,8.955938146E0
2.660799266E1,-2.185726166E-2,1.039591312E1,1.751338124E0,1.054242252E1
2.662479137E1,-1.078424692E0,1.098462200E1,3.362958431E0,1.153838852E1
2.664159655E1,-4.414281845E-1,6.607644081E0,9.448655844E-1,6.689438700E0
2.665840869E1,-2.902681828E0,2.376609325E0,-1.517020512E1,1.562718647E1
2.667521632E1,-3.919945478E0,-3.893715858E0,-2.617047310E0,6.113585884E0
2.669202202E1,1.617218018E0,-4.897123718E1,1.050189972E1,5.011075097E1
2.670881881E1,2.505672836E1,-8.945929718E1,6.706933975E0,9.314391258E1
2.672563797E1,1.169752789E1,-3.569223022E1,-1.496350861E1,4.043110247E1
2.674245418E1,-1.576137781E0,-1.460174370E1,-3.501797915E0,1.509826871E1
2.675925537E1,-7.188747883E0,-1.071399975E1,1.975272655E0,1.305257020E1
2.677604750E1,-7.625660896E0,-9.657102585E0,2.043237448E0,1.247337780E1
2.679286834E1,-6.935325146E0,-6.082547188E0,1.173266292E0,9.299068177E0
2.680967545E1,-6.174685478E0,-1.595478058E-1,-4.655820131E-1,6.194268550E0
2.682647736E1,-4.396298409E0,6.378735542E0,-5.664692879E0,9.597106451E0
2.684329128E1,-2.074853420E0,1.072744942E1,-6.224385738E0,1.257482268E1
2.686009457E1,-8.509314060E-1,1.260906124E1,-4.791848183E0,1.351570637E1
2.687691722E1,7.121379375E-1,1.328522778E1,-3.556880236E0,1.377155817E1
2.689370906E1,4.370371819E0,1.432685184E1,-3.451543808E0,1.537114141E1
2.691052168E1,4.326702118E0,1.419548321E1,-2.621045589E0,1.506990294E1
2.692732330E1,2.866060734E-1,1.095423985E1,8.255487680E-1,1.098904201E1
2.694413456E1,-1.951415896E0,9.269288063E0,3.121884346E0,9.973659663E0
2.696093977E1,-2.911835670E0,9.295068741E0,3.392116785E0,1.031423997E1
2.697774604E1,-3.604004145E0,9.497412682E0,3.027017832E0,1.059964766E1
2.699455660E1,-3.799247265E0,9.742238998E0,1.542022586E0,1.056992593E1
2.701136177E1,-3.353385925E0,1.018700790E1,-1.230879068E0,1.079515588E1
2.702816932E1,-2.696557999E0,1.022034454E1,-2.685505867E0,1.090590709E1
2.704496747E1,-2.503271341E0,9.895455360E0,-2.144861221E0,1.043009271E1
2.706178464E1,-2.482932091E0,9.388570786E0,-1.350702286E0,9.804825844E0
2.707859025E1,-2.343772650E0,9.339522362E0,-4.508970976E-1,9.639670968E0
2.709539626E1,-1.623400569E0,9.800712585E0,6.526801586E-1,9.955671147E0
2.711220385E1,-4.600784779E-1,1.151416016E1,-5.325345993E-1,1.153564690E1
2.712902425E1,2.379364491E0,8.364357948E0,-1.767079735E1,1.969469315E1
2.714581676E1,2.149908543E0,2.335749626E0,-1.164705563E1,1.207194010E1
2.716261248E1,7.547886372E-1,-2.716226578E-1,-1.659595490E0,1.843296488E0
2.723825633E1,-5.876433849E0,-1.907969856E1,3.530836105E-2,1.996418340E1
2.725506515E1,-8.399560928E0,-9.872733116E0,1.104609108E1,1.703054935E1
2.727187196E1,-8.238511086E0,-7.935186386E0,6.159527779E0,1.299153687E1
2.728868010E1,-6.599434853E0,-7.742647171E0,-3.997380733E0,1.093069889E1
2.730548607E1,-3.558540821E0,-3.467323303E0,-9.169419289E0,1.042898815E1
2.732229440E1,-1.148360968E0,2.695078850E0,-8.140224457E0,8.651325744E0
2.733910184E1,8.769648075E-1,7.668773651E0,-4.603137970E0,8.987103858E0
2.735591650E1,2.162731886E0,1.030748272E1,-1.480572939E0,1.063549272E1
2.737271485E1,3.387272358E0,1.198876190E1,-1.616692543E-2,1.245810127E1
2.738952436E1,6.846710205E0,1.515289879E1,2.454561710E0,1.680811279E1
2.740632894E1,8.865316391E0,1.521650600E1,-5.285837173E0,1.838684215E1
2.742313670E1,4.025285244E0,1.247271538E1,-5.940289021E0,1.438953036E1
2.743994489E1,-1.245597839E0,1.088818264E1,-2.377615690E0,1.121414694E1
2.745675530E1,-2.463588715E0,9.841891289E0,4.662406445E-2,1.014565263E1
2.747355932E1,-3.086627483E0,9.426863670E0,1.242039680E0,9.996784005E0
2.749036573E1,-3.818034649E0,9.084257126E0,1.235071182E0,9.931088406E0
2.750716087E1,-4.014599323E0,8.865653992E0,3.622219563E-1,9.738995491E0
2.752398152E1,-4.036495209E0,8.507037163E0,-1.367261767E0,9.514850477E0
2.754078824E1,-4.024901390E0,8.257242203E0,-1.640223742E0,9.331249322E0
2.755759358E1,-3.700883389E0,8.596639633E0,-1.324628234E0,9.452692251E0
2.757231485E1,-3.323453903E0,9.287805557E0,-1.203141689E0,9.937616809E0
2.758911001E1,-3.145933390E0,9.591564178E0,-1.608998775E0,1.022173553E1
2.760590303E1,-2.941650867E0,9.877336502E0,-9.162497520E-1,1.034671928E1
2.762272253E1,-2.526281357E0,1.027195740E1,1.060665846E0,1.063109676E1
2.763953345E1,-2.442595720E0,9.602483749E0,-8.520975113E-1,9.944849832E0
2.765633990E1,-2.999916553E0,7.551463127E0,-3.025534868E0,8.670522241E0
2.767314494E1,-4.513381004E0,1.967529297E0,-1.145858765E0,5.055172790E0
2.768995457E1,-2.721954346E0,-5.241707230E1,6.908241272E0,5.294036552E1
2.770676093E1,2.928075218E1,-9.858406830E1,1.462672043E1,1.038755117E2
2.772356992E1,2.196347237E1,-4.758153534E1,6.085695744E0,5.275824406E1
2.774037421E1,-6.243138313E-1,-1.384058094E1,-3.693280792E1,3.944595986E1
2.775717796E1,-4.541406631E0,-1.405139256E1,-8.423327446E0,1.700054270E1
2.777398848E1,-3.548481464E0,-9.977640152E0,1.330393791E0,1.067309568E1
2.779079729E1,-3.585056782E0,-1.894515991E0,1.513196230E0,4.328000208E0
2.780760317E1,-3.134681702E0,5.424162388E0,-6.125761271E-1,6.294681604E0
2.782441159E1,-1.777191162E0,1.054683685E1,-2.747703552E0,1.104282803E1
2.784121781E1,-2.373256683E-1,1.184473038E1,-1.422938704E0,1.193225527E1
2.785802608E1,2.696278095E-1,1.226213646E1,-3.661906719E-1,1.227056581E1
2.787483206E1,1.842624307E0,1.295754623E1,-6.529915333E-1,1.310418508E1
2.789162803E1,5.146059990E0,1.581796551E1,2.268248796E0,1.678793968E1
2.790844764E1,5.558449745E0,1.604389572E1,-1.684906125E0,1.706287966E1
2.792525381E1,2.053974152E0,1.342638016E1,-5.969190121E0,1.483636494E1
2.794206112E1,-8.774457574E-1,1.171052551E1,-5.571010113E0,1.299778722E1
2.795885905E1,-2.113108635E0,1.046859741E1,-2.594331264E0,1.099032823E1
2.797567756E1,-2.715154886E0,9.978624344E0,1.683588028E-1,1.034279240E1
2.799248043E1,-3.117662191E0,9.716560364E0,2.286179066E0,1.045743647E1
2.800928634E1,-3.487344027E0,9.787190437E0,3.238850594E0,1.088305188E1
2.802610252E1,-3.747754574E0,9.951294899E0,3.073519230E0,1.106889583E1
2.804289362E1,-3.659746647E0,1.015416622E1,1.859031439E0,1.095248077E1
2.805971223E1,-3.340887547E0,9.932731628E0,-9.360349774E-1,1.052125699E1
2.807652022E1,-2.701013565E0,8.839435577E0,-4.146623135E0,1.013042837E1
2.809332629E1,-1.974404812E0,8.041440964E0,-4.701840401E0,9.522097998E0
2.811013310E1,-4.546205997E-1,7.440087318E0,-9.268243790E0,1.189377661E1
2.812694199E1,6.566374302E-1,4.406364441E0,-1.118589592E1,1.204041062E1
2.814374802E1,-1.101038694E0,2.538617134E0,9.228963852E-1,2.916950616E0
2.816056049E1,-3.011218548E0,-8.862946510E0,8.076905251E0,1.236348076E1
2.817736363E1,-6.252913475E-1,-3.896231842E1,1.930762863E1,4.348836361E1
2.819416938E1,2.501997375E1,-6.714425659E1,-5.661699295E0,7.187770947E1
2.821097849E1,2.179392433E1,-4.107811737E1,-1.934565353E1,5.036507893E1
2.822778527E1,2.316272736E0,-1.924857330E1,-7.938342094E-1,1.940368177E1
2.824459427E1,-6.879978657E0,-1.248105145E1,4.115865707E0,1.483411952E1
2.826138889E1,-8.934181213E0,-1.219271851E1,1.381889105E0,1.517865594E1
2.827820704E1,-7.577445030E0,-1.317824841E1,-6.407296181E0,1.649658597E1
2.829501460E1,-3.516288757E0,-9.095967293E0,-9.706434250E0,1.375920686E1
2.831182194E1,3.373837471E-2,-1.316730499E0,-5.697317600E0,5.847593122E0
2.832862898E1,2.047987938E0,6.202544212E0,-1.621538401E0,6.730170584E0
2.834543634E1,1.648126125E0,1.064008141E1,9.681229591E-1,1.081040768E1
2.836224214E1,2.758502960E-1,1.161896896E1,1.385881662E0,1.170458035E1
2.837904775E1,8.935985565E-1,1.268726254E1,2.103929758E0,1.289153480E1
2.839585926E1,5.014786243E0,1.640154076E1,-4.160152435E0,1.764838487E1
2.841266583E1,4.583688736E0,1.694955063E1,-8.345995903E0,1.944101635E1
2.842947423E1,1.810208559E-1,1.294606400E1,-3.915011883E0,1.352629512E1
2.844627213E1,-2.407076120E0,1.064589500E1,-1.916350126E-1,1.091630981E1
2.846308704E1,-3.249783039E0,9.587400436E0,9.516102076E-1,1.016783649E1
2.847988204E1,-3.679183006E0,9.197612762E0,-4.896626472E-1,9.918277957E0
2.849669981E1,-3.954908371E0,9.206101418E0,-1.413823366E0,1.011891793E1
2.851350821E1,-4.033356667E0,9.286861420E0,-1.294115424E0,1.020727661E1
2.853031511E1,-3.959635496E0,9.375161171E0,-9.888085723E-1,1.022497446E1
2.854712289E1,-3.211288214E0,9.188242912E0,-7.486720085E-1,9.762002335E0
2.856393045E1,-2.494766474E0,9.552878380E0,-1.121182442E0,9.936719537E0
2.858073850E1,-1.763416290E0,9.889965057E0,-2.062494278E0,1.025548285E1
2.859754367E1,3.360986710E-2,1.052882576E1,-1.644454718E0,1.065652536E1
2.861435240E1,2.463551760E0,1.159073067E1,-1.759928226E0,1.197962737E1
2.863115738E1,1.877456427E0,1.198696041E1,-1.115632892E0,1.218428083E1
2.864796468E1,3.130360126E0,2.825079918E0,1.309772968E0,4.415397637E0
2.866477387E1,3.151798010E0,1.362629890E0,-6.883732319E0,7.692617341E0
2.868157972E1,-6.188359261E-1,-8.973843575E0,-2.244367361E0,9.270922891E0
2.869838666E1,-1.325729609E0,-5.364765930E1,1.124673462E1,5.482990012E1
2.871519550E1,5.318135738E0,-7.915902710E1,2.122147942E1,8.212664201E1
2.873200121E1,4.336822033E-1,-4.131704712E1,-8.436496258E-1,4.132793495E1
2.874880950E1,-1.114125252E0,-1.959682465E1,-2.004303169E1,2.805351904E1
2.876560523E1,-4.172152042E0,-1.683791351E1,-1.970354080E1,2.625169907E1
2.878242801E1,-1.989244103E0,-1.835652161E1,-3.410470724E0,1.877632254E1
2.879923138E1,-2.378643513E0,-1.131677628E1,6.718175411E-1,1.158355339E1
2.881603909E1,-1.223302364E0,-1.674008369E0,1.106134176E0,2.349958619E0
2.883284845E1,-5.836296082E-2,6.596175671E0,1.276004553E0,6.718714708E0
2.884965315E1,8.804070950E-1,1.113853836E1,2.583397627E-1,1.117626471E1
2.886646076E1,2.220702410E0,1.334169579E1,-3.214905262E-1,1.352906951E1
2.888326613E1,4.892083645E0,1.581845284E1,-1.372418404E0,1.661443543E1
2.890006216E1,7.542210579E0,1.922766495E1,1.683171630E0,2.072247829E1
2.891688528E1,4.515551567E0,1.745028687E1,1.207205296E0,1.806543834E1
2.893368677E1,6.643679142E-1,1.395458889E1,-1.619153261E0,1.406391102E1
2.895049658E1,-1.733244658E0,1.178185940E1,-1.770366192E0,1.203954087E1
2.896729048E1,-2.841775894E0,1.095315456E1,-1.102969885E0,1.136942513E1
2.898411141E1,-3.562326908E0,1.059781551E1,2.607666254E-1,1.118355337E1
2.900092271E1,-4.101308346E0,1.029114914E1,1.083252430E0,1.113112378E1
2.901772685E1,-4.487097740E0,1.032999516E1,6.105727553E-1,1.127899132E1
2.903453110E1,-4.645064831E0,1.033463001E1,-1.199253559E0,1.139383227E1
2.905133910E1,-4.703561783E0,1.003178215E1,-2.681894302E0,1.139967998E1
2.906815130E1,-4.702679157E0,9.537643433E0,-2.753438950E-1,1.063755836E1
2.915428100E1,-3.380088329E0,8.000288010E-1,-2.245134544E1,2.271844967E1
2.917109180E1,-5.509736538E0,5.602890968E0,1.949930668E0,8.096407446E0
2.918789807E1,-3.946580887E0,3.820001602E0,9.408715248E0,1.089457826E1
2.920470340E1,1.157410812E1,-4.408618164E1,2.065927887E1,5.004355297E1
2.922151096E1,4.719718933E1,-9.915685272E1,3.228842926E1,1.144648365E2
