"Time (s)","Linear Acceleration x (m/s^2)","Linear Acceleration y (m/s^2)","Linear Acceleration z (m/s^2)","Absolute acceleration (m/s^2)"
6.766083301E-3,-3.236856325E-1,-1.833160579E-2,-5.214178544E-1,6.139910548E-1
1.671208331E-2,-1.517314455E-1,-2.997808993E-2,-6.597238004E-1,6.776109579E-1
2.665808331E-2,8.921681643E-3,-1.431398392E-2,-7.708653367E-1,7.710498387E-1
3.660408332E-2,2.055422017E-1,-7.397312522E-3,-8.327721477E-1,8.577947114E-1
4.655008332E-2,3.098131134E-1,-2.412736595E-2,-8.738067377E-1,9.274181957E-1
5.649608333E-2,3.020390940E-1,-5.252904654E-2,-8.900228208E-1,9.413434743E-1
6.644208333E-2,2.560802713E-1,3.107561231E-2,-8.396145594E-1,8.783481129E-1
7.638808328E-2,2.875350755E-1,1.081366521E-1,-9.079743576E-1,9.585339792E-1
8.633408329E-2,2.375561459E-1,9.372121900E-2,-1.070816390E0,1.100847097E0
9.628008329E-2,1.573153903E-1,8.219109446E-2,-1.039809775E0,1.054849693E0
1.062260833E-1,2.263131197E-1,-3.769553751E-3,-8.650821072E-1,8.942029355E-1
1.161720833E-1,2.199810237E-1,-8.991029620E-2,-6.895001614E-1,7.293051383E-1
1.261180833E-1,1.662519823E-1,-1.967533980E-1,-6.291574806E-1,6.798461272E-1
1.360640833E-1,8.685527220E-2,-3.369390777E-1,-6.007838666E-1,6.942715858E-1
1.460100833E-1,7.296301872E-3,-4.860341598E-1,-6.025555730E-1,7.741806372E-1
1.559560833E-1,-3.583787709E-2,-5.727319957E-1,-7.263253409E-1,9.256645144E-1
1.659020833E-1,-7.584715784E-3,-4.986506970E-1,-9.810236228E-1,1.100507789E0
1.758480833E-1,2.003777947E-1,-2.934129891E-1,-1.501372021E0,1.542841661E0
1.857940833E-1,3.460968406E-1,-2.235003166E-1,-2.163944585E0,2.202814469E0
1.957400833E-1,2.366654688E-1,-2.930777974E-1,-2.798952790E0,2.824188708E0
2.056860833E-1,5.091082960E-2,-4.111487228E-1,-3.397325850E0,3.422492968E0
2.156320833E-1,-3.066923082E-1,-5.118273975E-1,-3.727952566E0,3.775401672E0
2.255780833E-1,-2.790987128E-1,-1.110166397E0,-3.644542619E0,3.820085918E0
2.355240833E-1,-2.690333158E-2,-1.818662993E0,-3.366205214E0,3.826172554E0
2.454700833E-1,-1.896532702E-1,-2.257651771E0,-2.922702093E0,3.697992348E0
2.554160833E-1,-2.953835008E-1,-2.826759516E0,-2.305496905E0,3.659663476E0
2.653620833E-1,7.422154418E-1,-4.175512485E0,-2.491432516E0,4.918640489E0
2.753080833E-1,1.394119468E0,-5.242878433E0,-2.310330799E0,5.896522005E0
2.852548333E-1,1.115502274E0,-6.174473203E0,-2.285473115E0,6.677713083E0
2.952008333E-1,-1.542469177E0,-6.046436137E0,-2.605430417E0,6.762164504E0
3.051468333E-1,-3.541279621E0,-6.874275573E0,-3.796161506E0,8.614358258E0
3.150928333E-1,-4.371221132E0,-7.992597082E0,-5.030689409E0,1.040658533E1
3.250388333E-1,-5.238183119E0,-8.471619115E0,-6.309829813E0,1.179071012E1
3.349848333E-1,-5.985767182E0,-9.449435540E0,-8.281351887E0,1.391768766E1
3.449308333E-1,-6.274824872E0,-1.077541507E1,-9.637151628E0,1.575936828E1
3.548768333E-1,-4.975754818E0,-1.080097675E1,-9.766256980E0,1.538827509E1
3.648228333E-1,-3.388997076E0,-1.042154859E1,-8.976265985E0,1.416570956E1
3.747688333E-1,-1.435844030E0,-9.921415186E0,-7.616267944E0,1.258982386E1
3.847148333E-1,9.282981098E-1,-8.886824051E0,-6.410727028E0,1.099703597E1
3.946608333E-1,2.737716070E0,-8.180557584E0,-5.922932417E0,1.046411678E1
4.046068333E-1,3.284585100E0,-7.869752344E0,-4.961507492E0,9.866005160E0
4.145528333E-1,2.939594114E0,-7.166915853E0,-3.283865892E0,8.413659822E0
4.244988333E-1,2.673192045E0,-6.506534826E0,-1.721365909E0,7.241826547E0
4.344448333E-1,2.326498350E0,-5.785908181E0,-3.535946156E-1,6.246147389E0
4.443908333E-1,2.985711104E0,-4.112649947E0,9.716294861E-1,5.174207595E0
4.543368333E-1,3.415416550E0,-1.840731554E0,1.934129130E0,4.335229908E0
4.642828333E-1,3.367955285E0,5.145243526E-1,2.396036362E0,4.165194877E0
4.742288333E-1,4.245838702E0,3.475890208E0,3.143445008E0,6.323780953E0
4.841748333E-1,4.728279017E0,6.484165717E0,4.675261143E0,9.287577416E0
4.941208333E-1,5.405132235E0,1.066057224E1,6.772295455E0,1.373780334E1
5.040668333E-1,6.626289310E0,1.369015383E1,7.604175317E0,1.700445543E1
5.140128333E-1,7.255306458E0,1.583160301E1,8.015846196E0,1.917114801E1
5.239588333E-1,8.129955195E0,1.831303270E1,8.855500517E0,2.190623718E1
5.339048333E-1,9.289212475E0,1.930486431E1,9.192912927E0,2.331259107E1
5.438508333E-1,9.407184729E0,1.668031350E1,9.221083642E0,2.125456108E1
5.537968333E-1,1.076260265E1,1.498608861E1,9.709377020E0,2.084918391E1
5.637428333E-1,1.673380734E1,1.383843922E1,1.007574777E1,2.393832495E1
5.736888333E-1,2.506024009E1,1.250052612E1,1.145277524E1,3.025631913E1
5.836348333E-1,3.496236648E1,1.212925599E1,1.430306600E1,3.967447060E1
5.935808333E-1,4.351303761E1,1.187826543E1,1.687586427E1,4.815882501E1
6.035268333E-1,4.649699806E1,9.562982036E0,1.892703712E1,5.110434608E1
6.134728333E-1,4.635043409E1,6.220631708E0,2.032780779E1,5.099292862E1
6.234188333E-1,4.964926476E1,2.532172406E0,1.937528701E1,5.335600374E1
6.333648333E-1,5.465123031E1,-8.067099380E-1,1.704392144E1,5.725297383E1
6.433108333E-1,5.573575783E1,-4.433725528E0,1.359513541E1,5.754094481E1
6.532568333E-1,5.220073707E1,-7.693661106E0,9.769517972E0,5.366146526E1
6.632028333E-1,4.571843428E1,-1.028830458E1,7.989940107E0,4.753802254E1
6.731488333E-1,3.896342670E1,-1.227523173E1,7.825291286E0,4.159405147E1
6.830948333E-1,3.289405661E1,-1.440953912E1,7.652025422E0,3.671794209E1
6.930408333E-1,2.652923374E1,-1.634151413E1,6.427148933E0,3.181436107E1
7.029868333E-1,1.913332455E1,-1.829842167E1,5.090072562E0,2.695969552E1
7.129328333E-1,1.202831200E1,-2.076844929E1,4.160869887E0,2.435819397E1
7.228788333E-1,7.568873338E0,-2.266247938E1,2.658604996E0,2.404046580E1
7.328248333E-1,4.831449044E0,-2.421487538E1,-1.516921522E0,2.473871743E1
7.427708333E-1,1.526993936E0,-2.640020908E1,-6.611288279E0,2.725824430E1
7.527168333E-1,-1.619579333E0,-2.799208313E1,-9.956792010E0,2.975428477E1
7.626628333E-1,-4.310156904E0,-2.915492125E1,-1.056833241E1,3.130936818E1
7.726088333E-1,-6.646185046E0,-2.962191497E1,-9.252007227E0,3.173687540E1
7.825548333E-1,-1.007357377E1,-2.960530186E1,-7.518765038E0,3.216337381E1
7.925008333E-1,-1.406734836E1,-2.971333034E1,-6.800465001E0,3.357109790E1
8.024468333E-1,-1.762560362E1,-2.969296332E1,-6.401647471E0,3.511858574E1
8.123928333E-1,-2.047224805E1,-2.959716956E1,-6.358420760E0,3.654497094E1
8.223388333E-1,-2.165277283E1,-2.902809748E1,-6.220980787E0,3.674470868E1
8.322848333E-1,-2.166786332E1,-2.872010358E1,-5.781545573E0,3.643853619E1
8.422308333E-1,-2.140779788E1,-2.922498492E1,-5.795958375E0,3.668769123E1
8.521768333E-1,-2.287369017E1,-2.954059891E1,-6.109956779E0,3.785742012E1
8.621228333E-1,-2.523799778E1,-2.922467853E1,-6.712252151E0,3.919301846E1
8.720688333E-1,-2.684225858E1,-2.844138786E1,-7.238599209E0,3.977205938E1
8.820148333E-1,-2.702816028E1,-2.721724520E1,-6.899851879E0,3.897316821E1
8.919608333E-1,-2.515819498E1,-2.555217102E1,-5.645962091E0,3.630048356E1
9.019068333E-1,-2.149282341E1,-2.372170484E1,-3.925358659E0,3.225010355E1
9.118528333E-1,-1.764516022E1,-2.209352425E1,-2.591176659E0,2.839347970E1
9.217988333E-1,-1.405951192E1,-2.071067880E1,-1.784773700E0,2.509556751E1
9.317448333E-1,-1.082139055E1,-1.943243652E1,-1.463972645E0,2.229047551E1
9.416908333E-1,-8.543020635E0,-1.834144783E1,-1.480719656E0,2.028754398E1
9.516368333E-1,-7.289730186E0,-1.734856956E1,-1.505290825E0,1.887800128E1
9.615828333E-1,-6.760638446E0,-1.664441510E1,-1.497107062E0,1.802731583E1
9.715288333E-1,-6.369587188E0,-1.606124422E1,-1.398415418E0,1.733466967E1
9.814758333E-1,-5.921317416E0,-1.530796848E1,-1.183929023E0,1.645592862E1
9.914208333E-1,-5.569361812E0,-1.455700823E1,-9.733532453E-1,1.561639191E1
1.001366833E0,-5.329767473E0,-1.395201086E1,-5.963025606E-1,1.494726079E1
1.011312833E0,-5.189978088E0,-1.340617094E1,-2.236676931E-2,1.437573623E1
1.021259833E0,-5.157040722E0,-1.272352138E1,3.620245099E-1,1.373368585E1
1.031205833E0,-5.243048587E0,-1.205257443E1,3.885439718E-1,1.314933745E1
1.041151833E0,-5.649158179E0,-1.154289253E1,3.843586810E-1,1.285686928E1
1.051097833E0,-6.316418456E0,-1.079166097E1,8.420447353E-1,1.253260260E1
1.061043833E0,-6.469861674E0,-9.744607079E0,1.459778730E0,1.178759650E1
1.070989833E0,-5.791520923E0,-8.750886812E0,1.794794805E0,1.064617410E1
1.080935833E0,-4.677050976E0,-7.767985064E0,1.927517391E0,9.269936411E0
1.090881833E0,-2.933659775E0,-6.736033362E0,1.777709240E0,7.559150433E0
1.100827833E0,-9.348581010E-1,-5.689292883E0,1.721106000E0,6.016994186E0
1.110773833E0,-2.370852989E-1,-4.180386724E0,1.878404141E0,4.589144225E0
1.120719833E0,-5.888514537E-1,-3.333794974E0,1.570825249E0,3.732080777E0
1.130665833E0,-9.911685419E-1,-3.834373060E0,1.091020274E0,4.107938300E0
1.140611833E0,5.319481051E-1,-4.350162092E0,-9.558896586E-2,4.383607677E0
1.150557833E0,6.239991254E0,-4.515599119E0,-1.663281423E0,7.880014679E0
1.160503833E0,1.609912716E1,-4.578717473E0,-8.598726766E-1,1.675965185E1
1.170449833E0,3.368750507E1,-7.485201436E0,4.549602724E0,3.480768770E1
1.180395833E0,5.875480157E1,-9.635772269E0,1.226649950E1,6.079014579E1
1.190341833E0,8.363732841E1,-7.522698460E0,1.749500840E1,8.577802174E1
1.200287833E0,1.073082233E2,-1.038626766E1,1.623365405E1,1.090250470E2
1.210233833E0,1.198219197E2,-1.600107988E1,1.111629020E1,1.213956296E2
1.220179833E0,1.058442582E2,-1.243864035E1,5.622133518E0,1.067208281E2
1.230125833E0,8.081855882E1,-1.481393255E1,4.317558895E0,8.227838940E1
1.240071833E0,5.278883599E1,-2.000622263E1,3.345949874E0,5.655179510E1
1.250017833E0,3.435776204E1,-1.982096646E1,3.587615882E0,3.982709520E1
1.259963833E0,2.773076171E1,-1.716077570E1,2.688014152E0,3.272174793E1
1.269909833E0,2.396754985E1,-1.515215772E1,1.247565586E0,2.838287775E1
1.279855833E0,1.787812030E1,-1.472913974E1,-1.248484622E0,2.319770370E1
1.289801333E0,7.826120421E0,-1.593811238E1,-4.329806473E0,1.827618153E1
1.299747333E0,-1.138794950E0,-1.646381800E1,-6.607698088E0,1.777683412E1
1.309693333E0,-1.859388850E0,-1.366889570E1,-7.225476303E0,1.557252530E1
1.319639333E0,-4.266522642E0,-1.280764059E1,-8.648752912E0,1.603246082E1
1.329585333E0,-7.649143329E0,-1.288351757E1,-7.597407165E0,1.679925636E1
1.339531333E0,-1.209424052E1,-1.395605246E1,-4.458475038E0,1.899789603E1
1.349477333E0,-1.716585576E1,-1.433425738E1,-1.486870780E0,2.241312837E1
1.359423333E0,-1.941802548E1,-1.337682494E1,-8.647366098E-1,2.359548534E1
1.369369333E0,-2.162109027E1,-1.232072891E1,-1.114196810E0,2.491010518E1
1.379315333E0,-2.236788262E1,-1.150967566E1,-1.106831145E0,2.517975143E1
1.389261333E0,-2.240823777E1,-1.028354378E1,-1.187346135E0,2.468380407E1
1.399207333E0,-2.179010287E1,-1.035475234E1,-1.393607837E0,2.416550479E1
1.409153333E0,-2.107688056E1,-1.069948663E1,-4.018136064E-1,2.364054488E1
1.419099333E0,-1.969052678E1,-1.062617307E1,1.299781076E0,2.241253733E1
1.429045333E0,-1.727165645E1,-1.012105901E1,2.969881521E0,2.023774069E1
1.438991333E0,-1.514094744E1,-9.670615243E0,3.917891765E0,1.838801143E1
1.448937333E0,-1.424427107E1,-9.471118770E0,4.528170340E0,1.769479234E1
1.458883333E0,-1.406709810E1,-9.507750991E0,4.677250950E0,1.761128202E1
1.468829333E0,-1.433721607E1,-9.376580987E0,4.343846222E0,1.767328594E1
1.478775333E0,-1.475773145E1,-9.619858487E0,3.640775843E0,1.798853979E1
1.488721333E0,-1.572730973E1,-9.736236205E0,3.089350662E0,1.875331049E1
1.498667333E0,-1.664663471E1,-9.654768119E0,2.486361226E0,1.940378795E1
1.508613333E0,-1.742138493E1,-9.920281996E0,2.123692353E0,2.016002771E1
1.518559333E0,-1.748133644E1,-1.008734981E1,2.137036868E0,2.029577977E1
1.528505333E0,-1.701912690E1,-9.907722176E0,2.173905902E0,1.981260978E1
1.538451333E0,-1.627870100E1,-9.635164744E0,1.864155500E0,1.900809253E1
1.548397333E0,-1.488958383E1,-9.452548013E0,1.258134867E0,1.768143868E1
1.558343333E0,-1.337252606E1,-8.933418174E0,8.098241651E-1,1.610236718E1
1.568289333E0,-1.187597800E1,-8.489620938E0,2.933969092E-1,1.460132182E1
1.578235333E0,-1.061593343E1,-8.049540192E0,-2.000860186E-1,1.332415754E1
1.588181333E0,-9.700133157E0,-7.501854891E0,-6.069865930E-1,1.227757479E1
1.598127333E0,-9.404042435E0,-7.252258304E0,-8.667209356E-1,1.190724443E1
1.608073333E0,-1.007193772E1,-7.296790699E0,-9.157907693E-1,1.247099662E1
1.618019333E0,-1.136834144E1,-7.411798414E0,-9.544059277E-1,1.360458870E1
1.627965333E0,-1.272274955E1,-7.640912204E0,-9.992460318E-1,1.487448782E1
1.637911333E0,-1.417016463E1,-7.674339566E0,-1.265044083E0,1.616444834E1
1.647857333E0,-1.550404550E1,-7.348319871E0,-1.474888666E0,1.722058444E1
1.657803333E0,-1.620404258E1,-7.473018762E0,-1.823430812E0,1.793716548E1
1.667749333E0,-1.726079817E1,-7.557294681E0,-2.663910760E0,1.903008873E1
1.677695333E0,-1.865603738E1,-7.674196894E0,-3.023396409E0,2.039808703E1
1.687641333E0,-1.943284349E1,-8.018489138E0,-3.141938181E0,2.125566630E1
1.697587333E0,-1.974323592E1,-8.352870351E0,-3.254478956E0,2.168311419E1
1.707533333E0,-1.983749069E1,-8.888153708E0,-2.987706174E0,2.194200769E1
1.717479333E0,-2.083832819E1,-9.655564510E0,-2.352077579E0,2.308675198E1
1.727425333E0,-2.124144459E1,-1.076199571E1,-1.291481830E0,2.384716850E1
1.737371333E0,-1.941939139E1,-1.228957027E1,1.020145881E0,2.300406479E1
1.747317333E0,-1.736266836E1,-1.349635723E1,3.791634299E0,2.231569855E1
1.757263333E0,-1.424300691E1,-1.288956242E1,4.145076266E0,1.965160865E1
1.767209333E0,-7.139611695E0,-1.272967382E1,3.559635201E0,1.502297086E1
1.777155333E0,3.184543918E0,-1.055360094E1,2.628913712E0,1.133274018E1
1.787101333E0,1.597297699E1,-5.347314382E0,1.516639102E0,1.691242027E1
1.797047333E0,3.294290893E1,-2.665093651E0,1.960043989E0,3.310860531E1
1.806993333E0,5.173633249E1,-7.049089780E0,8.223714713E0,5.285799136E1
1.816939333E0,7.205718444E1,-1.986127483E1,2.117088741E1,7.768471240E1
1.826885333E0,8.955354120E1,-3.162976229E1,3.229333941E1,1.003151951E2
1.836831333E0,1.046042836E2,-3.826151758E1,3.327698141E1,1.162469672E2
1.846777333E0,1.086827867E2,-3.447815387E1,2.960515451E1,1.178013429E2
1.856723333E0,9.886425447E1,-3.093040957E1,2.060102011E1,1.056183368E2
1.866669333E0,7.239157033E1,-3.647294786E1,1.030749748E1,8.171327851E1
1.876615333E0,4.716664458E1,-3.829979579E1,3.547614495E0,6.086174732E1
1.886561333E0,3.655643909E1,-3.100262034E1,-9.509947351E-1,4.794204937E1
1.896507333E0,3.203434985E1,-2.379050551E1,-1.654339861E0,3.993650665E1
1.906453333E0,2.470608359E1,-2.051624718E1,-1.389930523E0,3.214403322E1
1.916400333E0,1.573735525E1,-1.942002873E1,-3.043284543E0,2.518061650E1
1.926346333E0,8.419326296E0,-1.799627382E1,-6.131513125E0,2.079294063E1
1.936292333E0,2.415038643E0,-1.674622799E1,-7.012738810E0,1.831521415E1
1.946238333E0,-4.777024915E0,-1.646010034E1,-6.865454464E0,1.846318865E1
1.956184333E0,-1.189253731E1,-1.675016317E1,-5.369629696E0,2.123283620E1
1.966130333E0,-1.513774668E1,-1.555143601E1,-1.662108471E0,2.176605479E1
1.976076333E0,-1.529267684E1,-1.358143422E1,1.618629014E0,2.051685356E1
1.986022333E0,-1.539131703E1,-1.146596422E1,1.581206980E0,1.925775664E1
1.995968333E0,-1.681791018E1,-9.749351510E0,-7.753415264E-1,1.945489944E1
2.005914333E0,-1.870032653E1,-9.244378365E0,-2.735577158E0,2.103910944E1
2.015860333E0,-1.881450979E1,-9.855802410E0,-2.923432410E0,2.143989452E1
2.025806333E0,-1.771754524E1,-1.062298868E1,-1.792133444E0,2.073574305E1
2.035752333E0,-1.690913025E1,-1.166265754E1,-1.601740648E0,2.060344242E1
2.045698333E0,-1.682939762E1,-1.305773185E1,-2.194765844E0,2.141378020E1
2.055644333E0,-1.750762552E1,-1.466140091E1,-2.351328697E0,2.295653229E1
2.065590333E0,-1.837157970E1,-1.548350657E1,-1.874465457E0,2.409911901E1
2.075536333E0,-1.830721589E1,-1.563580081E1,-1.171444706E0,2.410403915E1
2.085482333E0,-1.769614911E1,-1.565050539E1,-6.413793308E-1,2.363267610E1
2.095428333E0,-1.700638933E1,-1.518045123E1,-3.641664181E-1,2.279903495E1
2.105374333E0,-1.609384596E1,-1.477237288E1,-5.822318939E-1,2.185346362E1
2.115320333E0,-1.524827659E1,-1.445064621E1,-1.004668740E0,2.103189184E1
2.125266333E0,-1.470222033E1,-1.406716359E1,-1.691557973E0,2.041817187E1
2.135212333E0,-1.460479753E1,-1.368068251E1,-2.242304292E0,2.013676025E1
2.145158333E0,-1.459209270E1,-1.361394707E1,-2.525028278E0,2.011577719E1
2.155104333E0,-1.525806366E1,-1.364357959E1,-2.760355319E0,2.065370021E1
2.165050333E0,-1.587865205E1,-1.287998819E1,-3.366605748E0,2.072099710E1
2.174996333E0,-1.562382454E1,-1.262431167E1,-4.028929220E0,2.048681062E1
2.184942333E0,-1.497440003E1,-1.243021803E1,-4.467435311E0,1.996749746E1
2.194888333E0,-1.401991458E1,-1.190940653E1,-4.604039717E0,1.896283603E1
2.204834333E0,-1.263313629E1,-1.145396105E1,-4.658387248E0,1.767738465E1
2.214780333E0,-1.123599907E1,-1.116563485E1,-4.448054715E0,1.645309295E1
2.224726333E0,-1.033028057E1,-1.103934669E1,-3.998493294E0,1.563872823E1
2.234672333E0,-1.011096788E1,-1.087470546E1,-3.501163629E0,1.525611475E1
2.244618333E0,-1.059262760E1,-1.079895362E1,-2.912233822E0,1.540461828E1
2.254564333E0,-1.139825931E1,-1.107062461E1,-2.697417644E0,1.611691988E1
2.264510333E0,-1.197415742E1,-1.172418895E1,-2.834192789E0,1.699616726E1
2.274456333E0,-1.292178175E1,-1.223642376E1,-2.741875194E0,1.800612089E1
2.284402333E0,-1.393298285E1,-1.239214096E1,-2.545359632E0,1.881945866E1
2.294347708E0,-1.505092254E1,-1.252464939E1,-2.433823408E0,1.973120898E1
2.304293708E0,-1.598914922E1,-1.234111698E1,-2.346330351E0,2.033374848E1
2.314239708E0,-1.644741539E1,-1.213681995E1,-2.524791466E0,2.059598125E1
2.324185708E0,-1.659970028E1,-1.206171129E1,-3.091569096E0,2.075072837E1
2.334131708E0,-1.575629321E1,-1.220559724E1,-3.301405785E0,2.020239243E1
2.344077708E0,-1.498611785E1,-1.208019668E1,-2.875913842E0,1.946241918E1
2.354023708E0,-1.491070514E1,-1.190075966E1,-2.408638281E0,1.922911196E1
2.363969708E0,-1.468929564E1,-1.214982182E1,-2.025234597E0,1.917016306E1
2.373915708E0,-1.368217355E1,-1.243494258E1,-1.566031702E0,1.855484102E1
2.383861708E0,-1.176639650E1,-1.205204234E1,-9.684743285E-1,1.687121079E1
2.393807708E0,-7.824200780E0,-1.187366718E1,7.198729384E-1,1.423798817E1
2.403753708E0,1.432854348E-1,-8.620993255E0,4.159777628E0,9.573181568E0
2.413699708E0,1.122770421E1,-8.247975688E-1,8.117670195E0,1.387941650E1
2.423645708E0,2.108326104E1,5.503987017E0,1.031371892E1,2.410747948E1
2.433591708E0,2.994229561E1,6.808530650E0,8.852374011E0,3.195718514E1
2.443537708E0,4.089704478E1,6.822594373E0,4.275334396E0,4.168206509E1
2.453483708E0,5.983115703E1,6.083684655E0,4.490804293E0,6.030709655E1
2.463429708E0,8.718845942E1,9.075154681E0,1.867657748E1,8.962700728E1
2.473375708E0,1.114344022E2,1.051773295E1,3.547260387E1,1.174161587E2
2.483321708E0,1.176302710E2,7.791085659E0,3.628071012E1,1.233445240E2
2.493267708E0,1.007577045E2,4.088488959E0,2.133733659E1,1.030733365E2
2.503213708E0,7.309445243E1,-4.821595754E-1,3.869090903E0,7.319836964E1
2.513159708E0,4.773735622E1,-1.121784595E0,-1.139679049E1,4.909175504E1
2.523105708E0,2.583174511E1,-2.997934123E0,-2.100844708E1,3.343084673E1
2.533051708E0,1.298767402E1,-2.447593894E0,-2.274025203E1,2.630189071E1
2.542997708E0,1.198915319E1,1.636028135E0,-2.011348161E1,2.347271874E1
2.552943708E0,1.060661764E1,7.560797748E-1,-1.228140171E1,1.624514766E1
2.562889708E0,7.826708066E0,-1.794462244E-1,-4.013584957E0,8.797637427E0
2.572835708E0,2.550643761E0,-2.941510831E0,1.568117550E0,4.197292248E0
2.582781708E0,-6.521515977E0,-8.169077160E0,6.314861927E0,1.221234922E1
2.592727708E0,-1.420243541E1,-9.929173272E0,7.451327931E0,1.886319012E1
2.602673708E0,-1.862326959E1,-1.134846325E1,4.767337248E0,2.232355914E1
2.612619708E0,-2.051306162E1,-1.276170721E1,2.433292335E0,2.428101685E1
2.622565708E0,-2.110994773E1,-1.371270070E1,2.060582185E-1,2.517360748E1
2.632511708E0,-2.035230529E1,-1.472123313E1,-1.067195063E0,2.514100119E1
2.642457708E0,-1.917640332E1,-1.554217987E1,-8.157776539E-1,2.469735396E1
2.652403708E0,-1.830738429E1,-1.594194231E1,-1.063531052E-1,2.427585539E1
2.662349708E0,-1.765406786E1,-1.636579411E1,-1.382270086E-1,2.407331377E1
2.672295708E0,-1.797626465E1,-1.658474778E1,-1.194042513E0,2.448725561E1
2.682241708E0,-1.939095287E1,-1.627331805E1,-2.456632227E0,2.543354037E1
2.692187708E0,-2.040361344E1,-1.551742744E1,-3.667504635E0,2.589495290E1
2.702133708E0,-2.083664419E1,-1.454050739E1,-4.551170948E0,2.581288929E1
2.712079708E0,-2.063335522E1,-1.364489288E1,-5.011709931E0,2.523956588E1
2.722025708E0,-1.982171491E1,-1.291243088E1,-4.997507629E0,2.417863387E1
2.731971708E0,-1.843719247E1,-1.181778534E1,-4.240995453E0,2.230641520E1
2.741917708E0,-1.664656103E1,-1.090629446E1,-3.202196662E0,2.015711578E1
2.751863708E0,-1.516481694E1,-1.045423920E1,-2.404132417E0,1.857532350E1
2.761809708E0,-1.403088162E1,-9.918652961E0,-1.669337384E0,1.726360341E1
2.771755708E0,-1.297914411E1,-9.598774597E0,-9.163604343E-1,1.616893231E1
2.781701708E0,-1.182259642E1,-9.372196160E0,-3.994390887E-1,1.509209723E1
2.791647708E0,-1.065580442E1,-8.921938335E0,-3.912371993E-2,1.389779415E1
2.801593708E0,-9.712801149E0,-8.498339721E0,1.804321929E-1,1.290708487E1
2.811539708E0,-9.019621920E0,-8.267573508E0,1.950736392E-1,1.223700964E1
2.821485708E0,-8.968864580E0,-8.133222034E0,1.644237041E-1,1.210854523E1
2.831431708E0,-9.522933871E0,-8.018393828E0,1.195229352E-1,1.244970662E1
2.841377708E0,-1.020088871E1,-7.819130659E0,-9.186085425E-2,1.285322423E1
2.851323708E0,-1.082427440E1,-7.829601853E0,-6.702125359E-1,1.337597721E1
2.861269708E0,-1.137671583E1,-7.902701989E0,-1.640706493E0,1.394898848E1
2.871215708E0,-1.231212883E1,-8.217437142E0,-2.403381050E0,1.499636722E1
2.881161708E0,-1.371144238E1,-8.617907095E0,-2.826603688E0,1.643963695E1
2.891107708E0,-1.481741749E1,-8.930093447E0,-3.028853030E0,1.756349569E1
2.901053708E0,-1.534879140E1,-9.205565132E0,-2.831799524E0,1.812034534E1
2.910999708E0,-1.562229257E1,-8.968907264E0,-2.264890916E0,1.815563421E1
2.920945708E0,-1.517767497E1,-8.912646525E0,-1.724610529E0,1.768534328E1
2.930891708E0,-1.441789596E1,-9.099258074E0,-1.030328588E0,1.708021658E1
2.940837708E0,-1.346431682E1,-9.012327518E0,-2.116878446E-1,1.620353932E1
2.950783708E0,-1.242913278E1,-8.926092782E0,2.906335882E-1,1.530499729E1
2.960729708E0,-1.056409435E1,-8.889191004E0,6.423623939E-1,1.382137604E1
2.970675708E0,-5.869128678E0,-8.465904631E0,8.942860989E-1,1.034011413E1
2.980621708E0,1.391899281E0,-5.461820991E0,7.658461598E-1,5.688180068E0
2.990567708E0,1.036092700E1,-2.647287418E-1,-5.835426935E-1,1.038072308E1
3.000513708E0,1.924315982E1,2.149783506E0,-1.660159010E0,1.943391100E1
3.010459708E0,2.814466973E1,1.813263966E0,1.081648357E0,2.822375460E1
3.020405708E0,3.927673455E1,1.632241186E0,8.961138069E0,4.031907841E1
3.030351708E0,5.955976670E1,2.681175833E0,1.759904673E1,6.216334096E1
3.040297708E0,8.396895441E1,5.984466761E0,2.167868301E1,8.692850191E1
3.050243708E0,9.862341468E1,1.007756742E1,2.063291317E1,1.012613075E2
3.060189708E0,1.027730386E2,8.997491963E0,1.595168962E1,1.043920913E2
3.070135708E0,9.501340922E1,6.527885349E0,7.366079620E0,9.552183179E1
3.080081708E0,7.559343545E1,3.174178266E0,1.525695269E0,7.567542955E1
3.090027708E0,5.294936779E1,-7.652506940E-2,1.259279167E0,5.296439548E1
3.099973708E0,3.510794578E1,-2.139881685E0,2.499093538E0,3.526176993E1
3.109919708E0,2.292184783E1,-3.723225384E0,3.367089313E0,2.346509761E1
3.119865708E0,1.335286305E1,-4.808617421E0,2.610434464E0,1.443038881E1
3.129811708E0,6.188978975E0,-5.693835000E0,-1.775333078E-1,8.411583432E0
3.139757708E0,5.816359895E-1,-6.414344700E0,-4.101248168E0,7.635597874E0
3.149704708E0,-4.057516842E0,-7.449710006E0,-7.058518415E0,1.103559261E1
3.159650708E0,-7.725828393E0,-8.593711317E0,-7.524105300E0,1.378957792E1
3.169596708E0,-1.027309948E1,-9.709735454E0,-6.267927496E0,1.546293797E1
3.179542708E0,-1.237354096E1,-1.144738761E1,-4.411150598E0,1.742427757E1
3.189488708E0,-1.506809230E1,-1.212286381E1,-1.846768804E0,1.942734639E1
3.199434708E0,-1.675093734E1,-1.168636332E1,-3.530597050E-1,2.042766850E1
3.209380708E0,-1.724410554E1,-1.195491541E1,1.990553007E-2,2.098284000E1
3.219326708E0,-1.724945224E1,-1.211325918E1,-1.671615167E-1,2.107848650E1
3.229272708E0,-1.744787399E1,-1.240806293E1,-7.402805981E-1,2.142279972E1
3.239218708E0,-1.773548450E1,-1.262608221E1,-1.361625906E0,2.181328465E1
3.249164708E0,-1.787279817E1,-1.246419035E1,-2.069153618E0,2.188776718E1
3.259110708E0,-1.787060897E1,-1.249194006E1,-2.796441411E0,2.198243199E1
3.269056708E0,-1.811935420E1,-1.250065709E1,-3.408914446E0,2.227550498E1
3.279002708E0,-1.872428725E1,-1.255899476E1,-3.654421490E0,2.284036075E1
3.288948875E0,-1.916202034E1,-1.257142478E1,-3.709496414E0,2.321603127E1
3.298894875E0,-1.936575137E1,-1.235075787E1,-3.565594098E0,2.324407467E1
3.308840875E0,-1.921043997E1,-1.203701265E1,-3.389354925E0,2.292200698E1
3.318786875E0,-1.831467576E1,-1.167124826E1,-3.273201156E0,2.196267812E1
3.328732875E0,-1.701901698E1,-1.145031473E1,-3.027296501E0,2.073454051E1
3.338678875E0,-1.601870573E1,-1.127988710E1,-2.245828993E0,1.972000340E1
3.348624875E0,-1.526182927E1,-1.155904253E1,-9.951013061E-1,1.917094477E1
3.358570875E0,-1.488215786E1,-1.219102013E1,4.220404045E-1,1.924260150E1
3.368516875E0,-1.432991641E1,-1.275747850E1,1.474685329E0,1.924251696E1
3.378462875E0,-1.361043991E1,-1.335315775E1,2.165544530E0,1.918959300E1
3.388408875E0,-1.286350957E1,-1.390191660E1,2.805803972E0,1.914695013E1
3.398354875E0,-1.197807272E1,-1.455656384E1,3.248702492E0,1.912908374E1
3.408300875E0,-1.114843117E1,-1.448912908E1,3.248707169E0,1.856815762E1
3.418246875E0,-1.040379878E1,-1.447738553E1,2.986948375E0,1.807638187E1
3.428192875E0,-1.044229919E1,-1.476250512E1,2.408187461E0,1.824205407E1
3.438138875E0,-1.109894852E1,-1.507940082E1,2.047573592E0,1.883527396E1
3.448084875E0,-1.154948702E1,-1.572574736E1,2.460720016E0,1.966583137E1
3.458030875E0,-1.196324886E1,-1.652537047E1,2.641835474E0,2.057149696E1
3.467976875E0,-1.237207331E1,-1.730771740E1,2.586107708E0,2.143159427E1
3.477922875E0,-1.237005836E1,-1.782119298E1,2.829178802E0,2.187732881E1
3.487868875E0,-1.174865137E1,-1.790460702E1,3.229433577E0,2.165721595E1
3.497814875E0,-1.078226566E1,-1.717581006E1,3.144754200E0,2.052206576E1
3.507760875E0,-9.470613570E0,-1.607219839E1,2.996147214E0,1.889404617E1
3.517706875E0,-7.832525461E0,-1.499432149E1,3.007017480E0,1.718197562E1
3.527652875E0,-5.686386232E0,-1.444748521E1,2.764452171E0,1.577044746E1
3.537598875E0,-1.296481492E0,-1.325733124E1,2.397150257E0,1.353454932E1
3.547544875E0,5.637740321E0,-1.039631084E1,2.442461208E0,1.207613397E1
3.557490875E0,1.250836138E1,-7.730125512E0,3.403946944E0,1.509307125E1
3.567436875E0,1.612823109E1,-5.997896646E0,5.206916302E0,1.797794704E1
3.577382875E0,1.581147690E1,-5.924663193E0,5.576673170E0,1.778211796E1
3.587328875E0,1.304259575E1,-7.382453578E0,1.402775686E0,1.505249828E1
3.597274875E0,9.413759338E0,-8.937394280E0,-5.521841490E0,1.410626155E1
3.607220875E0,6.974854699E0,-8.910484809E0,-1.169219884E1,1.627122771E1
3.617166875E0,1.144078377E1,-7.788670174E0,-1.469842431E1,2.018907114E1
3.627112875E0,2.516443981E1,-5.418938096E0,-1.390309072E1,2.925593705E1
3.637058875E0,4.182496984E1,-2.966218241E0,-1.196095909E1,4.360265009E1
3.647004875E0,5.075597428E1,-2.221729986E0,-8.051366277E0,5.143859940E1
3.656950875E0,4.849347137E1,-1.104443873E0,-3.335369630E0,4.862058466E1
3.666896875E0,4.235094794E1,6.237660554E-1,7.202772734E-1,4.236166515E1
3.676842875E0,4.411654043E1,4.869517926E0,2.684116398E0,4.446555774E1
3.686788875E0,5.151099483E1,9.097496892E0,1.034255212E0,5.231841667E1
3.696734875E0,5.805895952E1,1.416397009E1,1.362459719E-1,5.976185566E1
3.706680875E0,5.926470685E1,1.775072117E1,-6.710336019E0,6.222878907E1
3.716626875E0,5.408501869E1,1.789649459E1,-1.292556022E1,5.841698274E1
3.726572875E0,4.278007743E1,1.507013415E1,-1.423498569E1,4.753818240E1
3.736518875E0,3.008360644E1,1.072895309E1,-1.433581742E1,3.500927694E1
3.746464875E0,2.597950191E1,8.953720291E0,-1.104987752E1,2.961762009E1
3.756410875E0,2.214844364E1,7.091501974E0,-3.187248255E0,2.347342129E1
3.766356875E0,1.832785188E1,5.351845390E0,1.569255856E0,1.915763471E1
3.776302875E0,1.264320169E1,4.130843850E0,4.341219653E0,1.399144767E1
3.786248875E0,8.438033878E0,1.293972452E0,3.035439334E0,9.060279928E0
3.796194875E0,5.142449580E0,-2.649663215E-1,1.064487948E0,5.258148860E0
3.806140875E0,1.342766297E0,-2.346837305E0,-1.112956542E0,2.923925260E0
3.816086875E0,-2.780163347E0,-4.403198385E0,-3.759116471E0,6.422493355E0
3.826032875E0,-6.175559031E0,-5.939190016E0,-6.592058541E0,1.081049227E1
3.835978875E0,-8.519333564E0,-7.432253144E0,-8.576853794E0,1.419083691E1
3.845924875E0,-1.051206817E1,-8.912394510E0,-9.272471312E0,1.661063145E1
3.855870875E0,-1.297291916E1,-1.047839054E1,-8.202889270E0,1.858442069E1
3.865816875E0,-1.620627271E1,-1.184911589E1,-5.040966475E0,2.069918272E1
3.875762875E0,-1.839734955E1,-1.317577193E1,-2.496980939E0,2.276616679E1
3.885708875E0,-1.915973525E1,-1.430828990E1,-3.514726245E-1,2.391539562E1
3.895654875E0,-1.803996773E1,-1.491965840E1,2.270216560E0,2.352000267E1
3.905600875E0,-1.555688211E1,-1.539786357E1,5.064175243E0,2.246679003E1
3.915546875E0,-1.325989700E1,-1.585460011E1,7.273006564E0,2.191095246E1
3.925492875E0,-1.200024068E1,-1.607015538E1,8.588613714E0,2.181788156E1
3.935438875E0,-1.229862176E1,-1.679186668E1,8.888157216E0,2.263232694E1
3.945384875E0,-1.473070679E1,-1.742870448E1,7.446613905E0,2.400428131E1
3.955330875E0,-1.735600137E1,-1.832602521E1,4.636087722E0,2.566256598E1
3.965276875E0,-1.936448603E1,-1.887106757E1,1.834386156E0,2.710102365E1
3.975222875E0,-2.053211419E1,-1.869642527E1,2.536463678E-1,2.777027849E1
3.985168875E0,-2.073203283E1,-1.830333918E1,-4.396078523E-1,2.765904310E1
3.995114875E0,-2.039072617E1,-1.740946480E1,-8.655969545E-2,2.681191286E1
4.005060875E0,-1.985793958E1,-1.640742278E1,4.942230392E-1,2.576403584E1
4.015006875E0,-1.952634632E1,-1.527529073E1,9.037877512E-1,2.480785238E1
4.024952875E0,-1.907249479E1,-1.416186977E1,1.609075395E0,2.380982437E1
4.034898875E0,-1.819254497E1,-1.327452322E1,2.084256392E0,2.261693578E1
4.044844875E0,-1.691659364E1,-1.247616194E1,2.249691810E0,2.113969892E1
4.054790875E0,-1.552949843E1,-1.172140568E1,2.778626114E0,1.965394199E1
4.064736875E0,-1.388064209E1,-1.098724916E1,3.669099755E0,1.807910844E1
4.074682875E0,-1.215065914E1,-1.004816996E1,4.416808949E0,1.637413931E1
4.084628875E0,-1.069492814E1,-8.847638351E0,4.853849727E0,1.470449079E1
4.094574875E0,-9.780058748E0,-7.805704867E0,5.089369726E0,1.350852552E1
4.104520875E0,-9.782484757E0,-6.793499213E0,5.125066978E0,1.296591497E1
4.114466875E0,-1.032972976E1,-5.929476621E0,5.073291053E0,1.294605315E1
4.124412875E0,-1.108641677E1,-5.635233620E0,5.197626246E0,1.347886543E1
4.134358875E0,-1.087215842E1,-5.083127823E0,5.102175713E0,1.304125048E1
4.144304875E0,-8.107883125E0,-3.936025735E0,4.466490401E0,1.005880728E1
4.154250875E0,-3.611007083E0,-2.610185958E0,3.432241621E0,5.624297772E0
4.164196875E0,-9.278303325E-2,-4.940482074E-1,3.758542567E0,3.792009302E0
4.174142875E0,3.742624399E0,2.508445867E0,4.801853069E0,6.584628384E0
4.184088875E0,9.508146847E0,5.045361827E0,3.876028039E0,1.144046003E1
4.194034875E0,1.629489662E1,8.610038497E0,1.998452156E0,1.853780542E1
4.203980875E0,2.683836433E1,1.069449428E1,2.820395114E0,2.902799746E1
4.213926875E0,4.086495994E1,1.222402532E1,3.649723252E0,4.280995475E1
4.223872875E0,5.567888080E1,1.441937881E1,2.747040625E0,5.758126852E1
4.233818875E0,6.618328677E1,1.579071226E1,1.954520710E0,6.806903990E1
4.243764875E0,7.293672262E1,1.609860208E1,1.591546612E0,7.470919298E1
4.253710875E0,7.405883605E1,1.415460051E1,-8.382544971E-1,7.540402232E1
4.263656875E0,6.913437183E1,9.296501030E0,-2.711102468E0,6.980928575E1
4.273602875E0,5.831060030E1,3.097768022E0,-3.538269475E0,5.849992841E1
4.283548875E0,4.605492517E1,-7.567106894E-1,-2.150488388E0,4.611131470E1
4.293494625E0,3.889280637E1,-2.906257968E0,1.203823004E0,3.901981436E1
4.303440625E0,3.518242995E1,-3.693149353E0,3.963134011E0,3.559703865E1
4.313386625E0,3.064495552E1,-4.953474002E0,3.626655402E0,3.125384509E1
4.323332625E0,2.341704619E1,-6.719327282E0,7.210429662E-1,2.437267557E1
4.333278625E0,1.451446974E1,-8.601398066E0,-3.296168434E0,1.719065464E1
4.343224625E0,6.545271460E0,-1.075584677E1,-7.326106884E0,1.456710885E1
4.353170625E0,7.194998860E-2,-1.281298495E1,-1.039790947E1,1.650134181E1
4.363116625E0,-5.267550175E0,-1.482152691E1,-1.235578180E1,2.000225209E1
4.373062625E0,-1.004250751E1,-1.613528751E1,-1.235996607E1,2.267086724E1
4.383008625E0,-1.388128996E1,-1.676178977E1,-1.093673507E1,2.435692881E1
4.392954625E0,-1.740280599E1,-1.722395370E1,-9.497451705E0,2.626259367E1
4.402900625E0,-2.085064477E1,-1.681818968E1,-8.095536729E0,2.798461374E1
4.412846625E0,-2.313409241E1,-1.656951227E1,-6.753852752E0,2.924635867E1
4.422792625E0,-2.461244862E1,-1.640049500E1,-4.781700933E0,2.996019905E1
4.432738625E0,-2.456038735E1,-1.576350634E1,-1.898789582E0,2.924561780E1
4.442684625E0,-2.321825723E1,-1.470285650E1,9.321734981E-1,2.749782547E1
4.452630625E0,-2.081053988E1,-1.381338741E1,3.340798477E0,2.520018207E1
4.462576625E0,-1.774424596E1,-1.289325903E1,4.435120674E0,2.237777220E1
4.472522625E0,-1.512007405E1,-1.193927294E1,4.298320971E0,1.973926140E1
4.482468625E0,-1.359030795E1,-1.100340268E1,3.427852993E0,1.781913345E1
4.492414625E0,-1.332190789E1,-1.019805164E1,1.761574287E0,1.686939925E1
4.502360625E0,-1.359674106E1,-9.744326997E0,-1.525936174E-1,1.672861503E1
4.512306625E0,-1.441568337E1,-9.750953647E0,-1.602182697E0,1.747741438E1
4.522252625E0,-1.513957919E1,-9.647960790E0,-2.590848631E0,1.813842612E1
4.532198625E0,-1.499915012E1,-9.466526366E0,-3.282835028E0,1.803792204E1
4.542144625E0,-1.427497948E1,-9.448650259E0,-3.684694279E0,1.751082530E1
4.552090625E0,-1.338650559E1,-9.651407139E0,-3.718960133E0,1.691682169E1
4.562036625E0,-1.241981583E1,-9.774877530E0,-2.896086152E0,1.606820995E1
4.571982625E0,-1.142124354E1,-9.679214743E0,-1.612083203E0,1.505758328E1
4.581928625E0,-1.008167918E1,-9.595763281E0,-6.635362581E-1,1.393410235E1
4.591874625E0,-8.750579249E0,-9.392804087E0,3.017186666E-1,1.284088938E1
4.601820625E0,-7.773187916E0,-9.225348601E0,1.421847696E0,1.214706376E1
4.611766625E0,-7.186209911E0,-9.032119759E0,2.442253339E0,1.179768628E1
4.621712625E0,-7.059772058E0,-8.847916678E0,3.138469613E0,1.174631868E1
4.631658625E0,-7.610385060E0,-8.728638157E0,3.504977767E0,1.209925427E1
4.641604625E0,-8.399887227E0,-8.891626954E0,3.485308903E0,1.271874654E1
4.651550625E0,-9.298687304E0,-9.058927488E0,3.247183385E0,1.338185162E1
4.661496625E0,-1.021970738E1,-8.839454588E0,2.734001334E0,1.378597620E1
4.671442625E0,-1.107988309E1,-8.595170782E0,2.005524802E0,1.416555328E1
4.681388625E0,-1.178788969E1,-8.425172342E0,1.344942484E0,1.455152029E1
4.691334625E0,-1.171122685E1,-7.680459262E0,4.872135432E-1,1.401355293E1
4.701280625E0,-1.070097650E1,-6.760594007E0,5.994097710E-2,1.265780875E1
4.711226625E0,-9.472829665E0,-5.877984871E0,3.086217432E-1,1.115259859E1
4.721172625E0,-8.144945701E0,-5.080536922E0,7.243589222E-1,9.626873415E0
4.731118625E0,-7.078945663E0,-4.486836080E0,9.614809124E-1,8.436090045E0
4.741064625E0,-6.248807101E0,-3.685661409E0,1.159978681E0,7.346920494E0
4.751011625E0,-5.483373243E0,-3.115458188E0,1.297181404E0,6.438644379E0
4.760956625E0,-4.999205076E0,-2.755933070E0,1.139266820E0,5.821095032E0
4.770903625E0,-4.235432412E0,-2.484858199E0,1.069853354E0,5.025733199E0
4.780848625E0,-1.692090070E0,-2.282544245E0,1.746346968E0,3.335101913E0
4.790794625E0,4.148106000E0,-1.021709792E0,2.674922236E0,5.040424909E0
4.800740625E0,1.267324234E1,1.147801562E0,2.793310812E0,1.302808908E1
4.810686625E0,2.344559931E1,2.736296951E0,4.007687455E0,2.394253551E1
4.820633625E0,4.122744989E1,5.523568758E0,6.024705545E0,4.202986454E1
4.830578625E0,6.578063347E1,8.559834303E0,5.261231089E0,6.654354255E1
4.840525625E0,8.743611005E1,9.557441214E0,3.594424964E0,8.803032383E1
4.850470625E0,9.835751138E1,1.184720619E1,2.394267579E0,9.909737058E1
4.860417625E0,9.637349030E1,1.029363139E1,-1.313146057E0,9.693055675E1
4.870363625E0,8.268615014E1,8.627874259E0,-4.682865447E-1,8.313638753E1
4.880309625E0,6.612723770E1,5.323913825E0,3.611977721E0,6.643946122E1
4.890255625E0,4.592414400E1,2.568322232E-1,3.424590831E0,4.605237005E1
4.900201625E0,2.575052027E1,-4.623784010E0,1.376727510E0,2.619855056E1
4.910147625E0,1.365601194E1,-5.501074519E0,-2.708100507E0,1.496937846E1
4.920093625E0,6.218179970E0,-5.452739680E0,-9.230929769E0,1.239387738E1
4.930039625E0,3.223950058E-1,-6.129713352E0,-1.357854803E1,1.490148620E1
4.939985625E0,-1.572012818E0,-5.852389269E0,-1.255762418E1,1.394329980E1
4.949931625E0,-2.337903929E0,-2.427572443E0,-1.073680941E1,1.125335412E1
4.959877625E0,-5.753467244E0,-5.138278177E0,-7.417957286E0,1.070188667E1
4.969823625E0,-9.115068360E0,-5.351541334E0,-3.835004267E0,1.124414175E1
4.979769625E0,-1.134693479E1,-6.313964964E0,-1.194155803E0,1.304013385E1
4.989715625E0,-1.238357011E1,-7.531372805E0,4.159339379E-1,1.449990986E1
4.999661625E0,-1.290143929E1,-8.979607669E0,1.287798377E0,1.577145885E1
5.009607625E0,-1.385925765E1,-1.103713995E1,2.327642065E0,1.786939838E1
5.019553625E0,-1.572898789E1,-1.246076037E1,3.533841378E0,2.037546671E1
5.029499625E0,-1.728614702E1,-1.338856381E1,4.442480564E0,2.231143548E1
5.039445625E0,-1.782416805E1,-1.395597177E1,4.887501622E0,2.315939953E1
5.049391625E0,-1.780509560E1,-1.406486446E1,4.434151205E0,2.311933257E1
5.059337625E0,-1.766456712E1,-1.375650336E1,3.234251683E0,2.262164230E1
5.069283625E0,-1.739232310E1,-1.339539569E1,1.927873778E0,2.203738247E1
5.079229625E0,-1.708623540E1,-1.315003015E1,8.787634224E-1,2.157857637E1
5.089175625E0,-1.685300400E1,-1.289717550E1,-4.247376519E-1,2.122595773E1
5.099121625E0,-1.679568023E1,-1.255906259E1,-1.632843157E0,2.103547253E1
5.109067625E0,-1.666737829E1,-1.228560235E1,-2.481150187E0,2.085410344E1
5.119013625E0,-1.628660410E1,-1.190578242E1,-2.869263804E0,2.037728645E1
5.128959625E0,-1.542575713E1,-1.150694150E1,-2.652514536E0,1.942677326E1
5.138905625E0,-1.399344774E1,-1.136259948E1,-1.785304627E0,1.811387753E1
5.148851625E0,-1.250197155E1,-1.133928546E1,-9.940944886E-1,1.690759921E1
5.158797625E0,-1.137486694E1,-1.154510745E1,-6.491099346E-1,1.622030972E1
5.168743625E0,-1.058471397E1,-1.180544771E1,-3.491360772E-1,1.585959210E1
5.178689625E0,-1.022580486E1,-1.208860381E1,2.267350694E-1,1.583517716E1
5.188635625E0,-1.150267655E1,-1.228912354E1,1.198654577E0,1.687515623E1
5.198581625E0,-1.065391928E1,-1.232717488E1,1.912399707E0,1.640495380E1
5.208527625E0,-1.030175785E1,-1.271724849E1,2.287644771E0,1.652537269E1
5.218473625E0,-1.092640655E1,-1.301947001E1,2.270296229E0,1.714780465E1
5.228419625E0,-1.164760446E1,-1.339999862E1,2.250643591E0,1.789670499E1
5.238365625E0,-1.199018581E1,-1.386844713E1,1.998137430E0,1.844155457E1
5.248311625E0,-1.224017416E1,-1.439481232E1,1.361980247E0,1.894432568E1
5.258257625E0,-1.325152846E1,-1.480575346E1,8.514692044E-1,1.988814577E1
5.268203625E0,-1.479577811E1,-1.507745486E1,7.559235080E-1,2.113802535E1
5.278149625E0,-1.631303000E1,-1.521832598E1,1.017022664E0,2.233263820E1
5.288095625E0,-1.712929546E1,-1.508873064E1,1.408205996E0,2.287062744E1
5.298042458E0,-1.696905720E1,-1.535657287E1,1.715011594E0,2.295026138E1
5.307988458E0,-1.734112839E1,-1.593040225E1,1.875113182E0,2.362220352E1
5.317934458E0,-1.823249783E1,-1.625477069E1,1.992635200E0,2.450738954E1
5.327880458E0,-1.838528089E1,-1.686991181E1,2.056195750E0,2.503678132E1
5.337826458E0,-1.672218307E1,-1.726786278E1,1.073216818E0,2.406163515E1
5.347772458E0,-1.069360784E1,-1.726700207E1,-1.600229581E0,2.037310344E1
5.357718458E0,2.027643650E0,-1.478225701E1,-6.354577385E0,1.621749410E1
5.367664458E0,1.757382302E1,-8.876811279E0,-1.041287483E1,2.227251661E1
5.377610458E0,2.917497252E1,-5.666230879E0,-6.485983032E0,3.041961817E1
5.387556458E0,3.569058573E1,-1.592748507E0,2.948221096E0,3.584754894E1
5.397502458E0,4.924015145E1,1.397797367E0,1.341852026E1,5.105490220E1
5.407448458E0,8.095949075E1,6.462251523E0,2.038223134E1,8.373550735E1
5.417394458E0,1.092943587E2,1.655871013E1,1.818128323E1,1.120268128E2
5.427340458E0,1.156095761E2,1.910032520E1,5.641457981E0,1.173124996E2
5.437286458E0,1.052307590E2,1.839016215E1,-1.350016844E1,1.076752769E2
5.447232458E0,8.119453946E1,1.394360841E1,-2.091274454E1,8.499600189E1
5.457178458E0,6.210592974E1,8.562415849E0,-1.253945922E1,6.393511955E1
5.467124458E0,4.957263817E1,4.068825358E0,-2.982001630E0,4.982864767E1
5.477070458E0,3.654824831E1,-6.830538254E-1,2.071227626E0,3.661326263E1
5.487016458E0,2.179231078E1,-3.551494415E0,1.605454799E0,2.213809854E1
5.496962458E0,1.404714506E1,-4.580209098E0,-1.963947591E0,1.490495521E1
5.506908458E0,1.097417830E1,-4.558086450E0,-4.957144300E0,1.287563672E1
5.516854458E0,7.479741306E0,-6.294029467E0,-5.234687068E0,1.108888117E1
5.526800458E0,2.493179079E0,-8.714174484E0,-3.542658979E0,9.731557507E0
5.536746458E0,-2.433604138E0,-1.192637398E1,-1.540600991E0,1.226924108E1
5.546692458E0,-6.276802985E0,-1.433195358E1,8.966412842E-2,1.564644333E1
5.556638458E0,-8.987038311E0,-1.627423724E1,5.620308602E-1,1.859928853E1
5.566584458E0,-1.150541655E1,-1.804116056E1,5.842461866E-1,2.140559338E1
5.576530458E0,-1.430902080E1,-1.875879752E1,4.352719957E-1,2.359724608E1
5.586476458E0,-1.710252457E1,-1.853488424E1,-5.122529286E-1,2.522500116E1
5.596422458E0,-1.963103487E1,-1.904327860E1,-1.731824824E0,2.740480262E1
5.606368458E0,-2.228090646E1,-1.873330951E1,-2.601481792E0,2.922573156E1
5.616314458E0,-2.404473310E1,-1.740277442E1,-3.230301889E0,2.985700248E1
5.626260458E0,-2.370741190E1,-1.654706715E1,-3.546854941E0,2.912777009E1
5.636206458E0,-2.181224745E1,-1.563874547E1,-3.301864207E0,2.704157550E1
5.646152458E0,-1.892419771E1,-1.473216626E1,-2.266728112E0,2.408941755E1
5.656098458E0,-1.567391881E1,-1.385853493E1,-1.139100759E0,2.095300150E1
5.666044458E0,-1.307804391E1,-1.313200319E1,-5.267160165E-1,1.854082442E1
5.675990458E0,-1.127988009E1,-1.256290889E1,-2.107810877E-1,1.688510596E1
5.685936458E0,-1.018906564E1,-1.208607547E1,-4.467967115E-2,1.580798137E1
5.695882458E0,-9.599372767E0,-1.171365929E1,-1.533373102E-1,1.514533868E1
5.705828458E0,-9.499986473E0,-1.160664589E1,-4.595210202E-1,1.500583657E1
5.715774458E0,-9.758743308E0,-1.163111298E1,-7.499615407E-1,1.520125989E1
5.725720458E0,-1.023546680E1,-1.173343691E1,-9.048273861E-1,1.559669949E1
5.735666458E0,-1.079722752E1,-1.172859776E1,-9.951411402E-1,1.597280293E1
5.745612458E0,-1.121619689E1,-1.170359740E1,-1.007835445E0,1.624170549E1
5.755558458E0,-1.150378518E1,-1.169715845E1,-1.021974013E0,1.643791410E1
5.765504458E0,-1.149049913E1,-1.169081539E1,-1.171201973E0,1.643406367E1
5.775450458E0,-1.121656176E1,-1.180982143E1,-1.385777246E0,1.634636101E1
5.785396458E0,-1.066622182E1,-1.189103691E1,-1.341965228E0,1.603015650E1
5.795342458E0,-9.826002660E0,-1.198889475E1,-9.753565013E-1,1.553174961E1
5.805288458E0,-9.106163051E0,-1.224236453E1,-3.996840870E-1,1.526294343E1
5.815234458E0,-8.897618011E0,-1.241852242E1,1.571497679E-1,1.527782712E1
5.825180458E0,-9.025185546E0,-1.242866734E1,6.198247397E-1,1.537237551E1
5.835126458E0,-9.380120307E0,-1.242697750E1,8.535905743E-1,1.559310885E1
5.845072458E0,-1.007168746E1,-1.245506401E1,7.918498242E-1,1.603728574E1
5.855018458E0,-1.108356684E1,-1.259863070E1,4.859381193E-1,1.678711069E1
5.864964458E0,-1.205159093E1,-1.293402348E1,2.651958064E-1,1.768050158E1
5.874910458E0,-1.272867278E1,-1.336937792E1,2.053413316E-1,1.846081097E1
5.884856458E0,-1.330009777E1,-1.365763630E1,3.719372946E-1,1.906730100E1
5.894802458E0,-1.415875321E1,-1.403051324E1,5.070904219E-1,1.993947679E1
5.904748458E0,-1.484034676E1,-1.433063562E1,4.432756644E-1,2.063490980E1
5.914694458E0,-1.503259620E1,-1.467578156E1,2.442498922E-2,2.100852468E1
5.924640458E0,-1.481538500E1,-1.464029130E1,-3.042692220E-1,2.083089872E1
5.934586458E0,-1.347840978E1,-1.502061057E1,1.399823427E-1,2.018182022E1
5.944532458E0,-1.061598488E1,-1.532307301E1,1.179377550E0,1.867850724E1
5.954478458E0,-2.696307843E0,-1.313016482E1,1.310251100E0,1.346803854E1
5.964424458E0,9.087233859E0,-8.976663011E0,-1.576455387E-1,1.277431603E1
5.974370458E0,2.023892076E1,-2.659134169E0,-2.223233013E0,2.053357429E1
5.984316458E0,3.214554050E1,2.206475478E0,-1.019684243E-1,3.222133929E1
5.994262458E0,4.885296287E1,7.963861526E0,6.293982105E0,4.989638546E1
6.004208458E0,6.925714465E1,1.432083218E1,1.282514716E1,7.187574500E1
6.014154458E0,8.931194361E1,2.288837369E1,1.526804369E1,9.345380720E1
6.024100458E0,9.352537236E1,2.722758074E1,7.529996370E0,9.769870661E1
6.034046458E0,8.177969138E1,2.183931538E1,-3.944422921E0,8.473743028E1
6.043992458E0,7.075380265E1,1.728355437E1,-1.092226789E1,7.364861015E1
6.053938458E0,6.308219490E1,1.406267059E1,-1.099602350E1,6.555939712E1
6.063884458E0,5.439464981E1,9.600540456E0,-5.416936010E0,5.550037388E1
6.073830458E0,4.083123788E1,3.681426271E0,9.919806471E-1,4.100886382E1
6.083776458E0,2.659679481E1,-8.626617254E-1,5.519421328E0,2.717715384E1
6.093722458E0,1.710436878E1,-2.989933086E0,6.619258618E0,1.858261865E1
6.103668458E0,1.061480141E1,-4.842727446E0,4.604535561E0,1.254303654E1
6.113614458E0,5.756232392E0,-6.668291030E0,1.984526281E0,9.029876033E0
6.123560458E0,1.590834421E0,-9.276499459E0,1.196049424E-1,9.412677712E0
6.133506458E0,-2.457133918E0,-1.192929057E1,-1.428647715E0,1.226321797E1
6.143452458E0,-6.500235035E0,-1.490319848E1,-3.290510083E0,1.658872621E1
6.153398458E0,-1.052058522E1,-1.640707662E1,-5.026728505E0,2.012816127E1
6.163344458E0,-1.336679345E1,-1.702291473E1,-7.058563439E0,2.276563443E1
6.173290458E0,-1.655126662E1,-1.723158548E1,-9.117701361E0,2.557351057E1
6.183236458E0,-2.027221714E1,-1.702088458E1,-1.128390531E1,2.877498599E1
6.193182458E0,-2.349155609E1,-1.654416693E1,-1.287515956E1,3.148543156E1
6.203128458E0,-2.525552072E1,-1.575108802E1,-1.254241791E1,3.229938618E1
6.213074458E0,-2.497543207E1,-1.455693105E1,-1.072372100E1,3.083301219E1
6.223020458E0,-2.249366559E1,-1.364074954E1,-7.982767913E0,2.749108261E1
6.232966458E0,-1.909532817E1,-1.283497983E1,-4.934227892E0,2.353114681E1
6.242912458E0,-1.650416145E1,-1.220111476E1,-2.236826912E0,2.064601514E1
6.252858458E0,-1.440055545E1,-1.128927422E1,-2.649759328E-1,1.830010716E1
6.262804458E0,-1.274960347E1,-1.039180147E1,1.063782189E0,1.648252283E1
6.272750458E0,-1.159909596E1,-9.419335828E0,1.637023332E0,1.503139248E1
6.282696458E0,-1.061914940E1,-8.687471420E0,1.592955206E0,1.381216854E1
6.292641875E0,-1.011617424E1,-8.165163034E0,1.251504124E0,1.306036490E1
6.302587875E0,-1.003678309E1,-7.865705486E0,7.951078928E-1,1.277648364E1
6.312533875E0,-1.021127570E1,-7.690007765E0,2.448036236E-1,1.278539400E1
6.322479875E0,-1.056491998E1,-7.616973118E0,-4.978407115E-1,1.303394257E1
6.332425875E0,-1.097953552E1,-7.694033573E0,-1.391603996E0,1.347905466E1
6.342371875E0,-1.128908828E1,-7.733764819E0,-2.283498949E0,1.387331972E1
6.352317875E0,-1.150540720E1,-7.681198935E0,-2.983797895E0,1.415197024E1
6.362263875E0,-1.145102926E1,-7.498928359E0,-3.440987594E0,1.411383694E1
6.372209875E0,-1.107320440E1,-7.152386107E0,-3.615446874E0,1.366908698E1
6.382155875E0,-9.783288749E0,-6.181601543E0,-3.457818219E0,1.207813906E1
6.392101875E0,-9.939658499E0,-6.670655644E0,-3.030076852E0,1.234811012E1
6.402047875E0,-1.010125566E1,-6.811157219E0,-2.841355044E0,1.251001707E1
6.411993875E0,-9.651556243E0,-6.548756400E0,-2.721820999E0,1.197693858E1
6.421939875E0,-9.203554859E0,-6.260909668E0,-2.447685403E0,1.139717402E1
6.431885875E0,-8.948281796E0,-6.083346686E0,-1.872697697E0,1.098115889E1
6.441831875E0,-9.417413263E0,-6.104845728E0,-1.180530621E0,1.128496639E1
6.451777875E0,-9.923962233E0,-6.294972038E0,-6.698979557E-1,1.177117083E1
6.461723875E0,-1.032249910E1,-6.720131274E0,-3.916353581E-1,1.232345447E1
6.471669875E0,-1.091625812E1,-7.026852819E0,-1.817700906E-1,1.298362015E1
6.481615875E0,-1.134176702E1,-6.953815248E0,6.823404651E-2,1.330397991E1
6.491561875E0,-1.137155273E1,-6.812128442E0,3.386841792E-1,1.326016638E1
6.501507875E0,-1.104209488E1,-6.724716661E0,6.582251590E-1,1.294538272E1
6.511453875E0,-1.043284307E1,-6.560657823E0,1.038271957E0,1.236787994E1
6.521399875E0,-9.373588382E0,-6.413733666E0,1.339418181E0,1.143652831E1
6.531345875E0,-7.419925459E0,-6.198459651E0,1.541224889E0,9.790381505E0
6.541291875E0,-5.618077889E0,-5.028668611E0,1.533879471E0,7.694354645E0
6.551237875E0,-3.337806457E0,-3.003805897E0,1.263171805E0,4.664697720E0
6.561183875E0,2.178662027E0,-6.111853324E-1,1.642084828E0,2.795810852E0
6.571129875E0,1.116895607E1,1.561079110E0,2.940994522E0,1.165469847E1
6.581075875E0,2.554126947E1,4.087972650E0,4.557434485E0,2.626477062E1
6.591021875E0,4.910406569E1,5.720298328E0,1.006032164E1,5.044939199E1
6.600967875E0,7.632429999E1,1.522029182E1,1.889021135E1,8.008680376E1
6.610913875E0,9.052509584E1,2.318522280E1,2.058714350E1,9.568791988E1
6.620859875E0,8.639190960E1,1.991217835E1,2.322952131E1,9.164970022E1
6.630805875E0,7.408860071E1,1.275074835E1,2.743269872E1,8.002659119E1
6.640751875E0,6.085488287E1,7.929621400E0,2.700928313E1,6.704995928E1
6.650697875E0,4.654943589E1,4.832214444E0,2.352543018E1,5.237982572E1
6.660643875E0,3.197984211E1,1.944373305E0,1.708054255E1,3.630751744E1
6.670589875E0,2.100429790E1,-1.063842416E-1,1.027455310E1,2.338286315E1
6.680535875E0,1.524562663E1,-8.818935831E-1,3.844309818E0,1.574755809E1
6.690481875E0,1.121400536E1,-7.979380913E-1,-1.038510816E0,1.129022259E1
6.700427875E0,7.056525099E0,-1.142588331E0,-4.681531989E0,8.544986620E0
6.710373875E0,2.235751902E0,-3.293039881E0,-7.712497326E0,8.679015683E0
6.720319875E0,-3.558524814E0,-6.135898536E0,-1.055598777E1,1.271775246E1
6.730265875E0,-9.476380094E0,-1.036341908E1,-1.220657372E1,1.860652242E1
6.740211875E0,-1.517138688E1,-1.244426304E1,-1.078684637E1,2.239166624E1
6.750157875E0,-1.814496618E1,-1.306704179E1,-8.904589062E0,2.406821732E1
6.760103875E0,-1.895100485E1,-1.337344642E1,-7.736907697E0,2.445095897E1
6.770049875E0,-1.890610642E1,-1.316710519E1,-7.428563551E0,2.420737647E1
6.779995875E0,-1.877729928E1,-1.252717772E1,-7.853666654E0,2.389973284E1
6.789941875E0,-1.860978825E1,-1.164595555E1,-8.594148688E0,2.357566311E1
6.799887875E0,-1.832451897E1,-1.089405858E1,-8.999091761E0,2.313983924E1
6.809833875E0,-1.727146817E1,-1.048998791E1,-8.738538662E0,2.201602864E1
6.819779875E0,-1.565913822E1,-9.948822255E0,-7.894701828E0,2.016219212E1
6.829725875E0,-1.378971087E1,-9.530252831E0,-6.601101844E0,1.801544866E1
6.839671875E0,-1.213904423E1,-9.247242916E0,-5.103148690E0,1.609068124E1
6.849617875E0,-1.108871590E1,-9.039008948E0,-3.821063628E0,1.480755990E1
6.859563875E0,-1.068527907E1,-8.895223576E0,-2.935177712E0,1.420969596E1
6.869509875E0,-1.086511369E1,-8.727162319E0,-2.376011987E0,1.413716700E1
6.879455875E0,-1.135689026E1,-8.595283048E0,-1.959861702E0,1.437702698E1
6.889401875E0,-1.193389584E1,-8.489480020E0,-1.586427959E0,1.473111993E1
6.899347875E0,-1.235945151E1,-8.315506058E0,-1.305704890E0,1.495354633E1
6.909293875E0,-1.245094173E1,-8.193381112E0,-1.044896414E0,1.494152778E1
6.919239875E0,-1.220933010E1,-8.051353998E0,-6.977302636E-1,1.464168263E1
6.929185875E0,-1.178836799E1,-7.728820998E0,-2.299400014E-1,1.409798448E1
6.939131875E0,-1.133107246E1,-7.180432861E0,2.706225890E-1,1.341734161E1
6.949077875E0,-1.080815947E1,-6.642562112E0,5.716839554E-1,1.269908521E1
6.959023875E0,-1.022513360E1,-6.169369168E0,6.414190187E-1,1.195934327E1
6.968969875E0,-9.689339197E0,-5.753243880E0,6.237517297E-1,1.128592820E1
6.978915875E0,-9.187425900E0,-5.357811888E0,5.714214885E-1,1.065089036E1
6.988861875E0,-8.758641974E0,-4.978024707E0,5.406429148E-1,1.008894613E1
6.998807875E0,-8.328127858E0,-4.690039980E0,4.691232812E-1,9.569444356E0
7.008753875E0,-7.930459891E0,-4.470232911E0,3.426000595E-1,9.110024762E0
7.018699875E0,-7.630124091E0,-4.152710975E0,1.406384003E-1,8.688128754E0
7.028645875E0,-7.393675554E0,-3.406168594E0,1.674911535E-1,8.142264794E0
7.038591875E0,-7.370011872E0,-3.440953387E0,1.514476363E-1,8.135119642E0
7.048537875E0,-7.708671493E0,-3.170460899E0,-1.215646367E-1,8.336079202E0
7.058483875E0,-8.344067953E0,-2.674038137E0,-1.972043645E-1,8.764293441E0
7.068429875E0,-8.174295216E0,-2.836874907E0,-3.776856192E-1,8.660808735E0
7.078375875E0,-7.647737074E0,-2.914435884E0,-5.500451645E-1,8.202704954E0
7.088321875E0,-7.344643727E0,-2.566681504E0,-4.502847219E-1,7.793227941E0
7.098267875E0,-6.911245764E0,-2.114430363E0,-1.580478271E-1,7.229184801E0
7.108213875E0,-6.071976190E0,-2.046657187E0,7.730136037E-2,6.408094568E0
7.118159875E0,-5.161455955E0,-2.487408755E0,1.225178059E-1,5.730867343E0
7.128105875E0,-3.395185184E0,-2.698797880E0,7.513200682E-2,4.337791748E0
7.138051875E0,6.373558617E-1,-1.925687943E0,2.637784231E-1,2.045501309E0
7.147997875E0,5.024834592E0,3.122916019E-1,8.018304366E-1,5.097982029E0
7.157943875E0,7.569548691E0,2.732886854E0,1.056453362E0,8.116823988E0
7.167889875E0,9.147823293E0,2.248735059E0,1.554692781E0,9.547593938E0
7.177835875E0,1.453789252E1,1.055811923E0,2.761427114E0,1.483544867E1
7.187781875E0,2.563991434E1,2.030180756E0,4.488589953E0,2.610889275E1
7.197727875E0,4.044188816E1,3.374985393E0,8.459230034E0,4.145473938E1
7.207673875E0,5.502117195E1,5.256893039E0,1.520353253E1,5.732461677E1
7.217619875E0,6.805411511E1,5.663713653E0,2.170276886E1,7.165507946E1
7.227565875E0,7.710597917E1,3.600409589E0,2.268658160E1,8.045480692E1
7.237511875E0,7.767058163E1,8.667852549E-1,1.867441401E1,7.988869949E1
7.247457875E0,6.704897874E1,-6.247067262E-1,1.399729638E1,6.849730006E1
7.257403875E0,5.023541305E1,-2.509887206E0,1.014751766E1,5.131148383E1
7.267349875E0,3.140587942E1,-5.743667310E0,6.726043979E0,3.262757490E1
7.277295875E0,1.237221248E1,-8.944784576E0,2.580212545E0,1.548348506E1
7.287241875E0,4.613981738E0,-8.316163870E0,-2.944774747E-1,9.514942248E0
7.297188583E0,3.488911373E0,-6.326432397E0,-2.447002448E0,7.627848348E0
7.307134583E0,2.142629145E0,-5.968522573E0,-4.803818611E0,7.955551182E0
7.317080583E0,-1.615622522E0,-7.997169605E0,-7.644961985E0,1.118080505E1
7.327026583E0,-5.938415260E0,-8.524104892E0,-8.251514715E0,1.326697536E1
7.336972583E0,-1.015150078E1,-9.549850359E0,-8.065845737E0,1.610312012E1
7.346918583E0,-1.348338226E1,-9.548855163E0,-6.782077847E0,1.785997794E1
7.356864583E0,-1.565269342E1,-9.463473535E0,-4.939964011E0,1.894643468E1
7.366810583E0,-1.704175914E1,-9.758417033E0,-3.785696159E0,1.999949381E1
7.376756583E0,-1.829206458E1,-9.638973620E0,-3.387893706E0,2.095202288E1
7.386702583E0,-1.899877076E1,-9.215672629E0,-3.475617144E0,2.140004268E1
7.396648583E0,-1.890558017E1,-8.822569583E0,-3.223530228E0,2.111042025E1
7.406594583E0,-2.005994217E1,-8.842847727E0,-2.035383024E0,2.201681221E1
7.416540583E0,-1.990380280E1,-8.322808646E0,-7.004233450E-1,2.158520564E1
7.426486583E0,-1.820947968E1,-7.893317208E0,3.631612817E-1,1.984997463E1
7.436432583E0,-1.699641983E1,-7.387058845E0,1.319680905E0,1.857924872E1
7.446378583E0,-1.560733423E1,-6.803386270E0,1.789518131E0,1.711950120E1
7.456324583E0,-1.416951793E1,-6.481746140E0,1.975192371E0,1.570635719E1
7.466270583E0,-1.288720483E1,-6.338082975E0,1.878247874E0,1.448375501E1
7.476216583E0,-1.171725416E1,-6.282673590E0,1.748576512E0,1.340983043E1
7.486162583E0,-1.081269691E1,-6.223154197E0,1.714942743E0,1.259297786E1
7.496108583E0,-1.012492168E1,-6.202370853E0,1.856273453E0,1.201786979E1
7.506054583E0,-9.676403986E0,-6.233585629E0,1.969536944E0,1.167773350E1
7.516000583E0,-9.635303907E0,-6.277419866E0,1.958977457E0,1.166544788E1
7.525946583E0,-1.000859015E1,-6.342109952E0,1.767681119E0,1.197993873E1
7.535892583E0,-1.080890792E1,-6.432870433E0,1.181633406E0,1.263370768E1
7.545838583E0,-1.151154677E1,-6.671637976E0,4.776853226E-1,1.331370142E1
7.555784583E0,-1.199090151E1,-6.920429986E0,-9.376657147E-2,1.384495801E1
7.565730583E0,-1.234576201E1,-6.984221939E0,-5.167979693E-1,1.419381118E1
7.575676583E0,-1.247360086E1,-6.732378268E0,-6.894849586E-1,1.419123057E1
7.585622583E0,-1.237905372E1,-7.012706065E0,-7.212283230E-1,1.424567259E1
7.595568583E0,-1.225093187E1,-7.274617472E0,-9.328858352E-1,1.427850367E1
7.605514583E0,-1.217158983E1,-7.408032222E0,-9.686181700E-1,1.428162321E1
7.615460583E0,-1.205416955E1,-7.284055463E0,-1.039234993E0,1.412233964E1
7.625406583E0,-1.203605605E1,-6.939120026E0,-1.123171774E0,1.393841981E1
7.635352583E0,-1.191494150E1,-6.700374702E0,-1.090274169E0,1.371311598E1
7.645298583E0,-1.169476460E1,-6.651259845E0,-8.532444191E-1,1.348090511E1
7.655244583E0,-1.172871236E1,-6.792001741E0,-7.566718054E-1,1.357448097E1
7.665190583E0,-1.194104113E1,-6.891863998E0,-7.045994264E-1,1.380516980E1
7.675136583E0,-1.192369361E1,-6.998255256E0,-5.754659710E-1,1.383767347E1
7.685082583E0,-1.189824887E1,-7.215982178E0,-5.835479925E-1,1.392764349E1
7.695028583E0,-1.186722004E1,-7.183795010E0,-4.882600121E-1,1.388078600E1
7.704974583E0,-1.167320591E1,-6.963599979E0,-1.827974099E-1,1.359370721E1
7.714920583E0,-1.150841968E1,-7.139043345E0,-1.857137818E-2,1.354289512E1
7.724866583E0,-1.133630689E1,-8.050050069E0,-1.764414499E-1,1.390490171E1
7.734812583E0,-1.065316733E1,-9.018271798E0,9.716320077E-2,1.395810306E1
7.744758583E0,-8.411574057E0,-9.409300836E0,1.707351887E-1,1.262215001E1
7.754704583E0,-2.527862424E0,-1.001314163E1,-4.704260409E-1,1.033800727E1
7.764650583E0,9.433282022E0,-8.839511890E0,-1.478380769E0,1.301189417E1
7.774596583E0,2.785410054E1,-7.579148650E0,-3.117881566E0,2.903473087E1
7.784542583E0,4.842772528E1,-7.748308014E0,-4.214952539E0,4.922445203E1
7.794488583E0,6.589422850E1,-4.805504363E0,-3.989310826E0,6.618955221E1
7.804434583E0,7.715606408E1,9.373232871E-2,-2.942194955E0,7.721219800E1
7.814380583E0,7.925677219E1,1.103803457E0,2.150243390E-1,7.926474977E1
7.824326583E0,7.225079744E1,-3.892255232E0,5.175578735E0,7.254043009E1
7.834272583E0,6.508623685E1,-2.046865786E0,1.111443195E1,6.606011266E1
7.844218583E0,5.788881022E1,6.635581121E-2,1.580108756E1,6.000660897E1
7.854164583E0,4.695500812E1,1.129945920E0,1.586527479E1,4.957576534E1
7.864110583E0,3.495614270E1,1.764952516E0,1.306708155E1,3.736034783E1
7.874056583E0,2.474696498E1,2.107244135E0,9.323959554E0,2.652902138E1
7.884002583E0,1.744091580E1,1.991971103E0,5.508382954E0,1.839825469E1
7.893948583E0,1.098761403E1,1.430914242E0,2.300285867E0,1.131664671E1
7.903894583E0,5.078999104E0,3.206424491E-1,2.031088829E-1,5.093161759E0
7.913840583E0,-5.379438400E-4,-1.021482627E0,-1.014185522E0,1.439444101E0
7.923786583E0,-4.588866777E0,-2.576767658E0,-1.364903271E0,5.436946827E0
7.933732583E0,-8.697245625E0,-3.722472263E0,-9.889711583E-1,9.511936983E0
7.943678583E0,-1.182095102E1,-4.533889502E0,-5.854741019E-1,1.267413969E1
7.953624583E0,-1.372593061E1,-5.463720751E0,-3.756812668E-1,1.477817823E1
7.963570583E0,-1.460859237E1,-6.465607240E0,-5.882649414E-1,1.598627861E1
7.973516583E0,-1.507678828E1,-7.689677982E0,-1.182805188E0,1.696583981E1
7.983462583E0,-1.570087915E1,-9.079149499E0,-1.665904484E0,1.821328634E1
7.993408583E0,-1.669236344E1,-9.849014962E0,-1.778689088E0,1.946283196E1
8.003354583E0,-1.743639941E1,-1.004642164E1,-1.812746780E0,2.020506529E1
8.013300583E0,-1.683472911E1,-9.819236262E0,-1.948608005E0,1.958628546E1
8.023246583E0,-1.743488148E1,-9.593879893E0,-8.619778935E-1,1.991885111E1
8.033192583E0,-1.737853303E1,-9.299013578E0,3.330912443E-1,1.971283880E1
8.043138583E0,-1.571409854E1,-8.881754515E0,1.752092443E0,1.813527733E1
8.053084583E0,-1.329682333E1,-8.760967412E0,2.786779472E0,1.616558692E1
8.063030583E0,-1.132741795E1,-8.882591836E0,3.820982351E0,1.489331197E1
8.072976583E0,-9.651704763E0,-8.978242929E0,4.534958957E0,1.394023327E1
8.082922583E0,-8.698584638E0,-9.084388604E0,4.933778826E0,1.351050201E1
8.092868583E0,-8.460073203E0,-9.451785536E0,4.910738457E0,1.360236893E1
8.102814583E0,-8.996527172E0,-9.753565013E0,4.566138650E0,1.403278853E1
8.112760583E0,-9.847555497E0,-1.012496495E1,4.277663927E0,1.475763101E1
8.122706583E0,-1.073002664E1,-1.039351587E1,3.943808963E0,1.545031627E1
8.132652583E0,-1.171077076E1,-1.035861384E1,3.340614290E0,1.598758069E1
8.142598583E0,-1.250616166E1,-1.021796024E1,2.379372967E0,1.632397643E1
8.152544583E0,-1.291014462E1,-1.012632969E1,1.460566642E0,1.647263312E1
8.162490583E0,-1.312706463E1,-9.938107817E0,7.786655223E-1,1.648308626E1
8.172436583E0,-1.319274991E1,-9.621768188E0,2.853067382E-1,1.633121163E1
8.182382583E0,-1.277122180E1,-9.073691123E0,-7.743584633E-2,1.566658779E1
8.192328583E0,-1.268564662E1,-8.821910017E0,-5.400831901E-2,1.545168740E1
8.202274583E0,-1.282477293E1,-8.658978522E0,-1.645078310E-1,1.547513401E1
8.212220583E0,-1.288135059E1,-8.393828927E0,-2.963566967E-1,1.537769113E1
8.222166583E0,-1.290165914E1,-8.138078731E0,-5.074283179E-1,1.526232674E1
8.232112583E0,-1.298949836E1,-7.849043260E0,-6.821921651E-1,1.519210103E1
8.242058583E0,-1.331278506E1,-7.812899866E0,-7.896429388E-1,1.545623455E1
8.252004583E0,-1.359452379E1,-7.738743138E0,-8.951631812E-1,1.566845684E1
8.261950583E0,-1.381839263E1,-7.667406523E0,-6.484339233E-1,1.581637013E1
8.271896583E0,-1.408405620E1,-7.735226623E0,-3.788714346E-1,1.607289375E1
8.281842583E0,-1.432994214E1,-7.504868546E0,-3.975171820E-1,1.618110977E1
8.291788083E0,-1.430510200E1,-7.198968535E0,-4.827671012E-1,1.602167766E1
8.301734083E0,-1.376756161E1,-7.360924714E0,-1.363021052E-1,1.561241633E1
8.311680083E0,-1.301575586E1,-7.062109190E0,1.708405848E-1,1.480920232E1
8.321626083E0,-1.034014132E1,-5.284757946E0,3.540839911E-2,1.161242622E1
8.331572083E0,-2.946234797E0,-3.773704689E0,5.286818504E-1,4.816705415E0
8.341518083E0,7.643838735E0,1.023615034E-1,-3.762496161E-1,7.653777646E0
8.351464083E0,1.925701655E1,7.238099856E0,-4.015943724E0,2.096069130E1
8.361410083E0,2.931416900E1,8.711101772E0,-5.214215382E0,3.102244091E1
8.371356083E0,3.886618049E1,9.389026785E0,2.743772031E0,4.007819974E1
8.381302083E0,5.219807074E1,1.110339709E1,1.549362459E1,5.556956378E1
8.391248083E0,7.017105042E1,1.122701775E1,2.325737276E1,7.477250586E1
8.401194083E0,8.348454300E1,9.543266979E0,1.656990053E1,8.564639203E1
8.411140083E0,7.965385895E1,2.903787519E0,5.729400689E0,7.991242244E1
8.421086083E0,7.085718142E1,5.691419515E-1,8.293474334E-1,7.086432035E1
8.431032083E0,5.867981220E1,1.850294383E0,-1.064065779E0,5.871861873E1
8.440978083E0,4.688962222E1,-1.573794319E0,-2.113971941E0,4.696362824E1
8.450924083E0,3.457658122E1,-1.380247242E0,-1.069239981E0,3.462063439E1
8.460870083E0,2.265258121E1,-1.411930087E0,-4.060587946E-1,2.270017326E1
8.470816083E0,1.390929111E1,-8.282403363E-1,-1.375914893E-1,1.393460773E1
8.480762083E0,6.458297635E0,-1.015172239E0,-9.574219946E-1,6.607332283E0
8.490708083E0,2.963253118E0,-2.471260207E0,-1.938796962E0,4.318209086E0
8.500654083E0,1.606070511E0,-1.769936683E0,-2.964920744E0,3.808266451E0
8.510600083E0,-1.074668536E0,-1.360540663E0,-4.008575647E0,4.367454874E0
8.520546083E0,-3.751449017E0,-2.792378765E0,-3.924489763E0,6.105110056E0
8.530492083E0,-6.348444241E0,-3.559095210E0,-3.611839142E0,8.124979076E0
8.540438083E0,-8.369164787E0,-3.798869936E0,-3.544475709E0,9.850768502E0
8.550384083E0,-9.554841542E0,-4.285222330E0,-3.562966944E0,1.106132274E1
8.560330083E0,-1.028663929E1,-5.229163204E0,-3.091583714E0,1.194642146E1
8.570276083E0,-1.097899406E1,-5.894330177E0,-2.110343159E0,1.263863075E1
8.580222083E0,-1.124331862E1,-6.356927381E0,-5.841696612E-1,1.292919152E1
8.590168083E0,-1.097674990E1,-7.188121950E0,1.390162657E0,1.319434302E1
8.600114083E0,-1.069796168E1,-7.939044773E0,3.260917910E0,1.371526163E1
8.610060083E0,-1.026079460E1,-8.998364367E0,4.507107500E0,1.437249057E1
8.620006083E0,-9.923255889E0,-1.123605988E1,4.479276507E0,1.564557341E1
8.629952083E0,-1.035625390E1,-1.399971362E1,3.342008851E0,1.773169477E1
8.639898083E0,-1.152420599E1,-1.623761028E1,1.490477489E0,1.996719396E1
8.649844083E0,-1.280782653E1,-1.832378690E1,-2.355692621E-1,2.235748375E1
8.659790083E0,-1.477833236E1,-1.976234462E1,-1.884385258E0,2.474874300E1
8.669736083E0,-1.705962355E1,-2.009096048E1,-4.047542077E0,2.666570917E1
8.679682083E0,-2.043813306E1,-1.973244897E1,-5.728314861E0,2.898103546E1
8.689628083E0,-2.319096009E1,-1.969110214E1,-8.484794061E0,3.158404445E1
8.699574083E0,-2.514649354E1,-1.936647175E1,-1.083343114E1,3.353758482E1
8.709520083E0,-2.614841160E1,-1.908869860E1,-1.193577747E1,3.450479136E1
8.719466083E0,-2.489279922E1,-1.979060070E1,-1.182501132E1,3.392860478E1
8.729412083E0,-2.200376247E1,-2.020008355E1,-1.029175911E1,3.159318351E1
8.739358083E0,-1.830174523E1,-1.958589436E1,-8.231870994E0,2.804148421E1
8.749304083E0,-1.597333601E1,-1.923752544E1,-6.469517857E0,2.582797920E1
8.759250083E0,-1.423162939E1,-1.874295040E1,-5.515366284E0,2.417140314E1
8.769196083E0,-1.294851873E1,-1.787273034E1,-4.768825949E0,2.257964411E1
8.779142083E0,-1.214327293E1,-1.704013244E1,-4.173274171E0,2.133638696E1
8.789088083E0,-1.146023862E1,-1.614017929E1,-3.876558382E0,2.017102283E1
8.799034083E0,-1.079647674E1,-1.522233717E1,-3.706000949E0,1.902676804E1
8.808980083E0,-1.026560569E1,-1.439068068E1,-3.709256094E0,1.806191937E1
8.818926083E0,-1.023861728E1,-1.350900125E1,-3.968162616E0,1.740886880E1
8.828872083E0,-1.061001488E1,-1.328137031E1,-4.206012731E0,1.751164630E1
8.838818083E0,-1.139298161E1,-1.332695988E1,-4.567855977E0,1.811831112E1
8.848764083E0,-1.146857792E1,-1.314666099E1,-4.817132721E0,1.809883262E1
8.858710083E0,-1.004535160E1,-1.318894337E1,-4.577677546E0,1.719919904E1
8.868656083E0,-7.053916072E0,-1.278091882E1,-4.401305056E0,1.524733104E1
8.878602083E0,-3.045953797E0,-1.077188569E1,-4.495172748E0,1.206308144E1
8.888548083E0,1.367538026E0,-8.404410633E0,-4.283877763E0,9.531835450E0
8.898494083E0,6.700066554E0,-5.788130123E0,-3.884589533E0,9.668680261E0
8.908440083E0,1.410487813E1,-2.646517924E0,-3.614729421E0,1.479925380E1
8.918386083E0,2.205263350E1,-6.539273094E-1,-9.359860289E-1,2.208217234E1
8.928332083E0,3.297958501E1,3.174257788E0,5.811220193E0,3.363776479E1
8.938278083E0,5.422779366E1,1.250159850E1,1.239601064E1,5.701407414E1
8.948224083E0,8.624225830E1,2.094283665E1,1.469789806E1,8.995753293E1
8.958170083E0,9.635114925E1,2.115717452E1,1.271560074E1,9.946283979E1
8.968116083E0,8.340726620E1,1.994101682E1,1.371070329E1,8.684698953E1
8.978062083E0,7.363246644E1,1.371168679E1,1.265264611E1,7.595946236E1
8.988008083E0,7.294777619E1,1.027624879E1,8.000228283E0,7.410116729E1
8.997954083E0,6.923454165E1,6.674000251E0,8.177615849E0,7.003454461E1
9.007900083E0,5.485354865E1,2.165276581E0,1.413192852E1,5.668607964E1
9.017846083E0,4.129409411E1,-2.032432519E0,1.724626667E1,4.479694973E1
9.027792083E0,3.204432052E1,-5.628201758E0,1.532470789E1,3.596333973E1
9.037738083E0,2.380361029E1,-7.808503345E0,1.084011568E1,2.729638612E1
9.047684083E0,1.649719976E1,-9.589310879E0,4.634988737E0,1.963658839E1
9.057630083E0,1.014465486E1,-1.129410636E1,-1.720853693E0,1.527848809E1
9.067576083E0,4.552330450E0,-1.305840428E1,-6.526805953E0,1.529198584E1
9.077522083E0,-3.703895366E-1,-1.494342031E1,-9.205721837E0,1.755529303E1
9.087468083E0,-4.699987848E0,-1.702719606E1,-9.648523877E0,2.012732731E1
9.097414083E0,-8.002448471E0,-1.889135507E1,-8.857937636E0,2.234693574E1
9.107360083E0,-1.007591733E1,-2.075485100E1,-7.593417025E0,2.428884378E1
9.117306083E0,-1.241186595E1,-2.197756461E1,-5.912297502E0,2.592340688E1
9.127252083E0,-1.460721710E1,-2.133227057E1,-5.227247071E0,2.637727565E1
9.137198083E0,-1.658650311E1,-2.073456818E1,-5.849954488E0,2.718926940E1
9.147144083E0,-1.919631660E1,-2.025487898E1,-6.774748946E0,2.871682289E1
9.157090083E0,-2.178938016E1,-1.939112478E1,-7.469847817E0,3.010965683E1
9.167036083E0,-2.326543023E1,-1.803580685E1,-8.163693629E0,3.054859188E1
9.176982083E0,-2.285914931E1,-1.660424707E1,-8.046720665E0,2.937671597E1
9.186928083E0,-2.070401297E1,-1.552613160E1,-6.790846916E0,2.675504658E1
9.196874083E0,-1.731112399E1,-1.486649668E1,-4.952733745E0,2.334988884E1
9.206820083E0,-1.444155730E1,-1.414180330E1,-3.259390617E0,2.047371009E1
9.216766083E0,-1.255243302E1,-1.351932626E1,-1.907085757E0,1.854650192E1
9.226712083E0,-1.149000212E1,-1.317957029E1,-9.849722475E-1,1.751260666E1
9.236658083E0,-1.134732889E1,-1.289757311E1,-5.048072304E-1,1.718615999E1
9.246604083E0,-1.170837691E1,-1.268087880E1,-3.594891572E-1,1.726325606E1
9.256550083E0,-1.221622280E1,-1.264931670E1,-3.476304191E-1,1.758869408E1
9.266496083E0,-1.265466574E1,-1.270398349E1,-3.486975360E-1,1.793469686E1
9.276442083E0,-1.302094702E1,-1.281545130E1,-2.163405472E-1,1.827095117E1
9.286388083E0,-1.320940980E1,-1.280110107E1,-3.127017841E-3,1.839447486E1
9.296333500E0,-1.282819473E1,-1.292506789E1,2.503373919E-1,1.821215607E1
9.306279500E0,-1.221204321E1,-1.321259302E1,3.590295660E-1,1.799543042E1
9.316225500E0,-1.170090066E1,-1.340606686E1,2.798646798E-1,1.779640495E1
9.326171500E0,-1.111904307E1,-1.354163105E1,1.961208755E-1,1.752276672E1
9.336117500E0,-1.034149553E1,-1.373794898E1,2.282308602E-1,1.719679799E1
9.346063500E0,-9.563516471E0,-1.382914683E1,1.665626156E-1,1.681469275E1
9.356009500E0,-8.910916334E0,-1.387199990E1,1.554295353E-1,1.648820698E1
9.365955500E0,-8.280346751E0,-1.398437637E1,4.356842244E-1,1.625782106E1
9.375901500E0,-7.770108188E0,-1.399179532E1,9.523675883E-1,1.603283885E1
9.385847500E0,-7.639046357E0,-1.393031652E1,1.427528704E0,1.595138194E1
9.395793500E0,-7.831509215E0,-1.385770931E1,1.704454007E0,1.600855419E1
9.405739500E0,-8.192832643E0,-1.378637211E1,1.727113137E0,1.612977007E1
9.415685500E0,-9.125961723E0,-1.353874252E1,1.296232985E0,1.637867353E1
9.425631500E0,-1.076454860E1,-1.308454835E1,4.022919818E-1,1.694823740E1
9.435577500E0,-1.184745996E1,-1.249423334E1,-4.460793678E-1,1.722402859E1
9.445523500E0,-1.202458849E1,-1.237828072E1,-9.246401647E-1,1.728199992E1
9.455469500E0,-1.203891768E1,-1.296428165E1,-7.837478491E-1,1.770938729E1
9.465415500E0,-1.181465240E1,-1.303909795E1,-2.752611852E-1,1.759772301E1
9.475361500E0,-9.835098588E0,-1.330493576E1,5.949846712E-1,1.655610119E1
9.485306500E0,-6.250708031E0,-1.273344060E1,6.402877287E-1,1.419936015E1
9.495253500E0,-1.581725044E0,-1.113401311E1,-1.471230648E0,1.134163223E1
9.505198500E0,5.110478175E0,-1.090681837E1,-3.994894917E0,1.268995113E1
9.515145500E0,1.304050479E1,-9.986389446E0,-5.695918947E0,1.738465507E1
9.525090500E0,1.955932695E1,-8.798579042E0,-6.040574888E0,2.228162492E1
9.535036500E0,2.478239443E1,-8.069391489E0,-4.820697184E0,2.650511789E1
9.544983500E0,3.738573565E1,-5.167309602E0,-2.296496286E0,3.781095362E1
9.554928500E0,5.946291342E1,1.959401965E-1,-1.154613861E-1,5.946334835E1
9.564874500E0,7.820521829E1,2.363165070E0,-6.814470252E0,7.853711047E1
9.574820500E0,9.751845932E1,5.749730873E0,-1.982669206E1,9.967952162E1
9.584766500E0,8.303324086E1,5.474581370E0,1.311399727E1,8.424053094E1
9.594712500E0,5.371912332E1,-4.326189385E0,2.530124127E1,5.953665203E1
9.604658500E0,5.038225768E1,-7.292289512E0,1.267713191E1,5.246197717E1
9.614604500E0,5.324661216E1,-4.808753076E0,4.633263516E0,5.366370229E1
9.624550500E0,5.104430283E1,-4.089281842E0,-2.103629752E-1,5.120827403E1
9.634496500E0,4.472500637E1,-3.910781258E0,-6.016948263E-1,4.489969311E1
9.644442500E0,3.774866765E1,-4.977854553E0,2.086005878E-1,3.807603524E1
9.654388500E0,3.078611432E1,-6.156111192E0,9.356457210E-1,3.140952042E1
9.664334500E0,2.418265020E1,-7.261913227E0,1.418908739E0,2.528931111E1
9.674280500E0,1.803636701E1,-8.736628962E0,1.364313287E0,2.008732365E1
9.684226500E0,1.160151437E1,-1.072560030E1,7.720090520E-1,1.581864834E1
9.694172500E0,4.901937228E0,-1.212086406E1,3.182697952E-1,1.307844142E1
9.704118500E0,-9.797483450E-1,-1.339109331E1,8.314740658E-4,1.342688674E1
9.714064500E0,-5.681265240E0,-1.518952845E1,-8.011387110E-2,1.621742789E1
9.724010500E0,-9.647695912E0,-1.647297591E1,1.979165737E-1,1.909125828E1
9.733956500E0,-1.216950588E1,-1.698277827E1,9.486288786E-2,2.089307613E1
9.743902500E0,-1.347059323E1,-1.724100418E1,-6.737769985E-1,2.188979402E1
9.753848500E0,-1.450833835E1,-1.716069033E1,-1.790283532E0,2.254298759E1
9.763794500E0,-1.606760833E1,-1.709894023E1,-3.693290856E0,2.375251969E1
9.773740500E0,-1.843804968E1,-1.713882408E1,-6.103554078E0,2.590278632E1
9.783686500E0,-2.132249870E1,-1.710198429E1,-8.050469899E0,2.849450619E1
9.793632500E0,-2.433536778E1,-1.677026824E1,-8.780613472E0,3.083101028E1
9.803578500E0,-2.667621637E1,-1.596799516E1,-8.150917463E0,3.214085943E1
9.813524500E0,-2.732327159E1,-1.554191090E1,-6.277810460E0,3.205500068E1
9.823470500E0,-2.593114778E1,-1.556474311E1,-3.143909277E0,3.040673969E1
9.833416500E0,-2.298703727E1,-1.519609721E1,-2.193001885E-2,2.755586569E1
9.843362500E0,-1.964688550E1,-1.470650283E1,2.158849322E0,2.463619219E1
9.853308500E0,-1.647563639E1,-1.404043480E1,3.429452206E0,2.191669561E1
9.863254500E0,-1.354611703E1,-1.335442425E1,4.106591939E0,1.946026801E1
9.873200500E0,-1.119961887E1,-1.268848019E1,4.087601352E0,1.741084366E1
9.883146500E0,-9.824763050E0,-1.216891181E1,3.108540055E0,1.594588990E1
9.893092500E0,-9.212751360E0,-1.199801874E1,1.677349824E0,1.521974848E1
9.903038500E0,-9.391822924E0,-1.168465008E1,2.548222246E-1,1.499340921E1
9.912984500E0,-1.014511095E1,-1.122009348E1,-1.019053913E0,1.516087875E1
9.922930500E0,-1.100239696E1,-1.092572125E1,-2.056359326E0,1.564137901E1
9.932876500E0,-1.160020693E1,-1.068127022E1,-2.924086128E0,1.603760001E1
9.942822500E0,-1.185327443E1,-1.032291308E1,-3.494669126E0,1.610202973E1
9.952768500E0,-1.180740887E1,-9.760467067E0,-3.659040205E0,1.575024434E1
9.962714500E0,-1.136882559E1,-9.173142906E0,-3.497094551E0,1.502086603E1
9.972660500E0,-1.072378415E1,-8.774339994E0,-3.172084086E0,1.421445413E1
9.982606500E0,-1.007637459E1,-8.475624458E0,-2.916463698E0,1.348611491E1
9.992552500E0,-9.659864552E0,-8.183958324E0,-2.710495527E0,1.294746859E1
1.000249850E1,-9.339655235E0,-8.215132170E0,-2.536535014E0,1.269454869E1
1.001244450E1,-9.082860727E0,-8.442848475E0,-2.125731862E0,1.258168452E1
1.002239050E1,-9.242378617E0,-8.342382200E0,-1.377733816E0,1.252657390E1
1.003233650E1,-9.893500578E0,-8.031376401E0,-5.008391637E-1,1.275285068E1
1.004228250E1,-1.064488416E1,-7.865245310E0,1.772425916E-1,1.323658028E1
1.005222850E1,-1.153360247E1,-7.824747494E0,4.899574953E-1,1.394599289E1
1.006217450E1,-1.280156767E1,-7.445395930E0,4.964666158E-1,1.481757519E1
1.007212050E1,-1.393091411E1,-6.550887126E0,5.323316824E-1,1.540350178E1
1.008206650E1,-1.380318753E1,-5.781085982E0,3.320176955E-1,1.496860638E1
1.009201250E1,-1.240700107E1,-5.256794806E0,-8.215630352E-2,1.347495146E1
1.010195850E1,-1.087727590E1,-4.845572408E0,-4.773426392E-1,1.191732180E1
1.011190450E1,-9.564083067E0,-3.405670703E0,4.148628742E-1,1.016082620E1
1.012185050E1,-5.937199039E0,-5.703130026E-1,1.747233991E0,6.215176262E0
1.013179650E1,5.540277761E-1,2.387101670E0,1.293991163E0,2.771211701E0
1.014174250E1,8.300812005E0,4.701389426E0,-4.780882323E-1,9.551707221E0
1.015168850E1,1.850535230E1,5.408617761E0,1.275649617E0,1.932171037E1
1.016163450E1,3.274386971E1,5.368774248E0,9.128153844E0,3.441377534E1
1.017158050E1,5.131969265E1,6.042573466E0,2.041698719E1,5.556146969E1
1.018152650E1,7.272781330E1,8.371793110E0,2.887112079E1,7.869538336E1
1.019147250E1,8.913602194E1,9.591749167E0,2.941697474E1,9.435353974E1
1.020141850E1,9.282407135E1,6.970586232E0,2.671912323E1,9.684425043E1
1.021136450E1,8.368389095E1,1.789421944E-1,2.419616896E1,8.711188333E1
1.022131050E1,6.793888754E1,-5.567882466E0,2.056074449E1,7.119998574E1
1.023125650E1,5.234009259E1,-9.023050727E0,1.690562309E1,5.573778637E1
1.024120250E1,4.085640429E1,-1.113690163E1,1.379868985E1,4.453852480E1
1.025114850E1,3.242993504E1,-1.223242192E1,1.097316790E1,3.635578697E1
1.026109450E1,2.720785691E1,-1.219132184E1,6.855149916E0,3.059230109E1
1.027104050E1,2.038339844E1,-1.111653929E1,8.588815735E-1,2.323355451E1
1.028098650E1,1.353406592E1,-1.164261094E1,-5.234240926E0,1.860426317E1
1.029093250E1,8.856844207E0,-1.093532238E1,-8.465167882E0,1.642205931E1
1.030087933E1,2.150386646E0,-1.066732461E1,-1.047374668E1,1.510348790E1
1.031082533E1,-4.174360583E0,-1.190886157E1,-1.017463471E1,1.621016538E1
1.032077133E1,-9.170509320E0,-1.238865017E1,-8.292027149E0,1.750241722E1
1.033071733E1,-1.202821376E1,-1.315516869E1,-5.804935021E0,1.874656395E1
1.034066333E1,-1.374562520E1,-1.381029073E1,-3.654592813E0,1.982479233E1
1.035060933E1,-1.529507537E1,-1.464041526E1,-2.660607668E0,2.133916405E1
1.036055533E1,-1.719409548E1,-1.536413917E1,-2.403947645E0,2.318345651E1
1.037050133E1,-1.912970161E1,-1.563000505E1,-2.577342147E0,2.483717444E1
1.038044733E1,-2.035313793E1,-1.568718614E1,-2.241920130E0,2.579465523E1
1.039039333E1,-2.095345051E1,-1.534043690E1,-1.141360635E0,2.599382228E1
1.040033933E1,-2.063275646E1,-1.479211542E1,3.268073878E-1,2.538944901E1
1.041028533E1,-1.943292418E1,-1.422923437E1,1.495477443E0,2.413184837E1
1.042023133E1,-1.747669141E1,-1.409560795E1,2.059746033E0,2.254691686E1
1.043017733E1,-1.572740212E1,-1.403580263E1,2.274913629E0,2.120212643E1
1.044012333E1,-1.446334052E1,-1.373560307E1,2.429778889E0,2.009375117E1
1.045006933E1,-1.331181325E1,-1.363317038E1,2.322571945E0,1.919536525E1
1.046001533E1,-1.267953395E1,-1.379607264E1,1.685127205E0,1.881334247E1
1.046996133E1,-1.277462254E1,-1.398377294E1,8.053779423E-1,1.895746608E1
1.047990733E1,-1.307388420E1,-1.413258925E1,5.670863628E-2,1.925252563E1
1.048985333E1,-1.329685374E1,-1.409605585E1,-5.708964086E-1,1.938636203E1
1.049979933E1,-1.316651696E1,-1.394507373E1,-9.195623696E-1,1.920072512E1
1.050974533E1,-1.270639722E1,-1.365485069E1,-1.040853503E0,1.868129689E1
1.051969133E1,-1.206012553E1,-1.335919675E1,-1.102253945E0,1.803135406E1
1.052963733E1,-1.155216738E1,-1.320757845E1,-1.088283777E0,1.758058762E1
1.053958333E1,-1.115570394E1,-1.303814719E1,-9.744372460E-1,1.718698753E1
1.054952933E1,-1.077604773E1,-1.278306358E1,-6.793692756E-1,1.673294540E1
1.055947533E1,-1.033160906E1,-1.271093232E1,-2.696993136E-1,1.638238945E1
1.056942133E1,-1.010953298E1,-1.280685707E1,1.742002487E-1,1.631712569E1
1.057936733E1,-1.009409282E1,-1.305764648E1,4.922150322E-1,1.651166609E1
1.058931333E1,-1.008033315E1,-1.327964304E1,5.992777701E-1,1.668296046E1
1.059925933E1,-1.022184045E1,-1.322210995E1,7.916638827E-1,1.673131631E1
1.060920533E1,-1.050544210E1,-1.309993589E1,8.460850883E-1,1.681334274E1
1.061915133E1,-1.081286765E1,-1.304756355E1,7.684621310E-1,1.696312340E1
1.062909733E1,-1.104221884E1,-1.259587900E1,5.998658538E-1,1.676146186E1
1.063904333E1,-1.096192487E1,-1.199139619E1,2.863650477E-1,1.624928873E1
1.064898933E1,-1.089684302E1,-1.146433869E1,8.768723963E-2,1.581707743E1
1.065893533E1,-1.103250778E1,-1.104281876E1,-1.723268008E-1,1.561056600E1
1.066888133E1,-1.158125494E1,-1.072976936E1,-6.237119687E-1,1.580007700E1
1.067882733E1,-1.202101233E1,-1.036110826E1,-1.136670656E0,1.591066693E1
1.068877333E1,-1.167487003E1,-9.951695577E0,-1.307813981E0,1.539640258E1
1.069871933E1,-9.829143784E0,-8.364342588E0,-1.421794925E0,1.298444436E1
1.070866433E1,-6.535644019E0,-6.626957062E0,-2.140174484E0,9.550473783E0
1.071861033E1,-3.624498364E0,-5.021549041E0,-3.810382519E0,7.271310618E0
1.072855633E1,-7.395412177E-1,-3.980009660E0,-4.034157801E0,5.715052692E0
1.073850233E1,3.480562134E0,-3.436972895E0,2.992195666E-1,4.900676259E0
1.074844833E1,1.690330175E1,-2.421200001E0,5.672873901E0,1.799347987E1
1.075839433E1,4.407702261E1,-1.184035734E0,7.167069050E0,4.467161002E1
1.076834033E1,8.170349982E1,-2.030848508E0,4.306268506E0,8.184210516E1
1.077828633E1,1.131527352E2,-2.052811235E-1,-4.656763476E-1,1.131538796E2
1.078823233E1,1.220642661E2,-3.216822302E-1,-6.376622558E-1,1.220663555E2
1.079817833E1,1.128709181E2,-7.450448509E0,1.068518785E1,1.136200976E2
1.080812433E1,8.742072018E1,-6.775492712E0,2.100692915E1,9.016418740E1
1.081807033E1,6.456069846E1,-9.858445351E0,2.289674691E1,6.920645743E1
1.082801633E1,4.258227782E1,-9.859587897E0,1.473053605E1,4.612429458E1
1.083796233E1,2.653174102E1,-1.082094266E1,4.486161604E0,2.900261588E1
1.084790833E1,1.477846451E1,-9.106339052E0,9.240155359E-1,1.738338945E1
1.085785433E1,6.887659850E0,-8.150878286E0,-2.929771522E-1,1.067532251E1
1.086780033E1,-3.883138838E0,-8.472120806E0,-2.199015454E0,9.575555710E0
1.087774633E1,-1.521491589E1,-1.084957764E1,-4.567432054E0,1.923716289E1
1.088769233E1,-1.290470437E1,-8.443659484E0,-4.476234201E0,1.605812732E1
1.089763833E1,-7.533474294E0,-4.124285613E0,-6.146687234E0,1.056147389E1
1.090758433E1,-7.511074196E0,-3.975408778E0,-9.557758133E0,1.278948205E1
1.091753033E1,-9.942398504E0,-3.391349995E0,-1.056342660E1,1.489760130E1
1.092747633E1,-1.326171665E1,-4.253502647E0,-8.987521876E0,1.657531184E1
1.093742233E1,-1.481166149E1,-5.889814957E0,-5.736897989E0,1.694069759E1
1.094736833E1,-1.466559921E1,-7.853871891E0,-1.714655060E0,1.672432797E1
1.095731433E1,-1.464313070E1,-9.777270795E0,2.138922011E0,1.773672147E1
1.096726033E1,-1.480362742E1,-1.069399376E1,5.478986077E0,1.906641486E1
1.097720633E1,-1.393427743E1,-1.050546783E1,7.010183576E0,1.880615898E1
1.098715233E1,-1.268356502E1,-1.022906059E1,6.948714137E0,1.771415056E1
1.099709833E1,-1.266668995E1,-9.381427744E0,7.426455045E0,1.742436384E1
1.100704433E1,-1.346057811E1,-8.999406341E0,7.650802184E0,1.790841288E1
1.101699033E1,-1.417992013E1,-9.782751390E0,6.891058252E0,1.855421902E1
1.102693633E1,-1.428360646E1,-1.034558390E1,5.298487208E0,1.841538722E1
1.103688233E1,-1.408597993E1,-1.069852652E1,3.745985963E0,1.808053404E1
1.104682833E1,-1.361303374E1,-1.137712162E1,2.248648375E0,1.788323247E1
1.105677433E1,-1.318473922E1,-1.248253073E1,9.083998887E-1,1.817900196E1
1.106672033E1,-1.301227677E1,-1.402448476E1,-7.885555029E-3,1.913127235E1
1.107666633E1,-1.384622772E1,-1.548505959E1,-5.713419664E-1,2.078055640E1
1.108661233E1,-1.492299716E1,-1.641324894E1,-9.783878441E-1,2.220468031E1
1.109655833E1,-1.579539004E1,-1.722666681E1,-1.109243706E0,2.339835074E1
1.110650433E1,-1.710761165E1,-1.792024949E1,-1.122780011E0,2.480053131E1
1.111645033E1,-1.867193245E1,-1.844148667E1,-1.046042249E0,2.626449498E1
1.112639633E1,-2.005590057E1,-1.890539540E1,-6.211532271E-1,2.756880401E1
1.113634233E1,-2.126809620E1,-1.907047400E1,4.696156899E-1,2.856983433E1
1.114628833E1,-2.157761272E1,-1.909782493E1,1.096873410E0,2.883614778E1
1.115623433E1,-2.125301974E1,-1.996966583E1,1.300976247E0,2.919196706E1
1.116618033E1,-2.098696909E1,-2.091800469E1,1.659127561E0,2.967774412E1
1.117612633E1,-2.025574905E1,-2.127614899E1,2.024159878E0,2.944600327E1
1.118607233E1,-1.832366995E1,-2.140439480E1,2.554266111E0,2.829185877E1
1.119601833E1,-1.526100013E1,-2.150991365E1,3.139906858E0,2.655999860E1
1.120596433E1,-1.190395575E1,-2.096719615E1,2.895544699E0,2.428397941E1
1.121591033E1,-8.838279297E0,-1.996024246E1,2.110910486E0,2.193131102E1
1.122585633E1,-6.348737186E0,-1.923601569E1,1.261886587E0,2.029588927E1
1.123580233E1,-4.344404047E0,-1.818639604E1,4.814926274E-1,1.870429583E1
1.124574833E1,-2.489437446E0,-1.624842880E1,-7.954739285E-1,1.645726332E1
1.125569433E1,-1.025442581E0,-1.477434456E1,-2.681472287E0,1.505068382E1
1.126564033E1,6.457594800E-1,-1.445199692E1,-4.362491823E0,1.510988270E1
1.127558633E1,3.775406229E0,-1.214811677E1,-4.267954918E0,1.341811732E1
1.128553233E1,1.107446038E1,-9.958723930E0,-2.769794480E0,1.514898071E1
1.129547800E1,2.025709625E1,-6.958279012E0,-2.273360023E0,2.153916806E1
1.130542400E1,3.135104891E1,-2.528158585E0,2.410888144E-1,3.145374345E1
1.131537000E1,4.578674847E1,2.956273589E0,5.397602191E0,4.619848480E1
1.132531600E1,6.304410848E1,6.772308903E0,8.876591424E0,6.402513301E1
1.133526200E1,7.541858500E1,9.136123599E0,7.497195829E0,7.633897866E1
1.134520800E1,8.410990505E1,1.089690383E1,5.298958493E0,8.497821840E1
1.135515400E1,8.631682199E1,1.040760181E1,4.776724952E0,8.707312465E1
1.136510000E1,7.830093019E1,5.928377345E0,4.210556018E0,7.863784145E1
1.137504600E1,6.472978123E1,2.744878324E0,3.876741400E0,6.490383701E1
1.138499200E1,5.021489634E1,3.778795275E-1,2.721439760E0,5.029000737E1
1.139493800E1,3.981848609E1,-8.659454486E-1,1.761617557E0,3.986684077E1
1.140488400E1,3.258009622E1,-2.079301607E0,1.420722545E0,3.267727983E1
1.141483000E1,2.615027803E1,-2.997787358E0,1.044238894E0,2.634225133E1
1.142477600E1,2.070656236E1,-3.852778925E0,1.716257197E0,2.113175735E1
1.143472200E1,1.557789934E1,-4.618626766E0,2.675454918E0,1.646695844E1
1.144466800E1,1.035636383E1,-5.235796870E0,2.773571196E0,1.193149353E1
1.145461400E1,4.363362474E0,-6.404703226E0,1.694229566E0,7.932815976E0
1.146456000E1,-4.223864865E-1,-7.570812274E0,2.556771789E-1,7.586895258E0
1.147450600E1,-2.393485807E0,-8.363144494E0,-7.644883633E-1,8.732433944E0
1.148445200E1,-4.858397691E0,-8.791508589E0,-2.218509048E0,1.028671151E1
1.149439800E1,-6.698950320E0,-9.574196995E0,-3.100164503E0,1.208934256E1
1.150434400E1,-8.575210142E0,-1.054657843E1,-3.759522852E0,1.410313999E1
1.151429000E1,-1.104999096E1,-1.185084900E1,-4.077563437E0,1.670842440E1
1.152423600E1,-1.389076479E1,-1.269234753E1,-4.217967364E0,1.928316055E1
1.153418200E1,-1.601938517E1,-1.314767840E1,-3.641598546E0,2.104146831E1
1.154412800E1,-1.722376425E1,-1.364585650E1,-2.417041900E0,2.210677602E1
1.155407400E1,-1.769602865E1,-1.371152073E1,-9.546544343E-1,2.240684261E1
1.156402000E1,-1.668685420E1,-1.339578161E1,8.348110718E-1,2.141483078E1
1.157396600E1,-1.462525460E1,-1.318493803E1,2.396800593E0,1.983646430E1
1.158391100E1,-1.196586139E1,-1.354810392E1,4.031385051E0,1.851985486E1
1.159385800E1,-9.485697632E0,-1.414295286E1,5.375486267E0,1.785769940E1
1.160380300E1,-8.842172958E0,-1.479307319E1,5.666731401E0,1.814196466E1
1.161374900E1,-1.025405159E1,-1.599536013E1,5.003681704E0,1.964774670E1
1.162369500E1,-1.258212284E1,-1.735491729E1,4.136475304E0,2.183147722E1
1.163364100E1,-1.526979668E1,-1.822034497E1,2.798471564E0,2.393698195E1
1.164358700E1,-1.734327900E1,-1.873217749E1,1.196326289E0,2.555611466E1
1.165353300E1,-1.842609797E1,-1.898773589E1,1.565942824E-1,2.645901968E1
1.166347900E1,-1.888381216E1,-1.871300564E1,-3.014555418E-1,2.658694825E1
1.167342500E1,-1.852568190E1,-1.832021074E1,-6.064112270E-1,2.606144174E1
1.168337100E1,-1.759602840E1,-1.793872669E1,-7.527353136E-1,2.513930670E1
1.169331700E1,-1.614451793E1,-1.739158869E1,-9.007704417E-1,2.374708832E1
1.170326300E1,-1.429656389E1,-1.681772892E1,-1.285060272E0,2.211061114E1
1.171320900E1,-1.266630170E1,-1.626994772E1,-1.803514026E0,2.069780327E1
1.172315500E1,-1.141068230E1,-1.600697855E1,-1.676365153E0,1.972909610E1
1.173310100E1,-1.094382189E1,-1.586627934E1,-7.301289546E-1,1.928831631E1
1.174304700E1,-1.135028173E1,-1.561928827E1,2.813317645E-1,1.930984747E1
1.175299300E1,-1.246602287E1,-1.544738013E1,1.118373549E0,1.988149990E1
1.176293900E1,-1.349207122E1,-1.539988203E1,1.808885279E0,2.055393924E1
1.177288500E1,-1.425878152E1,-1.501220812E1,2.303931606E0,2.083236290E1
1.178283100E1,-1.441717558E1,-1.459955608E1,2.546994513E0,2.067581124E1
1.179277700E1,-1.363391882E1,-1.409361288E1,2.034015945E0,1.971423058E1
1.180272300E1,-1.182627432E1,-1.321269593E1,9.893757856E-1,1.775992575E1
1.181266900E1,-9.460506658E0,-1.209713256E1,-1.931113136E-1,1.535835585E1
1.182261500E1,-7.507790399E0,-1.100554042E1,-1.166721909E0,1.337348409E1
1.183256100E1,-5.791367142E0,-9.876570550E0,-1.916822541E0,1.160865142E1
1.184250700E1,-3.439645073E0,-8.373664804E0,-2.634661818E0,9.428195128E0
1.185245300E1,5.734335154E-1,-6.390886840E0,-2.963380587E0,7.067806244E0
1.186239900E1,6.147625127E0,-3.876021023E0,-1.861899644E0,7.502233265E0
1.187234500E1,1.104331578E1,-8.620900869E-2,-5.475812209E-1,1.105721938E1
1.188229100E1,1.626988925E1,2.377702271E0,-3.005995826E-1,1.644545908E1
1.189223700E1,2.225848122E1,3.403395259E0,1.531888640E-1,2.251769420E1
1.190218300E1,3.277903486E1,5.147358903E0,1.008456420E0,3.319604517E1
1.191212900E1,5.002603127E1,9.543155297E0,1.516888193E0,5.095072686E1
1.192207500E1,7.495717887E1,1.577719350E1,-7.981754590E0,7.701432922E1
1.193202100E1,7.735802223E1,1.599100513E1,-1.003338937E0,7.899988947E1
1.194196700E1,7.493614760E1,1.120169580E1,5.128908598E-1,7.577049072E1
1.195191300E1,7.313339021E1,6.668933054E0,-2.671631423E0,7.348540703E1
1.196185900E1,6.566351140E1,2.015000654E0,-1.540240803E0,6.571247445E1
1.197180500E1,5.404157154E1,-1.018408088E0,2.104085469E0,5.409210464E1
1.198175100E1,4.314364795E1,-3.085235977E0,6.663299847E0,4.376405607E1
1.199169700E1,3.638593896E1,-3.353383439E0,7.291508324E0,3.726053982E1
1.200164300E1,3.147187577E1,-3.707494035E0,5.360362444E0,3.213966338E1
1.201158900E1,2.553874815E1,-4.293075726E0,2.579459424E0,2.602521407E1
1.202153500E1,1.775041010E1,-5.416843039E0,-4.738348763E-2,1.855859618E1
1.203148100E1,9.761205570E0,-6.915835828E0,-2.247645139E0,1.217217434E1
1.204142700E1,2.694320959E0,-8.804413394E0,-3.052303873E0,9.700186574E0
1.205137300E1,-3.994590862E0,-1.082941995E1,-2.797375796E0,1.187680108E1
1.206131900E1,-9.218531333E0,-1.216105549E1,-2.398562944E0,1.544751419E1
1.207126500E1,-1.243942388E1,-1.316436168E1,-1.927111886E0,1.821410017E1
1.208121100E1,-1.453395617E1,-1.409574712E1,-1.591166543E0,2.030905659E1
1.209115700E1,-1.712768046E1,-1.494924297E1,-2.009547687E0,2.282269890E1
1.210110300E1,-2.008791759E1,-1.580395504E1,-2.626508460E0,2.569412334E1
1.211104900E1,-2.292340086E1,-1.631243125E1,-2.796742542E0,2.827365362E1
1.212099500E1,-2.395439595E1,-1.663512505E1,-1.968603144E0,2.923039290E1
1.213094100E1,-2.365612013E1,-1.629460426E1,-6.203661919E-2,2.872507608E1
1.214088700E1,-2.167160320E1,-1.548863458E1,2.056173384E0,2.671673699E1
1.215083300E1,-1.805672351E1,-1.475266542E1,3.671166161E0,2.360431871E1
1.216077900E1,-1.420117709E1,-1.420263773E1,4.345727856E0,2.054929926E1
1.217072500E1,-1.115872929E1,-1.403652301E1,4.306377264E0,1.844142355E1
1.218067100E1,-9.834605083E0,-1.404260294E1,3.494499557E0,1.749644769E1
1.219061700E1,-1.033493495E1,-1.443364134E1,1.847882699E0,1.784812464E1
1.220056300E1,-1.211414678E1,-1.489970653E1,3.695966907E-1,1.920651995E1
1.221050900E1,-1.443432312E1,-1.524031619E1,-4.930746460E-1,2.099666746E1
1.222045500E1,-1.688216874E1,-1.547497899E1,-1.255245173E0,2.293595946E1
1.223040100E1,-1.836771118E1,-1.552633275E1,-1.795934865E0,2.411773631E1
1.224034700E1,-1.853214658E1,-1.525263394E1,-1.964075060E0,2.408196191E1
1.225029300E1,-1.786234101E1,-1.471929186E1,-2.394494451E0,2.326917237E1
1.226023900E1,-1.612664884E1,-1.396321647E1,-3.309264443E0,2.158683506E1
1.227018500E1,-1.430014941E1,-1.327967696E1,-3.957301998E0,1.991241653E1
1.228013100E1,-1.310611990E1,-1.288100444E1,-3.894189491E0,1.878444479E1
1.229007700E1,-1.244149263E1,-1.232277076E1,-3.206415428E0,1.780231777E1
1.230002333E1,-1.186487530E1,-1.177732143E1,-2.443098847E0,1.689524484E1
1.230996933E1,-1.111071195E1,-1.118516689E1,-1.761767246E0,1.586378587E1
1.231991533E1,-1.043518781E1,-1.015439749E1,-1.180370407E0,1.460815551E1
1.232986033E1,-1.074622343E1,-9.403426723E0,-6.472329783E-1,1.429421780E1
1.233980633E1,-1.188216552E1,-9.302547635E0,9.251464605E-3,1.509050481E1
1.234975233E1,-1.288585880E1,-9.069060128E0,9.322215915E-1,1.578487395E1
1.235969833E1,-1.315934594E1,-8.560238346E0,1.836418648E0,1.580564771E1
1.236964433E1,-1.241736701E1,-7.662767926E0,2.206829234E0,1.475734092E1
1.237959033E1,-1.163563755E1,-6.701039531E0,2.071656811E0,1.358616038E1
1.238953633E1,-1.107310851E1,-5.898959418E0,1.927802442E0,1.269361558E1
1.239948233E1,-9.849204412E0,-5.147611502E0,2.238688374E0,1.133650993E1
1.240942833E1,-6.934596620E0,-4.292920482E0,3.286282547E0,8.793034147E0
1.241937433E1,-1.512633759E0,-2.105406794E0,4.211095716E0,4.945111301E0
1.242932033E1,4.455262578E0,1.352599852E0,4.512743046E0,6.484114496E0
1.243926633E1,1.011567372E1,3.998835063E0,4.636698171E0,1.182440302E1
1.244921233E1,1.597756238E1,6.890622050E0,4.523103143E0,1.797836572E1
1.245915833E1,2.091428352E1,7.701214539E0,4.250365616E0,2.268879831E1
1.246910433E1,2.535037893E1,5.988636410E0,5.060247084E0,2.653510087E1
1.247905033E1,3.337486380E1,3.974138179E0,7.803491696E0,3.450463434E1
1.248899633E1,4.639257614E1,2.337619754E0,1.099454649E1,4.773484723E1
1.249894233E1,6.259727829E1,8.354902259E-1,1.144914646E1,6.364118358E1
1.250888833E1,7.462949155E1,-3.296285963E-1,8.000506611E0,7.505782950E1
1.251883433E1,7.612745932E1,-2.629462181E0,4.426760910E0,7.630137840E1
1.252878033E1,6.947899737E1,-5.888637328E0,5.681259978E0,6.995915837E1
1.253872633E1,6.204023978E1,-9.808969721E0,1.168160017E1,6.388792548E1
1.254867233E1,5.505435139E1,-1.294612488E1,1.648691333E1,5.891011855E1
1.255861833E1,4.901759707E1,-1.577622403E1,1.384213700E1,5.332184190E1
1.256856433E1,4.140496668E1,-1.668353999E1,5.828616244E0,4.501871322E1
1.257851033E1,3.238642006E1,-1.705415757E1,-2.217741308E0,3.666937239E1
1.258845633E1,2.251483719E1,-1.640410273E1,-7.467553369E0,2.884054148E1
1.259840233E1,1.379562591E1,-1.477719800E1,-9.483008498E0,2.232962886E1
1.260834833E1,7.456446583E0,-1.358234053E1,-9.876529620E0,1.837455870E1
1.261829433E1,2.768368928E0,-1.302845484E1,-8.845070254E0,1.598873885E1
1.262824033E1,-1.318858202E0,-1.299121159E1,-7.040274518E0,1.483497323E1
1.263818633E1,-5.312962575E0,-1.277276897E1,-5.726418024E0,1.497207607E1
1.264813233E1,-7.676404218E0,-1.263056234E1,-4.473899993E0,1.544260561E1
1.265807833E1,-8.649834647E0,-1.219619141E1,-2.874314629E0,1.522591241E1
1.266802433E1,-9.093619604E0,-1.186168506E1,-1.126586548E0,1.498875202E1
1.267797033E1,-9.190765244E0,-1.206116516E1,8.707568300E-1,1.518881458E1
1.268791633E1,-9.724535927E0,-1.261849252E1,2.361115036E0,1.610490040E1
1.269786233E1,-1.125997617E1,-1.354913420E1,2.090551504E0,1.774081470E1
1.270780833E1,-1.310105387E1,-1.535343175E1,1.600538460E0,2.024665904E1
1.271775433E1,-1.466550917E1,-1.746595124E1,1.697944887E0,2.286962240E1
1.272770033E1,-1.693609059E1,-1.878134321E1,1.146879895E0,2.531571352E1
1.273764633E1,-1.938667972E1,-1.961030532E1,1.868044885E-1,2.757611868E1
1.274759233E1,-2.076609403E1,-1.976504837E1,-2.435096165E-1,2.866961973E1
1.275753833E1,-2.046824154E1,-1.948797689E1,-5.639754614E-2,2.826187070E1
1.276748433E1,-1.921364658E1,-1.971301517E1,3.070840716E-1,2.752928409E1
1.277743033E1,-1.817076994E1,-2.000738505E1,4.961865342E-1,2.703180604E1
1.278737633E1,-1.735717081E1,-2.022695268E1,3.509276640E-1,2.665565875E1
1.279732233E1,-1.660223095E1,-2.034635984E1,-1.693400796E-1,2.626094262E1
1.280726833E1,-1.624911760E1,-2.015887004E1,-8.411933076E-1,2.590601224E1
1.281721433E1,-1.624436732E1,-1.983823914E1,-1.108057964E0,2.566443053E1
1.282716033E1,-1.633125227E1,-1.920322918E1,-6.932692766E-1,2.521813700E1
1.283710633E1,-1.607987462E1,-1.835655235E1,5.607128978E-2,2.440345316E1
1.284705233E1,-1.550657734E1,-1.781309810E1,6.837463550E-1,2.362684731E1
1.285699833E1,-1.462692690E1,-1.735537338E1,1.087637148E0,2.272309244E1
1.286694433E1,-1.346189023E1,-1.683990390E1,1.309622963E0,2.159907322E1
1.287689033E1,-1.210101978E1,-1.622078901E1,1.260588505E0,2.027653223E1
1.288683633E1,-1.076940413E1,-1.567801069E1,1.003420798E0,1.904696663E1
1.289678233E1,-9.923223145E0,-1.494502479E1,6.547045505E-1,1.795139999E1
1.290672833E1,-9.566138948E0,-1.405314197E1,4.564242983E-1,1.700617937E1
1.291667433E1,-9.616317413E0,-1.326157749E1,5.319418193E-1,1.638981269E1
1.292662033E1,-9.773305798E0,-1.258423719E1,8.243932338E-1,1.595494143E1
1.293656633E1,-9.530242306E0,-1.177200281E1,1.471963012E0,1.521749794E1
1.294651233E1,-9.233338237E0,-1.087951188E1,1.992748782E0,1.440796174E1
1.295645833E1,-9.286522171E0,-1.014663590E1,2.071706220E0,1.390991304E1
1.296640333E1,-9.582417596E0,-9.647043947E0,1.906925836E0,1.373042425E1
1.297634933E1,-9.181560557E0,-9.198263714E0,1.679102527E0,1.310452193E1
1.298629533E1,-7.936672558E0,-8.290557159E0,1.603693325E0,1.158861258E1
1.299624133E1,-5.495958205E0,-6.188321164E0,1.569906359E0,8.424101222E0
1.300618733E1,-8.228137547E-1,-3.759402400E0,1.678812943E0,4.198635704E0
1.301613333E1,4.365248786E0,3.362901829E-1,2.101914983E0,4.856597023E0
1.302607933E1,1.001416957E1,4.582043954E0,3.551108791E0,1.157104544E1
1.303602533E1,1.675720789E1,7.880421758E0,5.186502503E0,1.923031127E1
1.304597133E1,2.671754215E1,1.167002035E1,6.376806160E0,2.984426394E1
1.305591733E1,4.089050993E1,1.627492604E1,6.998891433E0,4.456334258E1
1.306586333E1,5.292206363E1,1.876104285E1,7.953925352E0,5.670966828E1
1.307580933E1,6.018830496E1,1.915625967E1,9.757907740E0,6.391252696E1
1.308575533E1,6.708831413E1,1.818291811E1,9.436495067E0,7.014633165E1
1.309570133E1,7.132154390E1,1.667405347E1,6.162563009E0,7.350349560E1
1.310564733E1,7.154611908E1,1.318829550E1,2.844137149E0,7.280705604E1
1.311559333E1,6.961375932E1,9.134785756E0,-6.586116600E-1,7.021362807E1
1.312553933E1,6.232005010E1,3.489835818E0,-8.901116985E-1,6.242403301E1
1.313548533E1,4.978426060E1,1.153693655E-1,2.967717467E0,4.987277073E1
1.314543133E1,3.624106366E1,-2.343618266E0,8.529246349E0,3.730489627E1
1.315537733E1,2.590308348E1,-5.554658988E0,1.102674477E1,2.869517504E1
1.316532333E1,2.273888612E1,-5.629586964E0,8.597411435E0,2.495324978E1
1.317526933E1,1.748582008E1,-8.009877359E0,5.135399008E0,1.990689233E1
1.318521533E1,1.115825332E1,-9.963992271E0,1.699761324E0,1.505579449E1
1.319516133E1,5.223637585E0,-1.124755902E1,-2.303695086E0,1.261352387E1
1.320510733E1,-1.511506416E0,-1.277345309E1,-7.130416363E0,1.470675332E1
1.321505333E1,-8.568254879E0,-1.363684126E1,-1.240819624E1,2.033080828E1
1.322499933E1,-1.509783241E1,-1.417308824E1,-1.698761041E1,2.678432156E1
1.323494533E1,-2.011860611E1,-1.425133919E1,-2.083071980E1,3.227658389E1
1.324489133E1,-2.159800079E1,-1.422774918E1,-2.147222718E1,3.361486315E1
1.325483733E1,-2.085628616E1,-1.454625520E1,-1.871223848E1,3.157096897E1
1.326478333E1,-2.002556054E1,-1.498312173E1,-1.463908443E1,2.897964466E1
1.327472933E1,-1.890058197E1,-1.527186777E1,-1.034226269E1,2.640879288E1
1.328467533E1,-1.713534967E1,-1.510877723E1,-5.698739644E0,2.354508423E1
1.329462133E1,-1.575139325E1,-1.413646011E1,-1.970698201E0,2.125628249E1
1.330456687E1,-1.475479381E1,-1.304266358E1,4.639958578E-1,1.969848486E1
1.331451287E1,-1.368942878E1,-1.206313334E1,1.273202849E0,1.829045357E1
1.332445887E1,-1.274924328E1,-1.124157849E1,9.311375177E-1,1.702302289E1
1.333440488E1,-1.246273205E1,-1.054719707E1,-3.929130113E-1,1.633148606E1
1.334435087E1,-1.257799354E1,-1.007947946E1,-2.376305664E0,1.629259513E1
1.335429687E1,-1.275208269E1,-9.829289964E0,-4.469714556E0,1.670954525E1
1.336424287E1,-1.317226127E1,-9.629088902E0,-6.316078733E0,1.749630448E1
1.337418887E1,-1.411299757E1,-9.622561070E0,-7.647076339E0,1.871491808E1
1.338413487E1,-1.485348312E1,-9.599259916E0,-8.359527991E0,1.956153010E1
1.339408087E1,-1.485093607E1,-9.511620678E0,-8.327134416E0,1.950288178E1
1.340402687E1,-1.412288755E1,-9.345041106E0,-7.665260594E0,1.858875913E1
1.341397287E1,-1.272019197E1,-9.032703311E0,-6.839087030E0,1.703426325E1
1.342391887E1,-1.138368805E1,-8.436152244E0,-5.727768146E0,1.528281211E1
1.343386487E1,-1.034205219E1,-7.790412644E0,-4.397641776E0,1.367434919E1
1.344381087E1,-9.731478326E0,-7.249734646E0,-3.371915020E0,1.259484552E1
1.345375687E1,-9.675214663E0,-6.913537872E0,-2.575594414E0,1.216718831E1
1.346370287E1,-1.016952190E1,-6.788123283E0,-1.530242795E0,1.232231457E1
1.347364887E1,-1.111752162E1,-6.552615563E0,-1.001576878E-1,1.290527370E1
1.348359487E1,-1.224325915E1,-6.493260477E0,1.118558321E0,1.390363258E1
1.349353987E1,-1.331898311E1,-6.470656895E0,1.873103494E0,1.492558972E1
1.350348587E1,-1.383330069E1,-6.381236011E0,2.273056553E0,1.540282984E1
1.351343187E1,-1.384428410E1,-6.140618994E0,2.260974451E0,1.531285112E1
1.352337787E1,-1.335250988E1,-5.692260345E0,1.927758003E0,1.464266365E1
1.353332387E1,-1.171878847E1,-5.244206920E0,1.439673371E0,1.291914737E1
1.354326987E1,-9.017085398E0,-4.255648575E0,9.743262219E-1,1.001836740E1
1.355321587E1,-6.209309744E0,-2.631541451E0,6.063948182E-1,6.771133774E0
1.356316187E1,-3.637526545E0,-1.047626406E0,2.113293372E-2,3.785441461E0
1.357310787E1,-1.772001627E0,-1.031489772E-1,-9.137256789E-1,1.996377743E0
1.358305387E1,-1.493913313E0,9.732580818E-3,-1.843209019E0,2.372612737E0
1.359299987E1,-2.680390552E0,-1.714221635E-1,-7.378542960E-1,2.785373948E0
1.360294587E1,-2.517937945E0,-1.070972949E0,2.341286543E0,3.601196638E0
1.361289187E1,-6.894463670E-1,-4.076109380E-1,4.983402976E0,5.047354573E0
1.362283787E1,2.087324426E0,7.995763350E-1,6.415650383E0,6.793880733E0
1.363278387E1,4.098108214E0,3.913890442E-2,6.909517327E0,8.033520553E0
1.364272987E1,6.173266338E0,-1.649380106E0,7.449048101E0,9.814172896E0
1.365267587E1,9.607295160E0,-2.242111626E0,8.100881084E0,1.276524419E1
1.366262187E1,1.698387170E1,-7.125403838E-1,7.487290646E0,1.857469066E1
1.367256787E1,3.356137361E1,5.946735263E-1,4.406843539E0,3.385468513E1
1.368251387E1,5.488615740E1,3.363707283E0,-2.202324539E-1,5.498957449E1
1.369245987E1,7.168461389E1,6.341994177E0,-2.929008899E0,7.202418935E1
1.370240587E1,8.022839232E1,7.928140301E0,4.042120977E-1,8.062018191E1
1.371235187E1,7.626477533E1,6.130705040E0,5.792138389E0,7.672972285E1
1.372229787E1,6.459427551E1,2.456871378E0,9.924317744E0,6.539838476E1
1.373224387E1,5.251374554E1,-1.323153274E-1,1.326334334E1,5.416296941E1
1.374218987E1,4.165395515E1,-1.666750430E0,1.519554523E1,4.437042519E1
1.375213587E1,3.243671079E1,-1.668841833E0,1.437421141E1,3.551820933E1
1.376208188E1,2.505037233E1,-3.002450513E0,1.125682569E1,2.762701553E1
1.377202787E1,1.968029415E1,-2.465938071E0,6.743249996E0,2.094913480E1
1.378197387E1,1.451345115E1,-2.738995441E0,1.857850447E0,1.488603267E1
1.379191987E1,1.063720092E1,-2.324282548E0,-1.911791158E0,1.105474008E1
1.380186587E1,5.522501056E0,-2.132288783E0,-3.755657843E0,7.010680367E0
1.381181187E1,5.943548530E-1,-3.113082172E0,-4.434451752E0,5.450587183E0
1.382175787E1,-3.442509624E0,-4.355908443E0,-4.295301468E0,7.019574459E0
1.383170387E1,-6.476047443E0,-5.923785526E0,-3.690412272E0,9.521006679E0
1.384164987E1,-8.670240844E0,-7.011572290E0,-2.981618053E0,1.154232509E1
1.385159587E1,-9.754449112E0,-8.433195891E0,-2.648070068E0,1.316359926E1
1.386154187E1,-1.154457652E1,-9.951821877E0,-2.512750295E0,1.544765095E1
1.387148787E1,-1.410079560E1,-1.123123476E1,-3.040379646E0,1.828160221E1
1.388143387E1,-1.656145481E1,-1.221527087E1,-3.914322039E0,2.094794846E1
1.389137987E1,-1.843418700E1,-1.311938957E1,-4.446949006E0,2.305890259E1
1.390132587E1,-2.007175822E1,-1.379473012E1,-4.062223851E0,2.469153134E1
1.391127187E1,-2.085754448E1,-1.408422226E1,-3.107754189E0,2.535863984E1
1.392121787E1,-1.992583745E1,-1.409853156E1,-1.752185413E0,2.447197875E1
1.393116387E1,-1.765635296E1,-1.384298836E1,-2.575827499E-1,2.243750154E1
1.394110987E1,-1.485377314E1,-1.379887930E1,9.938056362E-1,2.029855404E1
1.395105587E1,-1.226249766E1,-1.405106971E1,1.805866361E0,1.873666358E1
1.396100187E1,-1.035934591E1,-1.424999784E1,2.513595802E0,1.779597286E1
1.397094788E1,-9.257632833E0,-1.455839051E1,3.120591751E0,1.753250105E1
1.398089387E1,-9.362297409E0,-1.500903309E1,3.200036700E0,1.797676060E1
1.399083987E1,-1.034954598E1,-1.571559425E1,2.634321510E0,1.900085931E1
1.400078487E1,-1.191964032E1,-1.621293269E1,1.797248735E0,2.020314616E1
1.401073087E1,-1.377879061E1,-1.651937006E1,8.897760683E-1,2.152989455E1
1.402067687E1,-1.539931134E1,-1.673073755E1,2.066826280E-1,2.273981281E1
1.403062287E1,-1.627894074E1,-1.662204834E1,-3.371055041E-1,2.326821958E1
1.404056887E1,-1.624996194E1,-1.613454492E1,-6.944568461E-1,2.290997758E1
1.405051487E1,-1.553378795E1,-1.564794899E1,-9.536200619E-1,2.206957785E1
1.406046087E1,-1.451118711E1,-1.534736702E1,-1.315413022E0,2.116238496E1
1.407040687E1,-1.382825104E1,-1.486360582E1,-1.979160876E0,2.039765630E1
1.408035287E1,-1.313819422E1,-1.416901624E1,-2.836412977E0,1.952993618E1
1.409029887E1,-1.232232169E1,-1.342829447E1,-3.809073912E0,1.861901577E1
1.410024487E1,-1.208251101E1,-1.292231619E1,-4.819454066E0,1.833577011E1
1.411019087E1,-1.239288121E1,-1.266476739E1,-5.796025618E0,1.864332993E1
1.412013687E1,-1.261889832E1,-1.274640855E1,-6.366724391E0,1.903267467E1
1.413008287E1,-1.311668933E1,-1.292490884E1,-6.004727948E0,1.936898462E1
1.414002887E1,-1.391928517E1,-1.329269052E1,-4.622243854E0,1.979412183E1
1.414997487E1,-1.498630145E1,-1.392012833E1,-3.042343726E0,2.067885537E1
1.415992087E1,-1.598568767E1,-1.401850774E1,-1.493544939E0,2.131411377E1
1.416986687E1,-1.570353729E1,-1.401090870E1,-4.187155315E-1,2.104951232E1
1.417981287E1,-1.377051797E1,-1.424093114E1,3.073110167E-1,1.981226199E1
1.418975887E1,-9.925655587E0,-1.394904399E1,3.727331007E-1,1.712405901E1
1.419970487E1,-4.010829749E0,-1.245949270E1,-2.501334337E-1,1.309153468E1
1.420965087E1,3.458448549E0,-9.801360154E0,-9.337757083E-1,1.043549061E1
1.421959687E1,1.291453120E1,-5.678398350E0,-1.140014167E0,1.415376121E1
1.422954287E1,2.311165313E1,-1.569220481E0,-3.494717073E-1,2.316750081E1
1.423948887E1,3.023652750E1,9.734155912E-1,2.673639357E0,3.037010834E1
1.424943487E1,3.620368358E1,4.301641312E0,9.295853158E0,3.762477520E1
1.425938087E1,4.853294709E1,7.625470877E0,1.443590187E1,5.120537103E1
1.426932687E1,6.908485761E1,1.030344419E1,1.404453603E1,7.124694734E1
1.427927287E1,8.560179640E1,1.415015312E1,1.204157933E1,8.759505701E1
1.428921887E1,8.933131894E1,1.385398580E1,1.066561137E1,9.102622003E1
1.429916533E1,8.284662580E1,1.138442596E1,7.125536277E0,8.392819448E1
1.430911133E1,6.929195663E1,7.244044136E0,5.273102691E0,6.986885602E1
1.431905733E1,5.319991864E1,2.843113594E0,5.906974196E0,5.360230389E1
1.432900333E1,3.866912464E1,-5.394663453E-1,7.521950601E0,3.939761370E1
1.433894933E1,2.904064794E1,-1.961369992E0,7.462874427E0,3.004830611E1
1.434889533E1,2.266311088E1,-1.950849535E0,4.752056134E0,2.323799574E1
1.435884133E1,1.777401414E1,-1.684726671E0,1.985399271E0,1.796373271E1
1.436878733E1,1.345996065E1,-1.795883410E0,-7.971725446E-1,1.360261820E1
1.437873333E1,8.933043952E0,-2.255496341E0,-2.836954429E0,9.640272217E0
1.438867933E1,4.595427353E0,-3.937766451E0,-3.410089152E0,6.946413838E0
1.439862533E1,9.537393451E-1,-6.336385528E0,-3.311003990E0,7.212638055E0
1.440857133E1,-2.216573619E0,-9.104149854E0,-2.671150197E0,9.743397075E0
1.441851733E1,-4.714893571E0,-1.192911398E1,-1.469671926E0,1.291099986E1
1.442846333E1,-6.965015005E0,-1.493083242E1,-8.808029312E-1,1.649900011E1
1.443840933E1,-1.119808923E1,-1.774240526E1,-1.771877666E0,2.105539592E1
1.444835533E1,-1.696612891E1,-1.974453166E1,-3.409098634E0,2.625486649E1
1.445830133E1,-2.311063338E1,-2.072509569E1,-5.694914981E0,3.156046614E1
1.446824733E1,-2.779604236E1,-2.134106010E1,-7.055470846E0,3.574689478E1
1.447819233E1,-2.955132972E1,-2.110370758E1,-6.394959426E0,3.687198216E1
1.448813833E1,-2.778182194E1,-2.052280074E1,-4.513040085E0,3.483364051E1
1.449808433E1,-2.311078307E1,-1.994840302E1,-2.097094538E0,3.060138694E1
1.450803033E1,-1.855273930E1,-1.934665436E1,8.985301176E-2,2.680494813E1
1.451797633E1,-1.638971039E1,-1.862938110E1,1.021901507E0,2.483386256E1
1.452792233E1,-1.654542642E1,-1.782608710E1,6.197650981E-1,2.432909011E1
1.453786833E1,-1.737046153E1,-1.715878297E1,-2.665393869E-2,2.441633628E1
1.454781433E1,-1.764812709E1,-1.644221371E1,-3.338643193E-1,2.412289881E1
1.455776033E1,-1.691088442E1,-1.564670938E1,-1.415856493E-1,2.303947856E1
1.456770633E1,-1.551569900E1,-1.465966897E1,2.440113076E-1,2.134718603E1
1.457765233E1,-1.418179007E1,-1.368030829E1,5.995383732E-1,1.971378834E1
1.458759833E1,-1.279589588E1,-1.270794323E1,8.140201271E-1,1.805240707E1
1.459754433E1,-1.159032046E1,-1.152426096E1,8.155380642E-1,1.636487768E1
1.460749033E1,-1.095276112E1,-1.053062957E1,8.114110994E-1,1.521563417E1
1.461743633E1,-1.090236046E1,-9.866870019E0,7.221486016E-1,1.472202724E1
1.462738233E1,-1.135723524E1,-9.531438062E0,4.941750920E-1,1.483507037E1
1.463732833E1,-1.202370907E1,-9.392103006E0,-8.286440134E-2,1.525739313E1
1.464727433E1,-1.274224533E1,-9.377028884E0,-7.400470018E-1,1.583796566E1
1.465722033E1,-1.305143557E1,-9.324580529E0,-9.773047936E-1,1.606993768E1
1.466716633E1,-1.270185277E1,-8.979735138E0,-7.432980537E-1,1.557322057E1
1.467711233E1,-1.194740758E1,-8.359669493E0,-3.896830459E-1,1.458685966E1
1.468705833E1,-1.146670331E1,-7.728467242E0,-2.978864380E-1,1.383124098E1
1.469700433E1,-1.130063303E1,-7.329797062E0,-2.091456214E-1,1.347122762E1
1.470695033E1,-1.141478003E1,-7.000076079E0,-4.039607406E-2,1.339029126E1
1.471689633E1,-1.163746890E1,-6.818048163E0,-2.573125720E-2,1.348766567E1
1.472684233E1,-1.167628623E1,-6.556839007E0,-2.305814044E-1,1.339331794E1
1.473678833E1,-1.132349096E1,-6.340123068E0,-5.406569115E-1,1.298887670E1
1.474673433E1,-9.619065020E0,-6.552162403E0,-1.032921170E0,1.168435579E1
1.475668033E1,-7.083230503E0,-5.534646893E0,-2.073399464E-1,8.991521586E0
1.476662633E1,-4.689495020E0,-3.887149444E0,1.544649603E0,6.283887072E0
1.477657233E1,-3.245046812E0,-1.996435598E0,3.209113333E0,4.981414688E0
1.478651833E1,-5.493500036E-1,-1.959241167E-2,4.637213895E0,4.669681145E0
1.479646433E1,3.004473649E0,2.254304825E-1,3.661761500E0,4.741959309E0
1.480641033E1,6.666849691E0,-2.466599391E0,-7.028155871E-1,7.143174862E0
1.481635633E1,1.460321527E1,-5.468652878E0,-3.044248749E0,1.588796749E1
1.482630233E1,2.945279712E1,-6.802137305E0,-3.107168298E0,3.038734647E1
1.483624833E1,4.902438920E1,-8.457238473E0,-4.760477879E0,4.997577181E1
1.484619433E1,6.719755883E1,-8.416220255E0,-5.705677950E0,6.796248551E1
1.485614033E1,7.873726813E1,-8.858470902E0,-3.522409487E0,7.931227691E1
1.486608633E1,8.173380243E1,-9.751341902E0,8.026601565E-1,8.231735778E1
1.487603233E1,7.934960727E1,-9.901073892E0,4.203879082E-1,7.996604382E1
1.488597833E1,7.091185055E1,-8.443232637E0,-5.482992589E0,7.162291486E1
1.489592433E1,5.928042416E1,-7.028011737E0,-1.112031776E1,6.072250905E1
1.490587033E1,4.656197700E1,-5.486968696E0,-1.503788559E1,4.923680057E1
1.491581633E1,3.453611849E1,-3.560368149E0,-1.532357002E1,3.795038208E1
1.492576233E1,2.674847626E1,-2.091059042E0,-1.004946921E1,2.865039863E1
1.493570833E1,2.319182548E1,-1.453724669E0,-2.591438030E0,2.338139507E1
1.494565333E1,2.007576473E1,-1.016010584E0,2.849005541E0,2.030235059E1
1.495559933E1,1.524258725E1,-1.857156675E0,3.942912000E0,1.585345553E1
1.496554533E1,9.790099586E0,-3.466396084E0,3.916228817E0,1.109949548E1
1.497549133E1,4.058513793E0,-5.548131741E0,4.108026845E0,8.008069966E0
1.498543733E1,-7.003976172E-1,-7.597187310E0,4.503891531E0,8.859619110E0
1.499538333E1,-5.000915971E0,-9.631565198E0,5.385878524E0,1.211544040E1
1.500532933E1,-9.225498875E0,-1.153477191E1,6.090961515E0,1.597687719E1
1.501527533E1,-1.407522105E1,-1.389462863E1,6.801057909E0,2.091475415E1
1.502522133E1,-1.822396557E1,-1.565867395E1,7.399611647E0,2.514082822E1
1.503516733E1,-2.098203872E1,-1.724419325E1,7.865345882E0,2.827493264E1
1.504511333E1,-2.181427760E1,-1.804877246E1,8.788641114E0,2.964559170E1
1.505505933E1,-2.111515175E1,-1.871124913E1,9.090712953E0,2.964121353E1
1.506500533E1,-2.000581566E1,-1.950494083E1,8.198826624E0,2.911865613E1
1.507495133E1,-1.939465065E1,-1.990713805E1,6.857560723E0,2.862643460E1
1.508489733E1,-1.886048177E1,-2.044051171E1,5.510706053E0,2.835313338E1
1.509484333E1,-1.876926754E1,-2.121767449E1,3.919256505E0,2.859782661E1
1.510478933E1,-1.963543899E1,-2.168740939E1,2.300632753E0,2.934598953E1
1.511473533E1,-2.027045596E1,-2.207807824E1,1.002841923E0,2.998897490E1
1.512468133E1,-2.068593572E1,-2.253390145E1,-3.747129679E-2,3.058898585E1
1.513462733E1,-2.107615083E1,-2.263128799E1,-6.733209157E-1,3.093271231E1
1.514457333E1,-2.096943446E1,-2.226125046E1,-1.006833379E0,3.059892428E1
1.515451933E1,-2.000673952E1,-2.149725326E1,-1.259055219E0,2.939365143E1
1.516446533E1,-1.816065309E1,-2.052023498E1,-1.316982415E0,2.743398999E1
1.517441133E1,-1.651252999E1,-1.930931170E1,-7.849466014E-1,2.541907367E1
1.518435733E1,-1.525757717E1,-1.798886306E1,2.915407106E-1,2.358978278E1
1.519430333E1,-1.418629008E1,-1.678775492E1,1.266573569E0,2.201553429E1
1.520424933E1,-1.308593297E1,-1.566277986E1,2.044992338E0,2.051210151E1
1.521419533E1,-1.179782177E1,-1.434064254E1,2.566043572E0,1.874639183E1
1.522414133E1,-1.040213350E1,-1.274763764E1,2.630841247E0,1.666217189E1
1.523408733E1,-8.914056873E0,-1.115273589E1,2.454808481E0,1.448689106E1
1.524403333E1,-7.870125981E0,-9.472843698E0,2.542285166E0,1.257524809E1
1.525397933E1,-7.020482862E0,-7.823019058E0,2.928534690E0,1.091160493E1
1.526392533E1,-5.972373549E0,-6.218769954E0,2.926907995E0,9.105445402E0
1.527387133E1,-5.035788766E0,-4.533032300E0,2.125195233E0,7.100986206E0
1.528381733E1,-4.795847102E0,-3.359716851E0,1.420852207E0,6.025501451E0
1.529376333E1,-6.219547049E0,-2.465753591E0,1.634165651E0,6.887176755E0
1.530370896E1,-8.085211716E0,-2.174922148E0,2.147610827E0,8.643677869E0
1.531365496E1,-8.347885015E0,-1.783787713E0,3.508270919E0,9.229141221E0
1.532360096E1,-6.791295397E0,-3.655245070E-1,5.030145618E0,8.459176454E0
1.533354696E1,-3.403418648E0,1.372460943E0,5.297270987E0,6.444221244E0
1.534349296E1,4.280033219E-1,3.595378645E0,3.379164398E0,4.952644392E0
1.535343896E1,3.555029933E0,5.410961325E0,1.143175026E0,6.574464953E0
1.536338496E1,5.778048354E0,5.983907182E0,-6.475019503E-1,8.343395395E0
1.537332996E1,7.836921397E0,5.916484693E0,-1.224920343E0,9.895582750E0
1.538327596E1,8.749692811E0,6.224797849E0,-1.152756346E0,1.079972591E1
1.539322196E1,9.828269041E0,5.667267006E0,-1.553733838E0,1.145106443E1
1.540316796E1,1.408184829E1,5.157527211E0,-1.503333178E0,1.507177988E1
1.541311396E1,2.290064817E1,4.175911265E0,-1.410227963E0,2.332094905E1
1.542305996E1,3.746235756E1,3.714359543E0,-6.904503340E-1,3.765237606E1
1.543300596E1,5.791881346E1,5.689050808E0,2.168945124E0,5.823794789E1
1.544295196E1,7.714284001E1,8.496580294E0,5.774641181E0,7.782387887E1
1.545289796E1,8.791709733E1,7.057972285E0,6.265506749E0,8.842221186E1
1.546284396E1,8.431719586E1,3.497622847E0,4.126336232E0,8.449052926E1
1.547278996E1,6.739000707E1,-7.659394960E-1,6.876243162E0,6.774424283E1
1.548273596E1,4.905450002E1,-4.180687563E0,9.960100365E0,5.022972944E1
1.549268196E1,3.294381174E1,-5.819790457E0,1.090027651E1,3.518495021E1
1.550262796E1,2.244937410E1,-5.792023199E0,8.630661042E0,2.473884072E1
1.551257396E1,1.724074222E1,-5.233199537E0,4.851579253E0,1.865924412E1
1.552251996E1,1.306528763E1,-4.786793273E0,1.783512602E0,1.402840147E1
1.553246596E1,7.945062143E0,-5.005711858E0,-2.526688595E-1,9.393881264E0
1.554241196E1,2.608559262E0,-5.581578400E0,-1.164905106E0,6.270215528E0
1.555235796E1,-2.110471213E0,-5.992725368E0,-1.072518368E0,6.443379682E0
1.556230396E1,-5.994395333E0,-6.460765160E0,-9.670243652E-1,8.866194109E0
1.557224996E1,-8.937251608E0,-6.699309340E0,-8.777243721E-1,1.120382131E1
1.558219596E1,-1.089346801E1,-6.624333417E0,-6.784277277E-1,1.276752532E1
1.559214196E1,-1.184895684E1,-6.784900298E0,-7.430762981E-1,1.367423902E1
1.560208796E1,-1.257240477E1,-7.295535886E0,-1.244509685E0,1.458900305E1
1.561203396E1,-1.300250958E1,-8.050714898E0,-2.237809537E0,1.545597157E1
1.562197996E1,-1.296643109E1,-8.345584720E0,-3.064506428E0,1.572158768E1
1.563192596E1,-1.490788093E1,-9.229688405E0,-2.477100406E0,1.770785386E1
1.564187196E1,-1.564534814E1,-1.013494381E1,-2.426102599E0,1.879840361E1
1.565181796E1,-1.518186392E1,-1.023750865E1,-2.004536623E0,1.842047074E1
1.566176396E1,-1.473675632E1,-1.028083067E1,-1.008287508E0,1.799678054E1
1.567170996E1,-1.374164792E1,-1.053039802E1,-4.444100243E-1,1.731818900E1
1.568165596E1,-1.270717841E1,-1.100188007E1,6.257163942E-2,1.680826176E1
1.569160196E1,-1.179174184E1,-1.137060315E1,4.598022348E-1,1.638741009E1
1.570154796E1,-1.120814411E1,-1.152716118E1,7.867090253E-1,1.609710689E1
1.571149396E1,-1.104140140E1,-1.170509429E1,9.920082021E-1,1.612159599E1
1.572143996E1,-1.128402927E1,-1.179228329E1,8.945719546E-1,1.634587167E1
1.573138596E1,-1.149451266E1,-1.171577598E1,3.638418245E-1,1.641693056E1
1.574133196E1,-1.157202803E1,-1.175976108E1,-5.156923340E-1,1.650665781E1
1.575127796E1,-1.182652108E1,-1.184844697E1,-1.214084356E0,1.678470426E1
1.576122396E1,-1.218233935E1,-1.179820301E1,-1.603925752E0,1.703465774E1
1.577116996E1,-1.159977190E1,-1.133007960E1,-1.939019741E0,1.633049936E1
1.578111596E1,-1.322681111E1,-1.172677342E1,-1.485047180E0,1.773897157E1
1.579106096E1,-1.392088146E1,-1.184853818E1,-1.850112242E0,1.837394114E1
1.580100696E1,-1.359085525E1,-1.166306099E1,-2.203985733E0,1.804427586E1
1.581095296E1,-1.356699978E1,-1.128249496E1,-2.277989264E0,1.779177930E1
1.582089896E1,-1.353483191E1,-1.099849570E1,-2.246299694E0,1.758421010E1
1.583084496E1,-1.442844082E1,-1.144501715E1,-2.400457442E0,1.857230514E1
1.584079096E1,-1.496662440E1,-1.158995559E1,-2.816394449E0,1.913789420E1
1.585073696E1,-1.488781446E1,-1.139306815E1,-3.150234795E0,1.900981327E1
1.586068296E1,-1.469799630E1,-1.129481622E1,-3.240459672E0,1.881766583E1
1.587062896E1,-1.450874298E1,-1.142025185E1,-3.064761951E0,1.871679836E1
1.588057496E1,-1.423203168E1,-1.135933205E1,-2.758973038E0,1.841730389E1
1.589052096E1,-1.382892347E1,-1.129312403E1,-2.391277313E0,1.801366098E1
1.590046696E1,-1.322971835E1,-1.133145838E1,-2.187280823E0,1.755595608E1
1.591041296E1,-1.213991429E1,-1.086742919E1,-2.145443995E0,1.643415548E1
1.592035896E1,-1.062575675E1,-1.020066417E1,-2.229460298E0,1.489734034E1
1.593030496E1,-8.962479420E0,-9.560630286E0,-2.329851143E0,1.331014257E1
1.594025096E1,-7.143623469E0,-9.218217922E0,-2.484758504E0,1.192396422E1
1.595019696E1,-5.490025620E0,-8.555734236E0,-2.701749262E0,1.051857494E1
1.596014296E1,-4.002983955E0,-8.140045735E0,-2.921139717E0,9.529810195E0
1.597008896E1,-1.783437611E0,-8.391197680E0,-2.414414746E0,8.911916000E0
1.598003496E1,1.774389630E0,-7.072258787E0,-1.849846779E0,7.522448804E0
1.598998096E1,1.134511279E1,-6.015766906E0,-1.162679729E0,1.289390786E1
1.599992696E1,2.617988365E1,-3.649807160E0,2.955415948E-1,2.643472612E1
1.600987296E1,4.846840319E1,2.085934542E0,3.050715770E0,4.860909480E1
1.601981896E1,7.904426099E1,1.116848244E1,8.359837893E0,8.026591484E1
1.602976496E1,9.481203112E1,1.338770777E1,1.310706130E1,9.664547077E1
1.603971096E1,9.234691049E1,1.036789922E1,1.806830918E1,9.466735978E1
1.604965696E1,8.167815565E1,8.970981857E0,1.658578156E1,8.382653384E1
1.605960296E1,6.476700694E1,4.646954187E0,1.417598495E1,6.646290635E1
1.606954896E1,4.901116981E1,3.170121468E0,1.271451199E1,5.073266454E1
1.607949496E1,3.650835392E1,1.821649897E0,6.620729778E0,3.714851784E1
1.608944096E1,2.555782878E1,-2.075480159E-2,9.078914733E-1,2.557395765E1
1.609938696E1,1.643744004E1,-1.608135236E-1,-2.006692491E0,1.656025697E1
1.610933296E1,9.312764475E0,-1.328904010E-2,-3.201182170E0,9.847605092E0
1.611927896E1,4.581620908E0,-4.617818096E-1,-2.367019554E0,5.177574157E0
1.612922496E1,1.165275820E0,-4.197062691E-1,-1.087928851E0,1.648517599E0
1.613917096E1,-1.616142924E0,-1.151203326E0,-1.796264648E-3,1.984235439E0
1.614911696E1,-3.738403879E0,-1.957209259E0,2.989757377E-1,4.230333100E0
1.615906296E1,-5.564594577E0,-2.975131736E0,2.875578797E-1,6.316550577E0
1.616900896E1,-7.342017158E0,-4.140085667E0,-2.056173750E-1,8.431358359E0
1.617895496E1,-9.642016511E0,-5.118564874E0,-1.160380531E0,1.097791746E1
1.618889996E1,-1.176600590E1,-6.360087216E0,-2.247204843E0,1.356243097E1
1.619884596E1,-1.367471017E1,-7.602173231E0,-2.893512792E0,1.591110154E1
1.620879196E1,-1.515701559E1,-9.191768042E0,-3.222502288E0,1.801688770E1
1.621873796E1,-1.679500897E1,-1.069189811E1,-2.875637269E0,2.011612044E1
1.622868396E1,-1.811734510E1,-1.186126055E1,-2.275301299E0,2.177394524E1
1.623862996E1,-1.856009042E1,-1.248156827E1,-1.685673920E0,2.243006909E1
1.624857596E1,-1.725751438E1,-1.280294879E1,-1.056941532E0,2.151405182E1
1.625852196E1,-1.498191604E1,-1.273278688E1,-2.781169287E-1,1.966364714E1
1.626846796E1,-1.242631092E1,-1.259790565E1,2.236711649E-1,1.769662280E1
1.627841396E1,-1.013900177E1,-1.269439406E1,5.520649024E-1,1.625582275E1
1.628835996E1,-8.231023148E0,-1.286230270E1,9.017330396E-1,1.529711396E1
1.629830596E1,-7.187070036E0,-1.310391901E1,1.177898204E0,1.499180154E1
1.630825208E1,-7.201857644E0,-1.329231981E1,1.390651485E0,1.518177957E1
1.631819808E1,-8.010372618E0,-1.338348842E1,1.483567250E0,1.566795467E1
1.632814408E1,-9.298603688E0,-1.342781149E1,1.574715986E0,1.640883550E1
1.633809008E1,-1.061890381E1,-1.340611715E1,1.634104986E0,1.718008714E1
1.634803608E1,-1.153606064E1,-1.336683321E1,1.526543115E0,1.772239428E1
1.635798208E1,-1.206296026E1,-1.330397331E1,1.293402348E0,1.800509943E1
1.636792808E1,-1.235346630E1,-1.307280831E1,9.099279124E-1,1.800928693E1
1.637787408E1,-1.244891157E1,-1.276172592E1,4.716820228E-1,1.783422361E1
1.638782008E1,-1.249152842E1,-1.240049078E1,1.530216154E-1,1.760209844E1
1.639776608E1,-1.239452311E1,-1.196381955E1,-8.317898154E-2,1.722684243E1
1.640771208E1,-1.207799462E1,-1.155351341E1,-4.183238411E-1,1.671934870E1
1.641765808E1,-1.178851300E1,-1.129815147E1,-8.290591657E-1,1.634945273E1
1.642760408E1,-1.157265719E1,-1.131212631E1,-1.094341493E0,1.621999320E1
1.643755008E1,-1.157445813E1,-1.127792010E1,-1.289834962E0,1.621182399E1
