"Time (s)","Linear Acceleration x (m/s^2)","Linear Acceleration y (m/s^2)","Linear Acceleration z (m/s^2)","Absolute acceleration (m/s^2)"
5.646958307E-3,1.359846745E-1,3.859805524E-2,6.348403895E-1,6.503875473E-1
1.559295831E-2,5.194534823E-1,-4.458794296E-2,6.199792524E-1,8.100581944E-1
2.553895832E-2,1.411964001E0,8.794095397E-2,5.160868017E-1,1.505895594E0
3.548495832E-2,2.045409830E0,-1.271371794E-1,7.069435751E-1,2.167864030E0
4.543095833E-2,2.322193922E0,-3.924271077E-1,8.862544365E-1,2.516352633E0
5.537695833E-2,2.114390894E0,-4.666703743E-1,9.841518831E-1,2.378441721E0
6.532295834E-2,1.566994738E0,-5.018787986E-1,1.043920806E0,1.948621432E0
7.526895835E-2,5.368508492E-1,-6.158609122E-1,1.045151279E0,1.326587613E0
8.521495829E-2,-3.918076683E-1,-4.873718566E-1,8.457589598E-1,1.051833064E0
9.516095830E-2,-7.890892075E-1,-5.851659536E-2,5.840363447E-1,9.834553478E-1
1.051059583E-1,-7.635689617E-1,2.450930607E-1,5.358014202E-1,9.644642708E-1
1.150519583E-1,-7.521388245E-1,2.908726662E-1,6.423949921E-1,1.031014571E0
1.249979583E-1,-9.331498370E-1,2.310609126E-1,6.497801717E-1,1.160332726E0
1.349439583E-1,-1.349385637E0,-1.536706746E-1,6.332944588E-1,1.498505304E0
1.448899583E-1,-1.607449869E0,-7.511286449E-1,7.792901511E-1,1.937880920E0
1.548359583E-1,-2.496812539E0,-1.655487084E0,1.391679571E0,3.303253301E0
1.647819583E-1,-3.051597822E0,-1.959387932E0,1.978239355E0,4.130966144E0
1.747279583E-1,-3.672954825E0,-1.799548445E0,2.253620993E0,4.669880012E0
1.846739583E-1,-3.159844694E0,-9.448504078E-1,2.059345937E0,3.888221505E0
1.946199583E-1,-1.871175813E0,4.870362264E-1,7.922218533E-1,2.089525945E0
2.045659583E-1,-1.084366508E0,1.713745233E0,-2.225063630E-1,2.040167280E0
2.145119583E-1,7.702540834E-2,2.964720184E0,-7.586528420E-2,2.966690787E0
2.244569583E-1,2.390100853E0,3.907392504E0,-6.112374457E-1,4.621029051E0
2.344029583E-1,4.743932013E0,4.075150875E0,-1.538784846E0,6.440466164E0
2.443489583E-1,4.260574562E0,3.154785098E0,-2.011255074E0,5.670124477E0
2.542949583E-1,2.378147390E0,1.886897076E0,-1.895347033E0,3.578869369E0
2.642409583E-1,1.705548314E0,6.095196068E-1,-1.344487571E0,2.255671969E0
2.741869583E-1,8.394002590E-1,-5.475338584E-1,-2.845874941E-1,1.041813881E0
2.841329583E-1,6.583277046E-1,-1.273558652E0,6.527058260E-1,1.575237094E0
2.940789583E-1,7.353605316E-1,-1.576095929E0,9.140098536E-1,1.964751257E0
3.040249583E-1,1.187643393E0,-1.578509075E0,6.914274037E-1,2.092906970E0
3.139709583E-1,1.828394368E0,-1.277119022E0,1.094284482E-1,2.232942799E0
3.239169583E-1,1.845475108E0,-6.739167470E-1,-4.001622431E-1,2.005011715E0
3.338629583E-1,1.546660607E0,4.480136633E-2,-5.045432286E-1,1.627491956E0
3.438079583E-1,1.328694388E0,2.728509629E-1,-2.929919896E-1,1.387703401E0
3.537539583E-1,1.216963160E0,5.965879047E-1,2.231100149E-1,1.373569998E0
3.636999583E-1,8.038488223E-1,4.768527156E-1,7.240126209E-1,1.182267193E0
3.736459583E-1,2.608393932E-1,1.179658216E-1,1.352023609E0,1.381998901E0
3.835919583E-1,5.261182118E-1,1.046300769E-2,1.494478154E0,1.584416233E0
3.935379583E-1,-2.878157419E-1,-5.815184605E-1,1.516863488E0,1.649811039E0
4.034839583E-1,-5.347875861E-1,-9.780456358E-1,1.652959918E0,1.993701963E0
4.134299583E-1,-9.834626426E-1,-1.153253360E0,1.682071889E0,2.264190345E0
4.233759583E-1,-4.260901860E-1,-6.707335228E-1,1.678373086E0,1.856979408E0
4.333219583E-1,-3.646922290E-1,1.894375080E-1,1.213134768E0,1.280852434E0
4.432679583E-1,-5.544225363E-1,7.953002661E-1,1.144118840E0,1.499631548E0
4.532139583E-1,-1.680228700E0,6.613265222E-1,1.822756044E0,2.565728132E0
4.631589583E-1,-1.899327379E0,7.052812117E-1,1.674352541E0,2.628368793E0
4.731049583E-1,-1.173267648E0,1.473557986E0,1.278729930E0,2.276637948E0
4.830509583E-1,-9.268233689E-1,1.979244491E0,1.011602222E0,2.408266881E0
4.929969583E-1,-5.548160173E-1,2.503147413E0,5.451581347E-1,2.621214446E0
5.029429583E-1,-2.653192009E-1,3.610374999E0,5.461299419E-2,3.620522682E0
5.128889583E-1,7.189570086E-2,4.470888677E0,-9.970145881E-2,4.472578108E0
5.228349583E-1,4.344526546E-1,5.008292819E0,-1.627806365E-1,5.029735938E0
5.327809583E-1,7.052705406E-1,5.195733503E0,-4.459823406E-1,5.262314454E0
5.427269583E-1,8.949558243E-1,5.318972343E0,-2.836168563E-1,5.401189798E0
5.526729583E-1,1.152112568E0,5.897444989E0,-2.025131978E-2,6.008962546E0
5.626189583E-1,1.707526427E0,6.388460246E0,-1.641155559E-1,6.614756588E0
5.725649583E-1,2.273052898E0,6.953275550E0,-6.773029426E-1,7.346669288E0
5.825099583E-1,2.335778174E0,7.429641193E0,-1.458425392E0,7.923536619E0
5.924559583E-1,1.879803672E0,7.414489303E0,-2.446882580E0,8.030912017E0
6.024019583E-1,7.159645133E-1,6.737692217E0,-3.529803876E0,7.639935667E0
6.123479583E-1,-6.421380801E-1,5.290685268E0,-4.432157890E0,6.931645943E0
6.222939583E-1,-1.698522299E0,2.891898960E0,-4.962991515E0,5.989936759E0
6.322399583E-1,-2.371288460E0,-2.049987030E-1,-5.272428507E0,5.784767566E0
6.421859583E-1,-1.833215251E0,-3.113238292E0,-4.897640694E0,6.086034439E0
6.521319583E-1,-1.900095703E0,-6.336184384E0,-3.856481967E0,7.657026145E0
6.620779583E-1,-3.216056902E0,-1.066323039E1,-1.840319910E0,1.128867936E1
6.720239583E-1,-3.266757524E0,-1.584104977E1,6.408705499E-1,1.618707131E1
6.819699583E-1,-1.152694074E0,-2.189684029E1,1.409080154E0,2.197238779E1
6.919159583E-1,7.945890255E-1,-2.902483473E1,-1.026495665E0,2.905384822E1
7.018619583E-1,2.714009119E0,-3.483636132E1,-5.828157822E0,3.542464311E1
7.118069583E-1,3.597621929E0,-3.443451025E1,-2.498341586E0,3.471195890E1
7.217529583E-1,4.086704974E0,-2.903807751E1,-1.757651098E-1,2.932476762E1
7.316989583E-1,2.202454055E0,-2.273744069E1,-6.351532155E-1,2.285268983E1
7.416449583E-1,-1.311771668E-2,-1.749443888E1,-7.429174000E-1,1.751021102E1
7.515909583E-1,-1.356730325E0,-1.377345327E1,-6.603741570E-1,1.385585891E1
7.615369583E-1,-1.831025322E0,-1.066259421E1,-2.341137439E-2,1.081869295E1
7.714829583E-1,-2.268261251E0,-7.625188456E0,9.199721132E-1,8.008424114E0
7.814289583E-1,-2.206898085E0,-4.372712172E0,2.158512522E0,5.352586964E0
7.913749583E-1,-2.108317684E0,-1.124879161E0,4.026196524E0,4.681945646E0
8.013209583E-1,-1.777030379E0,1.876573817E0,5.487882616E0,6.065988943E0
8.112669583E-1,-7.351330018E-1,4.430910094E0,5.767564881E0,7.310142915E0
8.212129583E-1,7.937255379E-1,6.642945689E0,4.924036780E0,8.306916749E0
8.311589583E-1,1.482051944E0,8.587156588E0,3.540095268E0,9.405743497E0
8.411039583E-1,1.438704780E0,1.032761541E1,2.044367271E0,1.062586227E1
8.510499583E-1,1.273637297E0,1.160951570E1,8.782921368E-1,1.171214770E1
8.609959583E-1,1.158115100E0,1.222555846E1,1.220454240E-1,1.228089595E1
8.709419583E-1,1.202225545E0,1.245826244E1,-2.383021045E-1,1.251840394E1
8.808879583E-1,1.308726000E0,1.265628659E1,-4.638362288E-1,1.273222282E1
8.908339583E-1,1.370334311E0,1.288038229E1,-1.432417269E0,1.303203297E1
9.007799583E-1,1.443070019E0,1.290533353E1,-2.115667049E0,1.315698034E1
9.107259583E-1,1.582783097E0,1.291964635E1,-2.511299308E0,1.325628486E1
9.206719583E-1,1.783081662E0,1.306292535E1,-2.695950285E0,1.345687731E1
9.306179583E-1,1.700348969E0,1.269971736E1,-2.738344646E0,1.310238677E1
9.405639583E-1,1.555101794E0,1.212008522E1,-2.447216456E0,1.246208954E1
9.505099583E-1,1.349311670E0,1.164417566E1,-2.034364732E0,1.189731518E1
9.604559583E-1,1.216487781E0,1.131760515E1,-1.664996996E0,1.150392298E1
9.704009583E-1,1.086922911E0,1.106772790E1,-1.337427350E0,1.120110326E1
9.803469583E-1,1.036840047E0,1.095944331E1,-1.096271074E0,1.106283170E1
9.902929583E-1,1.006963187E0,1.105279528E1,-9.054467525E-1,1.113544306E1
1.000238958E0,1.023995395E0,1.122607518E1,-7.991816479E-1,1.130097437E1
1.010184958E0,1.061070982E0,1.132645316E1,-8.447169860E-1,1.140736427E1
1.020130958E0,1.179888158E0,1.170509195E1,-1.218480805E0,1.182734159E1
1.030076958E0,1.254563388E0,1.198997648E1,-1.436096776E0,1.214066881E1
1.040022958E0,1.196280681E0,1.186577343E1,-1.546021945E0,1.202571622E1
1.049968958E0,1.248782538E0,1.134046660E1,-1.660458387E0,1.152921344E1
1.059914958E0,1.392885852E0,1.086070606E1,-2.086798322E0,1.114673918E1
1.069860958E0,1.467410223E0,1.068476100E1,-2.811502669E0,1.114549047E1
1.079806958E0,1.580422138E0,1.042611877E1,-3.154343049E0,1.100688725E1
1.089752958E0,1.534150781E0,9.970097934E0,-3.563832332E0,1.069847523E1
1.099697958E0,1.213601157E0,9.405271520E0,-3.545493709E0,1.012435113E1
1.109643958E0,1.175615451E0,8.937877260E0,-2.928877337E0,9.478715317E0
1.119589958E0,1.328787651E0,8.715678388E0,-2.272835382E0,9.104642061E0
1.129535958E0,1.382771046E0,8.627309418E0,-2.012044886E0,8.966094366E0
1.139481958E0,1.300195936E0,8.445339389E0,-2.395079758E0,8.874157645E0
1.149427958E0,8.884386639E-1,7.617978839E0,-2.877500192E0,8.191637944E0
1.159373958E0,-1.248690152E0,2.100253789E0,-2.162137796E0,3.262687990E0
1.169319958E0,-9.171758870E0,-2.868729836E1,-6.167007186E-1,3.012411937E1
1.179265958E0,-1.250336085E1,-7.259409449E1,-1.609346413E0,7.368057127E1
1.189211958E0,-1.607956939E1,-1.028684652E2,-3.746981744E0,1.041849968E2
1.199157958E0,-1.461685682E1,-9.301455025E1,1.468175039E1,9.529382381E1
1.209103958E0,-1.720610449E-1,-6.209013758E1,1.710601770E1,6.440365387E1
1.219049958E0,1.078575353E0,-2.972859625E1,3.516427200E0,2.995526699E1
1.228994958E0,1.573945762E0,-1.526085161E1,-7.526114988E-1,1.536025134E1
1.238940958E0,3.245079264E0,-8.296886770E0,1.393240924E-1,8.910010140E0
1.248886958E0,2.073450006E0,-3.315699304E0,2.286336164E0,4.529943693E0
1.258832958E0,-5.702434207E-1,-3.928621405E-1,4.575051561E0,4.627160577E0
1.268778958E0,-1.718880404E0,1.340132126E0,5.723477460E0,6.124434520E0
1.278724958E0,-1.929601484E0,3.492535477E0,5.727740664E0,6.980557218E0
1.288670958E0,-1.668959654E0,6.106570072E0,4.948931885E0,8.035393654E0
1.298616958E0,-1.774778177E0,8.180440639E0,4.160465845E0,9.347669371E0
1.308562958E0,-1.622965163E0,9.714487486E0,2.818318768E0,1.024442305E1
1.318508958E0,-7.875912970E-1,1.076984384E1,1.221568134E0,1.086747740E1
1.328454958E0,-5.492041156E-2,1.118230877E1,7.779090388E-1,1.120946868E1
1.338400958E0,3.948864466E-1,1.168337539E1,7.373372559E-1,1.171327717E1
1.348346958E0,9.060042845E-1,1.254933166E1,7.115646297E-1,1.260209875E1
1.358291958E0,1.595114583E0,1.391175863E1,7.624804294E-1,1.402365128E1
1.368237958E0,2.436842034E0,1.595070378E1,7.911056198E-1,1.615515392E1
1.378183958E0,3.491526248E0,1.756973698E1,1.180601372E0,1.795216513E1
1.388129958E0,4.334252695E0,1.750601870E1,2.154184413E0,1.816279020E1
1.398075958E0,4.554645948E0,1.612884856E1,2.893228033E0,1.700750787E1
1.408021958E0,4.236668806E0,1.497526425E1,2.313022272E0,1.573397514E1
1.417967958E0,3.644696401E0,1.408956310E1,1.393091528E0,1.461985993E1
1.427913958E0,3.580840128E0,1.419912823E1,8.201070786E-1,1.466663677E1
1.437859958E0,4.036503704E0,1.455633229E1,5.204069439E-1,1.511459544E1
1.447805958E0,4.670820475E0,1.381053397E1,2.373392142E-2,1.457902520E1
1.457751958E0,4.878260683E0,1.335222687E1,-6.000265791E-1,1.422812080E1
1.467697958E0,4.864558902E0,1.297782264E1,-1.337171681E0,1.392393054E1
1.477642958E0,4.691701467E0,1.236104079E1,-1.926634753E0,1.336111198E1
1.487588958E0,4.321265737E0,1.167319422E1,-2.028649371E0,1.261159066E1
1.497534958E0,3.870351270E0,1.092605220E1,-2.158178061E0,1.179050331E1
1.507480958E0,3.470461946E0,1.026310425E1,-2.159137005E0,1.104704882E1
1.517426958E0,3.124550316E0,9.685791106E0,-2.073745437E0,1.038642307E1
1.527372958E0,2.924472922E0,9.223675128E0,-2.116320476E0,9.904924891E0
1.537318958E0,2.768066627E0,8.964537640E0,-1.933891148E0,9.579408277E0
1.547264958E0,2.676825213E0,8.864445003E0,-1.815802535E0,9.436149494E0
1.557210958E0,2.571156963E0,8.799962493E0,-1.914248743E0,9.365603892E0
1.567156958E0,2.337968833E0,8.669000065E0,-2.382273771E0,9.289396574E0
1.577102958E0,2.134974117E0,8.474809356E0,-3.029515520E0,9.249782288E0
1.587048958E0,1.962243712E0,8.393978616E0,-3.340994359E0,9.245080892E0
1.596994958E0,2.004501832E0,8.545391096E0,-2.910535791E0,9.247321513E0
1.606939958E0,2.402239673E0,8.636010075E0,-2.317123071E0,9.258535779E0
1.616885958E0,2.526262918E0,8.576941502E0,-2.114572451E0,9.187891298E0
1.626831958E0,2.431632311E0,8.521350269E0,-2.017804978E0,9.088332247E0
1.636777958E0,2.383011982E0,8.425369978E0,-1.894558098E0,8.958513033E0
1.646723958E0,2.344559668E0,8.233309994E0,-1.862467409E0,8.760886847E0
1.656669958E0,2.256011042E0,7.774321691E0,-2.216128646E0,8.392907110E0
1.666615958E0,2.029002542E0,6.846327052E0,-3.379450911E0,7.899983157E0
1.676561958E0,-1.003825425E0,-4.593198395E-1,-2.780089087E0,2.991243142E0
1.686507958E0,-1.645170725E1,-4.313108813E1,6.050632684E0,4.655705736E1
1.696453958E0,-2.788582051E1,-8.663026082E1,9.305051998E0,9.148226641E1
1.706399958E0,-2.941033464E1,-1.138839646E2,1.547675187E1,1.186341225E2
1.716345958E0,-4.766235925E0,-9.084878835E1,1.967909898E1,9.307785067E1
1.726291958E0,3.213092363E0,-3.916843476E1,3.574057358E0,3.946218608E1
1.736237958E0,-9.035838296E-1,-1.734010513E1,-2.072229838E0,1.748684780E1
1.746182958E0,-2.547973922E0,-8.997894251E0,-2.395004913E0,9.653513381E0
1.756128958E0,-2.025389109E0,-5.209192039E0,-4.061487687E-1,5.603823656E0
1.766074958E0,-6.374600883E-1,-2.485516888E0,8.895743394E-1,2.715785719E0
1.776020958E0,-6.967974865E-1,-5.938730425E-1,1.110969220E0,1.439605687E0
1.785966958E0,-9.999494518E-1,5.402189916E-1,2.074264085E0,2.365228733E0
1.795912958E0,-9.220043130E-1,1.926446473E0,2.998745717E0,3.681543676E0
1.805858958E0,-4.467078339E-1,3.456142992E0,3.093000494E0,4.659519753E0
1.815804958E0,5.801124975E-2,4.990003313E0,2.816211432E0,5.730143558E0
1.825750958E0,4.641401379E-1,6.637806571E0,2.063339147E0,6.966582417E0
1.835696958E0,8.039010818E-1,8.417058161E0,1.034227511E0,8.518377285E0
1.845642958E0,1.280072304E0,9.937559348E0,2.788063520E-1,1.002354248E1
1.855588958E0,1.755848401E0,1.076841361E1,-5.892350310E-1,1.092652430E1
1.865534958E0,2.028881359E0,1.091682881E1,-1.009603717E0,1.114956548E1
1.875479958E0,2.251050265E0,1.102893630E1,-9.463683450E-1,1.129602923E1
1.885425958E0,2.443439739E0,1.131117205E1,-5.478105779E-1,1.158503808E1
1.895371958E0,2.638763055E0,1.176755424E1,-3.856180251E-2,1.205984620E1
1.905317958E0,2.982392516E0,1.212868764E1,4.081330944E-1,1.249665162E1
1.915263958E0,3.374604739E0,1.244215453E1,7.079522198E-1,1.291109457E1
1.925209958E0,3.747524366E0,1.240124507E1,7.424548852E-1,1.297636534E1
1.935155958E0,3.925468587E0,1.223243245E1,5.873093967E-1,1.286027370E1
1.945101958E0,3.959071950E0,1.224730075E1,4.228302902E-1,1.287825344E1
1.955047958E0,3.825013422E0,1.225311288E1,3.595803007E-1,1.284129281E1
1.964993958E0,3.767103767E0,1.226896702E1,3.151285978E-1,1.283814350E1
1.974939958E0,3.781156088E0,1.232818060E1,2.603454497E-1,1.289763382E1
1.984885958E0,3.926565817E0,1.261247691E1,1.551751631E-1,1.321047206E1
1.994830833E0,4.280565608E0,1.319013504E1,-9.026405275E-2,1.386762603E1
2.004776833E0,4.515354120E0,1.302002784E1,-3.336234140E-1,1.378480512E1
2.014722833E0,4.819948448E0,1.220671522E1,-3.382976782E-1,1.312822322E1
2.024668833E0,5.035796367E0,1.158360552E1,-2.109768963E-1,1.263264316E1
2.034614833E0,5.036267068E0,1.106619944E1,-2.643958890E-1,1.216119489E1
2.044560833E0,5.031284655E0,1.054017105E1,-5.239128613E-1,1.169117256E1
2.054506833E0,4.972772738E0,9.963796974E0,-7.137778008E-1,1.115863780E1
2.064452833E0,4.785624999E0,9.517014735E0,-5.768208075E-1,1.066810660E1
2.074398833E0,4.569279190E0,9.183222336E0,-5.394559300E-1,1.027136298E1
2.084344833E0,4.426281146E0,8.988907081E0,-5.114372420E-1,1.003264588E1
2.094290833E0,4.345501861E0,8.856127338E0,-4.381558424E-1,9.874530794E0
2.104236833E0,4.317772026E0,8.727178107E0,-3.201204389E-1,9.742138886E0
2.114182833E0,4.384796028E0,8.671431338E0,-2.562712012E-1,9.720382327E0
2.124127833E0,4.475435179E0,8.593873869E0,-2.421010405E-1,9.692409455E0
2.134073833E0,4.512511497E0,8.502566673E0,-2.397358418E-1,9.628804355E0
2.144019833E0,4.492281007E0,8.452287635E0,-2.998106835E-1,9.576619517E0
2.153965833E0,4.518232412E0,8.438442013E0,-3.416042787E-1,9.578017604E0
2.163911833E0,4.561341594E0,8.410083602E0,-4.376435898E-1,9.577414852E0
2.173857833E0,4.568699146E0,8.250496715E0,-4.521470600E-1,9.441829531E0
2.183803833E0,3.114542514E0,5.366690885E0,1.468791336E0,6.376448394E0
2.193749833E0,-1.049497792E1,-1.811253167E1,4.451834355E0,2.140156990E1
2.203695833E0,-4.041962664E1,-7.197496791E1,1.063923575E1,8.323061673E1
2.213641833E0,-5.587049639E1,-1.330604837E2,-1.202488816E0,1.443192664E2
2.223587833E0,-2.936798911E1,-1.083496732E2,-2.589212872E-2,1.122592140E2
2.233533833E0,-1.427810774E1,-3.898225941E1,6.023799811E0,4.194957775E1
2.243479833E0,-1.003005528E1,-1.523728500E1,8.929967147E-1,1.826401670E1
2.253424833E0,-6.284760461E0,-8.942084332E0,1.873968297E-1,1.093134044E1
2.263370833E0,-2.858614855E0,-5.166262366E0,6.647296017E-1,5.941701033E0
2.273316833E0,-1.971543416E0,-1.758809724E0,2.130491678E-1,2.650619745E0
2.283262833E0,-2.089745465E0,-3.749567968E-1,4.237418711E-1,2.164990966E0
2.293208833E0,-2.005948433E0,6.850001442E-1,1.365439460E0,2.521404219E0
2.303154833E0,-1.587217918E0,2.430957103E0,2.080572061E0,3.571777325E0
2.313100833E0,-1.065751824E0,4.541542338E0,1.645997638E0,4.946791079E0
2.323046833E0,3.080137789E-2,6.502889087E0,5.486004271E-1,6.526061418E0
2.332992833E0,1.586567708E0,8.232166863E0,1.532778148E-1,8.385061863E0
2.342938833E0,2.636251091E0,9.503127598E0,2.450819145E-1,9.865055453E0
2.352884833E0,3.267032343E0,1.025038422E1,1.710316426E-1,1.075979223E1
2.362830833E0,3.692380152E0,1.029297183E1,-5.452477433E-2,1.093535153E1
2.372776833E0,3.825949561E0,1.009932491E1,2.602875622E-1,1.080287014E1
2.382721833E0,4.143705971E0,1.024353830E1,6.454126670E-1,1.106873676E1
2.392667833E0,4.729879107E0,1.077191960E1,9.689514613E-1,1.180444303E1
2.402613833E0,5.500238952E0,1.185519933E1,1.389373283E0,1.314263055E1
2.412559833E0,6.334660599E0,1.346522548E1,1.474970673E0,1.495378750E1
2.422505833E0,7.449686617E0,1.680618417E1,1.363543647E0,1.843379799E1
2.432451833E0,7.526554699E0,1.650224356E1,1.688595774E0,1.821604853E1
2.442397833E0,8.445560998E0,1.409013847E1,2.128695815E0,1.656474716E1
2.452343833E0,8.916740745E0,1.374793134E1,2.188333322E0,1.653186875E1
2.462289833E0,8.919758493E0,1.362503456E1,2.035894656E0,1.641184101E1
2.472235833E0,8.702018707E0,1.327574061E1,1.007008211E0,1.590548597E1
2.482181833E0,7.896684034E0,1.244196625E1,-3.463710020E-1,1.474042455E1
2.492127833E0,7.062632516E0,1.165855630E1,-1.116488991E0,1.367659536E1
2.502072833E0,6.612876382E0,1.085189431E1,-1.633901065E0,1.281262568E1
2.512018833E0,6.516400833E0,1.022201586E1,-2.142845639E0,1.231035644E1
2.521964833E0,6.461467411E0,9.668437740E0,-2.543756910E0,1.190377875E1
2.531910833E0,6.272200057E0,9.047311994E0,-3.157164915E0,1.145259963E1
2.541856833E0,6.317319512E0,8.506945653E0,-3.854539522E0,1.127537694E1
2.551802833E0,6.311014459E0,7.990940566E0,-3.886863515E0,1.089916247E1
2.561748833E0,6.138917454E0,7.608394668E0,-3.786267432E0,1.048378739E1
2.571694833E0,5.976423916E0,7.386029150E0,-3.710337536E0,1.019988598E1
2.581640833E0,5.794052768E0,7.258167500E0,-3.605127708E0,9.962378668E0
2.591586833E0,5.633009339E0,7.236740379E0,-3.434001925E0,9.792526474E0
2.601532833E0,5.519326603E0,7.267836456E0,-3.265167666E0,9.692560693E0
2.611478833E0,5.466848427E0,7.372882270E0,-3.078278667E0,9.680992937E0
2.621424833E0,5.435893267E0,7.461033724E0,-2.853825985E0,9.662312487E0
2.631369833E0,5.430956463E0,7.531641192E0,-2.658719602E0,9.658659175E0
2.641315833E0,5.422193826E0,7.565298350E0,-2.542009177E0,9.648613147E0
2.651261833E0,5.426406160E0,7.521311501E0,-2.512502081E0,9.608781255E0
2.661207833E0,5.387861899E0,7.457362257E0,-2.462957160E0,9.524046706E0
2.671153833E0,5.320030689E0,7.379409517E0,-2.439335579E0,9.418533295E0
2.681099833E0,5.224755573E0,7.269543843E0,-2.515609583E0,9.299066085E0
2.691045833E0,4.918276688E0,6.888883672E0,-2.243841086E0,8.756768048E0
2.700991833E0,6.080999029E-1,2.470181980E0,-1.038327506E0,2.747673291E0
2.710937833E0,-2.065169910E1,-2.313081797E1,3.395636589E0,3.119387381E1
2.720883833E0,-4.187420807E1,-6.463163220E1,1.420621389E1,7.831036774E1
2.730829833E0,-6.794304608E1,-1.119642254E2,1.185152260E1,1.315017258E2
2.740775833E0,-5.251012495E1,-8.230897199E1,3.911135307E0,9.771068043E1
2.750721833E0,-2.829370824E1,-2.700946088E1,1.149654399E1,4.077027627E1
2.760666833E0,-2.213727312E1,-1.196721678E1,6.146403059E0,2.590465999E1
2.770612833E0,-1.365240421E1,-6.772850940E0,2.516748036E0,1.544647763E1
2.780558833E0,-7.800440619E0,-3.604937088E0,1.840180308E0,8.787986620E0
2.790504833E0,-4.347379110E0,-1.355572869E0,1.955167412E0,4.955800897E0
2.800450833E0,-2.960168712E0,3.478210384E-1,2.111427233E0,3.652629633E0
2.810396833E0,-2.190500300E0,1.640617030E0,1.722784297E0,3.233867891E0
2.820342833E0,-5.417100316E-1,2.726445562E0,1.295737141E0,3.066902329E0
2.830288833E0,1.109778727E0,4.174313806E0,1.097065564E0,4.456462434E0
2.840234833E0,2.547434224E0,5.780871390E0,8.922061712E-1,6.379962931E0
2.850180833E0,3.871747878E0,6.980158124E0,2.708845443E-1,7.986639938E0
2.860126833E0,4.777420186E0,7.978570781E0,-3.993905568E-1,9.308106583E0
2.870072833E0,5.095538539E0,8.798336383E0,-6.171572399E-1,1.018607477E1
2.880017833E0,5.227268121E0,9.310126796E0,-5.753212890E-1,1.069269786E1
2.889963833E0,5.406078315E0,9.364808203E0,-6.138395298E-1,1.083061007E1
2.899909833E0,5.724687833E0,9.251230717E0,-4.239146563E-1,1.088747097E1
2.909855833E0,6.256623659E0,9.251948755E0,-1.011990769E-1,1.116933913E1
2.919801833E0,6.639696391E0,9.324216832E0,7.294986248E-3,1.144668690E1
2.929747833E0,6.986033406E0,9.454890992E0,1.836610436E-3,1.175583386E1
2.939693833E0,7.344182382E0,9.458723842E0,2.990266085E-3,1.197516098E1
2.949639833E0,7.454705282E0,9.388281265E0,-2.068867689E-1,1.198979808E1
2.959585833E0,7.411775025E0,9.231772937E0,-5.764540409E-1,1.185294646E1
2.969531833E0,7.274597592E0,9.167155357E0,-9.678527695E-1,1.174279551E1
2.979477833E0,7.199170849E0,9.360930914E0,-1.223892403E0,1.187236291E1
2.989423833E0,7.767357658E0,1.066808474E1,-1.197028540E0,1.325038695E1
2.999369750E0,8.370615481E0,1.130360575E1,-1.107950302E0,1.410908432E1
3.009314750E0,8.764748222E0,1.042038383E1,-9.965427178E-1,1.365277656E1
3.019260750E0,9.055756543E0,1.002272989E1,-7.883648837E-1,1.353082999E1
3.029206750E0,9.230718099E0,9.829057245E0,-7.155056530E-1,1.350290603E1
3.039152750E0,9.424201296E0,9.629271920E0,-1.008969221E0,1.351134585E1
3.049098750E0,9.420038078E0,9.009682823E0,-1.314126635E0,1.310108510E1
3.059044750E0,9.246602646E0,8.325659164E0,-1.420202143E0,1.252330767E1
3.068990750E0,9.082925046E0,7.664986945E0,-1.504804337E0,1.197981587E1
3.078936750E0,8.952034539E0,7.052191143E0,-1.699468086E0,1.152217489E1
3.088882750E0,8.760385614E0,6.540125910E0,-1.884746470E0,1.109368614E1
3.098828750E0,8.683509346E0,6.138587671E0,-1.974990788E0,1.081601506E1
3.108774750E0,8.649268051E0,5.865122166E0,-2.034155547E0,1.064646818E1
3.118719750E0,8.572561353E0,5.627251001E0,-2.085245010E0,1.046436853E1
3.128665750E0,8.558702867E0,5.405295957E0,-2.139334824E0,1.034627337E1
3.138611750E0,8.618364347E0,5.199034840E0,-2.149414839E0,1.029204311E1
3.148557750E0,8.588555827E0,4.965583586E0,-2.084447595E0,1.013731884E1
3.158503750E0,8.249964618E0,4.637609752E0,-1.924321010E0,9.657761219E0
3.168449750E0,7.459409367E0,4.238229135E0,-1.775617107E0,8.761175174E0
3.178395750E0,6.689090161E0,3.697533596E0,-1.404224334E0,7.770941246E0
3.188341750E0,5.224383690E0,2.324787455E0,-3.341841620E-1,5.728045103E0
3.198287750E0,3.750304717E0,5.922796762E-1,2.484481931E-2,3.796866860E0
3.208233750E0,2.339352284E0,-9.082591170E-1,3.278254612E-1,2.530804865E0
3.218179750E0,-1.337273189E1,-1.196835816E1,-2.054674743E0,1.806358888E1
3.228125750E0,-8.078349423E1,-6.632371818E1,-1.849682004E1,1.061458472E2
3.238071750E0,-1.076572600E2,-8.970654179E1,-9.751920776E0,1.404722365E2
3.248016750E0,-5.225847482E1,-9.295784746E0,1.522091630E1,5.521807763E1
3.257962750E0,-5.424945175E1,5.162625983E0,1.072960681E1,5.554079747E1
3.267908750E0,-5.371027765E1,-2.654563108E0,-2.722916182E0,5.384472958E1
3.277854750E0,-2.864091591E1,-1.215035625E0,-1.011516385E1,3.039892951E1
3.287800750E0,-1.054821565E1,1.838324255E0,-9.323040372E0,1.419730155E1
3.297746750E0,-2.733661026E0,3.308944308E0,-5.539052185E0,7.007361425E0
3.307692750E0,2.318496435E0,4.432557547E0,-2.550739070E0,5.615092335E0
3.317638750E0,5.139958667E0,4.414165130E0,-2.301397423E0,7.155449600E0
3.327584750E0,6.417458342E0,4.627929979E0,-2.194032018E0,8.210681090E0
3.337530750E0,9.206033494E0,4.609436697E0,-1.438743225E0,1.039557316E1
3.347476750E0,1.031273659E1,4.622054112E0,-1.480411507E0,1.139769882E1
3.357422750E0,1.075992228E1,4.462247077E0,-1.573745348E0,1.175432903E1
3.367368750E0,1.063567363E1,4.281431873E0,-1.345346088E0,1.154375019E1
3.377313750E0,1.130909044E1,4.230057651E0,-8.713520765E-3,1.207431117E1
3.387259750E0,1.356960530E1,4.437434417E0,3.531228257E0,1.470695703E1
3.397205750E0,1.430977158E1,4.656102448E0,3.875915481E0,1.553935564E1
3.407151750E0,1.210915092E1,4.757576783E0,1.326195872E0,1.307764766E1
3.417097750E0,1.022950966E1,5.060617797E0,-9.631843525E-1,1.145340318E1
3.427043750E0,9.235000600E0,5.215922184E0,-2.225241532E0,1.083710202E1
3.436989750E0,8.729460275E0,5.291985104E0,-2.643212786E0,1.054491142E1
3.446935750E0,8.697517521E0,5.260354006E0,-2.520194385E0,1.047232138E1
3.456881750E0,8.874526772E0,5.010802444E0,-2.562646925E0,1.050868811E1
3.466827750E0,9.046736044E0,4.798604649E0,-2.545635620E0,1.055226518E1
3.476773750E0,9.346436836E0,4.780322452E0,-2.582784151E0,1.081101930E1
3.486719750E0,9.585809566E0,4.860371419E0,-2.568221660E0,1.105019085E1
3.496664750E0,1.004751507E1,4.705773961E0,-2.576716495E0,1.139018593E1
3.506610750E0,1.088528542E1,4.433667056E0,-2.828635011E0,1.208916946E1
3.516556750E0,1.117157094E1,3.756369449E0,-2.479056884E0,1.204408701E1
3.526502750E0,1.127438370E1,3.207001319E0,-1.974753391E0,1.188680934E1
3.536448750E0,1.148681305E1,2.687138532E0,-1.735572889E0,1.192391717E1
3.546394750E0,1.150843605E1,1.699176164E0,-1.398109608E0,1.171691130E1
3.556340750E0,1.127382237E1,6.136043255E-1,-9.267725712E-1,1.132848130E1
3.566286750E0,1.103165877E1,-2.709743904E-1,-6.044360375E-1,1.105152773E1
3.576232750E0,1.105431439E1,-9.179076806E-1,-4.940499616E-1,1.110335564E1
3.586178750E0,1.104526758E1,-1.454180606E0,-3.606000551E-1,1.114641689E1
3.596124750E0,1.099950844E1,-1.924714674E0,-2.346686447E-1,1.116909942E1
3.606070750E0,1.089933394E1,-2.474247549E0,-2.054762743E-2,1.117666334E1
3.616015750E0,1.070618403E1,-2.986146137E0,1.028444103E-1,1.111530576E1
3.625961750E0,1.043909492E1,-3.493997574E0,1.803422006E-1,1.100977952E1
3.635907750E0,1.006182087E1,-4.171345759E0,2.395721197E-1,1.089485013E1
3.645853750E0,9.725704200E0,-4.781947978E0,2.825889158E-1,1.084141158E1
3.655799750E0,9.426853593E0,-5.129719023E0,3.429298425E-1,1.073765276E1
3.665745750E0,9.119063762E0,-5.427200797E0,3.721062791E-1,1.061839420E1
3.675691750E0,8.864742626E0,-5.774084526E0,4.369787979E-1,1.058842124E1
3.685637750E0,8.642036800E0,-6.075349449E0,5.323772542E-1,1.057724428E1
3.695583750E0,8.420942466E0,-6.307309663E0,5.927766895E-1,1.053782764E1
3.705529750E0,8.189393311E0,-6.415060399E0,6.946772861E-1,1.042601263E1
3.715475750E0,7.936273193E0,-6.238549916E0,8.015725744E-1,1.012652240E1
3.725421750E0,7.293174781E0,-5.202330916E0,8.988374984E-1,9.003474562E0
3.735367750E0,3.212642713E0,-2.721036887E0,3.909366524E-1,4.228232066E0
3.745313750E0,-7.111955768E1,-2.493073829E0,-2.343400779E1,7.492235730E1
3.755258750E0,-9.883052773E1,1.006219977E1,-3.120387215E1,1.041268588E2
3.765204750E0,-3.178562801E1,4.520627432E1,-4.415724071E-1,5.526416897E1
3.775150750E0,-2.669473567E1,8.926745799E1,3.697960442E0,9.324678482E1
3.785096750E0,-2.252580890E1,9.908951729E1,2.128969348E1,1.038238679E2
3.795042750E0,-1.023828048E1,5.813978208E1,2.272939024E1,6.325884782E1
3.804988750E0,-2.410169959E0,2.664440517E1,9.893479528E0,2.852392300E1
3.814934750E0,-1.220999493E0,1.177500360E1,2.425905694E0,1.208414531E1
3.824880750E0,-6.844236088E-1,2.878811722E0,-2.742647831E-1,2.971735819E0
3.834826750E0,-4.295393854E-1,-1.543890050E0,-1.192443738E0,1.997504102E0
3.844772750E0,6.827208996E-1,-4.856235391E0,-2.132987087E0,5.347781214E0
3.854718750E0,2.207027163E0,-7.357667815E0,-2.054389837E0,7.951525777E0
3.864664750E0,3.393572814E0,-9.510977485E0,-1.311889344E0,1.018312736E1
3.874610750E0,4.092340812E0,-1.251880919E1,4.218802638E-1,1.317747395E1
3.884555750E0,2.788649411E0,-1.602973007E1,2.084000283E0,1.640341028E1
3.894501750E0,1.960716565E0,-1.580229677E1,1.163284843E0,1.596590819E1
3.904447750E0,3.059751180E0,-1.720557005E1,2.383682950E0,1.763733717E1
3.914393750E0,5.278647605E0,-1.877944638E1,4.190021766E0,1.995214297E1
3.924339750E0,6.071135361E0,-1.973241623E1,4.508988549E0,2.113191692E1
3.934285750E0,8.092283338E0,-2.070737161E1,5.210725763E0,2.283488453E1
3.944231750E0,8.235923114E0,-2.157841496E1,7.307488180E0,2.422514819E1
3.954177750E0,5.681090409E0,-2.063655481E1,8.901160254E0,2.318130360E1
3.964123750E0,4.784598813E0,-1.934829275E1,8.104442623E0,2.151582693E1
3.974069750E0,3.301736737E0,-1.803618107E1,3.746117526E0,1.871466509E1
3.984015750E0,2.563242756E0,-1.663191610E1,9.381132460E-1,1.685440307E1
3.993962500E0,2.497894274E0,-1.491788552E1,-6.392560606E-1,1.513906974E1
4.003908500E0,2.542543905E0,-1.347677256E1,-1.894148646E0,1.384470033E1
4.013854500E0,2.213203869E0,-1.207168664E1,-2.618301893E0,1.254907943E1
4.023800500E0,1.724701746E0,-1.088084738E1,-3.628090308E0,1.159872731E1
4.033746500E0,-7.787059412E-1,-4.879956960E0,-5.968529590E0,7.748787540E0
4.043692500E0,-2.688182844E0,-5.889415593E0,-6.365405259E0,9.079092859E0
4.053637500E0,-2.680311030E0,-1.034951323E1,-5.255109054E0,1.191271013E1
4.063583500E0,-3.460505307E0,-9.367102650E0,-3.782519074E0,1.067825639E1
4.073529500E0,-1.990466760E0,-8.607585005E0,-2.829484611E0,9.276769950E0
4.083475500E0,8.593217958E-1,-8.327137340E0,-2.109283644E0,8.633002242E0
4.093421500E0,2.051526456E0,-8.110792115E0,3.896862546E0,9.229260384E0
4.103367500E0,2.192875439E0,-6.087114632E0,7.087060429E0,9.596254100E0
4.113313500E0,5.076584789E0,-8.617444580E0,-1.573234302E-1,1.000284034E1
4.123259500E0,6.053510683E0,-9.792665344E0,7.296757954E-1,1.153575801E1
4.133205500E0,4.660279407E0,-8.661137899E0,1.190989389E0,9.907167586E0
4.143151500E0,4.379212814E0,-7.841810254E0,-5.233061543E0,1.039501929E1
4.153097500E0,4.468304207E0,-6.972634512E0,-1.225838707E1,1.479362795E1
4.163043500E0,3.072222706E0,-5.115047774E0,-1.550681240E1,1.661515865E1
4.172989500E0,5.640923692E-1,-2.585525326E0,-1.023346588E1,1.057009770E1
4.182935500E0,-1.973396399E0,-2.709921330E-1,-2.798248785E0,3.434810962E0
4.192881500E0,-4.254438202E0,7.967030132E-1,1.339284280E0,4.530856706E0
4.202826500E0,-5.899227805E0,9.463508034E-1,2.337045411E0,6.415469569E0
4.212772500E0,-6.543319659E0,1.814503868E0,2.062613508E0,7.096607001E0
4.222718500E0,-6.191549411E0,2.681033746E0,1.744554797E0,6.968981095E0
4.232664500E0,-4.990888581E0,2.385780346E0,4.102891821E-1,5.547004047E0
4.242610500E0,-1.996375372E0,8.842042565E-2,-2.597497500E0,3.277243667E0
4.252556500E0,-1.966114276E0,2.675870655E1,-6.625032159E0,2.763666102E1
4.262502500E0,-1.727116938E0,7.386788469E1,-6.470690224E0,7.417086459E1
4.272448500E0,1.157749050E1,8.239567918E1,-5.699222624E0,8.340004420E1
4.282394500E0,2.167586465E1,6.610355414E1,-5.748471383E0,6.980378143E1
4.292340500E0,2.088043516E1,4.777267340E1,-2.422373976E0,5.219280403E1
4.302286500E0,1.300276803E1,3.031520296E1,-2.080207926E0,3.305163796E1
4.312232500E0,3.375626248E0,1.456708532E1,-2.431992645E0,1.514956817E1
4.322178500E0,5.061067741E-1,5.099299468E0,-1.659829227E0,5.386467506E0
4.332124500E0,-5.015536934E-1,-6.976055717E-1,-9.909543145E-1,1.311563988E0
4.342069500E0,-1.016050710E0,-4.855874033E0,-4.178700972E-1,4.978602925E0
4.352015500E0,-1.105924315E0,-7.800494413E0,1.207240263E-1,7.879426120E0
4.361961500E0,-1.007776242E0,-9.643920949E0,5.714121695E-1,9.713255690E0
4.371907500E0,-8.858557295E-1,-1.101113504E1,1.098774852E0,1.110122252E1
4.381853500E0,-7.478240179E-1,-1.186036359E1,1.367549136E0,1.196234324E1
4.391799500E0,-6.066088629E-1,-1.214033295E1,1.359938400E0,1.223131600E1
4.401745500E0,-5.910996350E-1,-1.228201099E1,1.386508732E0,1.237415044E1
4.411691500E0,-3.379542274E-1,-1.254264478E1,1.354718590E0,1.262011940E1
4.421637500E0,-1.885725586E-1,-1.324139991E1,2.345180789E0,1.344879564E1
4.431583500E0,-7.253688095E-1,-1.359292166E1,2.927592119E0,1.392352235E1
4.441529500E0,-1.442807479E0,-1.295025184E1,1.571687713E0,1.312482070E1
4.451475500E0,-3.222236093E-1,-1.426786108E1,1.374464491E0,1.433753258E1
4.461421500E0,5.940664391E-1,-1.771300780E1,7.179841416E-1,1.773750437E1
4.471367500E0,1.516620829E-1,-1.782659815E1,2.000290813E0,1.793911275E1
4.481313500E0,2.913067343E0,-1.675044150E1,2.942672088E0,1.725463911E1
4.491259500E0,1.224911792E0,-1.642074975E1,1.119809625E0,1.650440562E1
4.501205500E0,-1.749291480E0,-1.516217634E1,-1.302566689E0,1.531823397E1
4.511150500E0,-2.916707819E0,-1.335500547E1,-3.095743131E0,1.401595452E1
4.521096500E0,-3.085709016E0,-1.225891683E1,-4.030288698E0,1.326822780E1
4.531042500E0,-2.810424442E0,-1.147750896E1,-4.580453219E0,1.267328881E1
4.540988500E0,-2.336802313E0,-1.078924256E1,-4.691129317E0,1.199479447E1
4.550934500E0,-1.838925641E0,-1.023669472E1,-4.425809568E0,1.130306846E1
4.560880500E0,-1.590695696E0,-9.815741966E0,-4.097285510E0,1.075485247E1
4.570826500E0,-1.608959035E0,-9.595083835E0,-3.681711615E0,1.040237393E1
4.580772500E0,-1.727367930E0,-9.490811023E0,-3.195265957E0,1.016213651E1
4.590718500E0,-1.847666059E0,-9.465439369E0,-2.622792554E0,9.994371071E0
4.600664500E0,-1.835087383E0,-9.513588266E0,-2.201072651E0,9.935825493E0
4.610610500E0,-2.053966791E0,-9.231196986E0,-1.933885301E0,9.652651954E0
4.620556500E0,-2.125131353E0,-8.751971471E0,-5.986322375E-1,9.026159119E0
4.630502500E0,-1.573221146E0,-9.427818384E0,1.161140669E0,9.628449091E0
4.640448500E0,-1.652819000E0,-9.421716229E0,2.695383398E0,9.938090310E0
4.650394500E0,-1.747125233E0,-8.828739565E0,3.360944474E0,9.607030584E0
4.660340500E0,-1.925149122E0,-7.415011459E0,3.693745769E0,8.504842849E0
4.670285500E0,-2.657548989E0,-5.659660363E0,3.882842385E0,7.360080641E0
4.680231500E0,-2.953379509E0,-4.988965432E0,3.038452404E0,6.545564882E0
4.690177500E0,-2.537980446E0,-5.093628838E0,1.394910597E0,5.859366438E0
4.700123500E0,-1.482328809E0,-4.077166411E0,-5.858500779E-1,4.377648336E0
4.710069500E0,6.837972258E-1,-9.543445319E-1,-3.899107584E0,4.072025551E0
4.720015500E0,3.090195585E0,5.740699264E0,-4.400844296E0,7.865899014E0
4.729961500E0,7.169629546E0,3.645686100E1,-7.662980034E-1,3.716306654E1
4.739907500E0,2.208434880E1,1.026225921E2,2.429080147E0,1.050000729E2
4.749853500E0,4.166843286E1,1.171476090E2,-1.750370584E-1,1.243376501E2
4.759799500E0,2.440309491E1,6.498358313E1,1.187447804E0,6.942468689E1
4.769745500E0,7.852732269E0,3.437781565E1,-8.482783788E-1,3.527349131E1
4.779691500E0,2.740144711E0,1.571978554E1,-2.167547640E0,1.610336341E1
4.789637500E0,-3.650523444E-1,6.560735006E0,-9.285787761E-1,6.636171003E0
4.799583500E0,-1.796157498E0,2.580121329E0,8.238323396E-1,3.249908853E0
4.809528500E0,-2.025168669E0,8.689324987E-1,1.071907480E0,2.450579008E0
4.819474500E0,-2.152806224E0,-1.887527406E0,1.312923278E0,3.149778068E0
4.829420500E0,-2.328315080E0,-4.831920914E0,1.818571776E0,5.663542543E0
4.839366500E0,-2.550609262E0,-7.288392343E0,2.271739760E0,8.049041688E0
4.849312500E0,-2.736816183E0,-9.137949684E0,2.462467749E0,9.851702120E0
4.859258500E0,-2.839176079E0,-1.048382378E1,2.326298960E0,1.110779675E1
4.869204500E0,-2.726617177E0,-1.143098383E1,1.770070292E0,1.188423247E1
4.879150500E0,-2.384654464E0,-1.203681853E1,1.477903052E0,1.235944071E1
4.889096500E0,-1.817946709E0,-1.239066629E1,1.706960270E0,1.263911606E1
4.899042500E0,-1.226474241E0,-1.293929650E1,2.338938447E0,1.320606929E1
4.908988500E0,-7.599374753E-1,-1.363182201E1,2.756133630E0,1.392840080E1
4.918934500E0,-4.803344402E-1,-1.432624670E1,2.372391976E0,1.452929142E1
4.928880500E0,-7.564244682E-1,-1.515848909E1,1.637948946E0,1.526547890E1
4.938826500E0,-1.707530812E0,-1.635621988E1,6.692255259E-1,1.645871966E1
4.948772500E0,-3.977556168E0,-1.798410810E1,1.143908340E-1,1.841907117E1
4.958718500E0,-6.890896869E0,-1.836061266E1,-2.700828910E-3,1.961113368E1
4.968663500E0,-6.763111818E0,-1.595747252E1,8.363857269E-2,1.733169368E1
4.978609500E0,-6.810112907E0,-1.417872145E1,-1.737419878E0,1.582505632E1
4.988555500E0,-6.745591806E0,-1.275148861E1,-3.983364792E0,1.496564952E1
4.998500250E0,-5.540939666E0,-1.099344838E1,-5.497797155E0,1.348271832E1
5.008446250E0,-4.025692494E0,-9.578191813E0,-6.019996197E0,1.200784380E1
5.018392250E0,-3.097194702E0,-8.593433574E0,-5.692693623E0,1.076320010E1
5.028338250E0,-2.464936735E0,-7.985160593E0,-5.219493663E0,9.853010551E0
5.038284250E0,-2.381428848E0,-7.648134685E0,-4.991377993E0,9.438168349E0
5.048230250E0,-2.512509974E0,-7.520075984E0,-4.618531164E0,9.175787666E0
5.058176250E0,-2.542966659E0,-7.631746109E0,-3.795950421E0,8.894912461E0
5.068122250E0,-2.666172463E0,-7.796505443E0,-2.569059274E0,8.630992890E0
5.078068250E0,-2.942418319E0,-8.008769311E0,-1.294477066E0,8.629825162E0
5.088014250E0,-3.367869039E0,-8.175571078E0,-2.532208367E-1,8.845712244E0
5.097960250E0,-3.639424843E0,-8.654068031E0,2.833196716E-1,9.392474472E0
5.107906250E0,-3.192853396E0,-9.172047722E0,4.513904303E-3,9.711889240E0
5.117851250E0,-2.392435647E0,-9.325278686E0,-4.463233794E-1,9.637622915E0
5.127797250E0,-1.578818685E0,-9.359420578E0,-6.623932005E-1,9.514735244E0
5.137743250E0,-8.275809896E-1,-9.138819750E0,-7.624583562E-1,9.207836850E0
5.147689250E0,-2.360456640E-1,-8.721014557E0,-9.511408424E-1,8.775903450E0
5.157635250E0,2.048873135E-1,-8.090070752E0,-1.259843423E0,8.190142186E0
5.167581250E0,5.068015695E-1,-7.490933461E0,-1.508458408E0,7.658092368E0
5.177527250E0,8.296663991E-1,-6.836945195E0,-1.490803325E0,7.046606310E0
5.187473250E0,1.515335172E0,-5.558381326E0,-1.715305416E0,6.011165970E0
5.197419250E0,3.650291017E0,-2.801126785E0,-2.057452170E0,5.040242574E0
5.207365250E0,7.662745707E0,3.129059688E0,-1.471616126E0,8.406803217E0
5.217311250E0,1.416272346E1,1.837979036E1,9.626937711E-1,2.322339787E1
5.227257250E0,2.288109274E1,6.256661081E1,9.685278890E0,6.731960948E1
5.237203250E0,2.524057290E1,1.234161891E2,2.270842914E1,1.280012305E2
5.247148250E0,-2.410087075E0,9.315419111E1,1.671656156E1,9.467288562E1
5.257094250E0,-1.415709143E1,4.424694737E1,1.012787335E1,4.754775924E1
5.267040250E0,-2.964128329E1,1.723150362E1,8.439179932E0,3.530934933E1
5.276986250E0,-2.258979615E1,8.779821759E0,5.691927638E0,2.489542529E1
5.286932250E0,-5.372660308E0,1.155101782E1,3.568066885E0,1.322961045E1
5.296878250E0,-6.723714010E-1,1.014200490E1,2.542214414E0,1.047736613E1
5.306824250E0,1.320976063E0,7.180698325E0,1.346409405E0,7.424299595E0
5.316770250E0,1.545683683E0,2.795998777E0,8.148814219E-1,3.297086432E0
5.326716250E0,1.679994812E0,-1.765711192E0,9.254142630E-1,2.607011726E0
5.336662250E0,2.167159531E0,-5.604808803E0,1.495178066E0,6.192416297E0
5.346608250E0,2.354995925E0,-8.781698715E0,1.695416989E0,9.248712175E0
5.356554250E0,2.378331578E0,-1.109007596E1,1.568693793E0,1.145019852E1
5.366500250E0,1.848105332E0,-1.274685528E1,1.310414676E0,1.294662116E1
5.376446250E0,1.057855890E0,-1.374268522E1,1.628520164E0,1.387921230E1
5.386392250E0,8.110460870E-1,-1.393772845E1,2.592434980E0,1.419995737E1
5.396337250E0,9.183227599E-1,-1.411729762E1,2.517129859E0,1.436931980E1
5.406283250E0,7.157776947E-1,-1.433021111E1,2.002944280E0,1.448720380E1
5.416229250E0,9.105591193E-2,-1.500490378E1,1.731387452E0,1.510473870E1
5.426175250E0,-5.619400822E-1,-1.664250657E1,1.449466873E0,1.671495605E1
5.436121250E0,-1.050674632E0,-1.985194735E1,6.128232837E-2,1.987982611E1
5.446067250E0,-4.576246147E0,-2.258442841E1,-1.665224306E0,2.310349340E1
5.456013250E0,-5.160364280E0,-1.971181766E1,-3.184268514E0,2.062340129E1
5.465959250E0,-5.453826678E0,-1.701793524E1,-5.415522153E0,1.867303471E1
5.475905250E0,-5.844937577E0,-1.538836419E1,-6.392266783E0,1.765859910E1
5.485851250E0,-4.327465248E0,-1.344323761E1,-7.046224059E0,1.578280287E1
5.495797250E0,-3.534238404E0,-1.163947683E1,-6.624798855E0,1.385121734E1
5.505743250E0,-3.246616497E0,-1.029966455E1,-5.351434330E0,1.205244614E1
5.515689250E0,-3.201734439E0,-9.254151401E0,-4.178795696E0,1.064672509E1
5.525635250E0,-3.071428362E0,-8.707157241E0,-3.131635387E0,9.749635869E0
5.535580250E0,-2.596917748E0,-8.555126710E0,-2.118270961E0,9.188103541E0
5.545526250E0,-2.042704908E0,-8.554883466E0,-1.193089271E0,8.875930174E0
5.555472250E0,-1.748954827E0,-8.442088337E0,-4.213684863E-1,8.631642363E0
5.565418250E0,-1.513986074E0,-8.339610620E0,5.227045342E-2,8.476083490E0
5.575364250E0,-1.357052945E0,-8.336871784E0,2.500500378E-1,8.450298744E0
5.585310250E0,-1.408752418E0,-8.421156474E0,1.356330375E-1,8.539253835E0
5.595256250E0,-1.546071939E0,-8.522376455E0,-7.146116138E-2,8.661774967E0
5.605202250E0,-1.602746222E0,-8.606638341E0,-2.736629950E-1,8.758876093E0
5.615148250E0,-1.709323422E0,-8.634210886E0,-6.383884799E-1,8.824903628E0
5.625094250E0,-1.763052756E0,-8.442265508E0,-9.515991180E-1,8.676735723E0
5.635040250E0,-1.564226812E0,-8.195748650E0,-5.880989170E-1,8.364386516E0
5.644986250E0,-1.166200996E0,-8.028527638E0,-8.144191995E-2,8.113193796E0
5.654932250E0,-3.619451340E-1,-7.751880078E0,1.243805096E-2,7.760335284E0
5.664878250E0,2.638832344E-1,-7.545358760E0,-4.348628367E-1,7.562484966E0
5.674824250E0,7.142455781E-1,-7.213378998E0,-7.903612693E-1,7.291615339E0
5.684769250E0,1.297007888E0,-6.707396039E0,-9.902329874E-1,6.903039363E0
5.694715250E0,2.021103831E0,-5.721412223E0,-1.193099942E0,6.184084895E0
5.704661250E0,3.064636236E0,-4.067710294E0,-1.337428666E0,5.265641246E0
5.714607250E0,5.283365139E0,-9.498117703E-1,-1.098667263E0,5.479339316E0
5.724553250E0,9.033033679E0,8.483377281E0,3.618356448E-1,1.239735103E1
5.734499250E0,1.536934787E1,4.088820379E1,5.660548555E0,4.404661024E1
5.744445250E0,2.193545062E1,1.053124236E2,1.631424389E1,1.088026889E2
5.754391250E0,4.381392875E-1,1.212220238E2,2.196210925E1,1.231962063E2
5.764337250E0,-1.495589827E1,5.968037371E1,1.823674524E1,6.417168204E1
5.774283250E0,-9.201700122E0,2.583449798E1,9.827239931E0,2.913189344E1
5.784229250E0,-8.617662097E0,1.122172602E1,7.952422618E0,1.623059643E1
5.794175250E0,-1.061053996E1,3.184384289E0,7.845968794E0,1.357509071E1
5.804120250E0,-9.356917970E0,6.157679415E-1,4.565448386E0,1.042949678E1
5.814066250E0,-6.724383370E0,1.161924196E0,2.283585488E0,7.195982367E0
5.824012250E0,-2.736491078E0,7.887817901E-1,1.807966535E0,3.373322268E0
5.833958250E0,-1.077462189E0,-1.226490321E0,2.615942834E0,3.083562904E0
5.843904250E0,-1.255337998E-1,-3.667662510E0,3.061510607E0,4.779158317E0
5.853850250E0,2.609044800E-1,-6.474614291E0,2.712253785E0,7.024601195E0
5.863796250E0,9.090750229E-2,-9.163820105E0,2.212771613E0,9.427630737E0
5.873742250E0,2.566392286E-1,-1.115532504E1,1.763729863E0,1.129680855E1
5.883688250E0,4.999375596E-1,-1.221025396E1,1.686179996E0,1.233626533E1
5.893634250E0,5.208794720E-1,-1.257624522E1,1.884452209E0,1.272730998E1
5.903580250E0,5.307129904E-1,-1.267010239E1,1.936337623E0,1.282819372E1
5.913526250E0,7.828116368E-1,-1.268180150E1,1.774561538E0,1.282926155E1
5.923472250E0,1.290638954E0,-1.294856551E1,2.334280409E0,1.322043731E1
5.933418250E0,1.619477592E0,-1.336372483E1,2.090449031E0,1.362284208E1
5.943363250E0,1.542995426E0,-1.341201231E1,2.016067332E-1,1.350198335E1
5.953309250E0,2.012495707E0,-1.426522399E1,-1.787698916E0,1.451697702E1
5.963255250E0,3.440570687E0,-1.760575817E1,-3.893132315E0,1.835638109E1
5.973201250E0,1.294086472E0,-1.823155292E1,-5.468641183E0,1.907800351E1
5.983147250E0,9.724457574E-1,-1.529957655E1,-4.788992411E0,1.606104423E1
5.993093625E0,-2.373991482E-2,-1.599860417E1,-4.493509215E0,1.661768708E1
6.003039625E0,-4.603504112E-1,-1.541372824E1,-4.106133517E0,1.595792196E1
6.012985625E0,-4.369090699E-1,-1.384173588E1,-3.885849608E0,1.438347555E1
6.022931625E0,-8.877878688E-1,-1.247387334E1,-3.430717544E0,1.296747879E1
6.032877625E0,-1.226629923E0,-1.118159307E1,-2.777762480E0,1.158657020E1
6.042823625E0,-1.458226148E0,-1.012578239E1,-2.595112420E0,1.055426459E1
6.052769625E0,-1.696799125E0,-9.397911630E0,-2.608717722E0,9.899761534E0
6.062715625E0,-1.879958185E0,-8.899042978E0,-2.463866403E0,9.423260919E0
6.072661625E0,-1.969834129E0,-8.683718092E0,-2.094905341E0,9.147449633E0
6.082606625E0,-1.795694691E0,-8.649607190E0,-1.625100128E0,8.982270002E0
6.092552625E0,-1.585897617E0,-8.679578848E0,-1.191763122E0,8.903395957E0
6.102498625E0,-1.451611047E0,-8.803139285E0,-8.594740427E-1,8.963321457E0
6.112444625E0,-1.281841672E0,-8.913863915E0,-6.551020150E-1,9.029354718E0
6.122390625E0,-1.017109933E0,-9.036632640E0,-6.728771120E-1,9.118552829E0
6.132336625E0,-7.472880475E-1,-9.120742498E0,-7.793892615E-1,9.184434156E0
6.142282625E0,-5.935297378E-1,-9.098956357E0,-8.001207107E-1,9.153331497E0
6.152228625E0,-4.634350368E-1,-8.925518585E0,-9.364127295E-1,8.986463312E0
6.162174625E0,-2.570715936E-1,-8.675876976E0,-1.222967812E0,8.765419406E0
6.172120625E0,-3.957475953E-2,-8.369995092E0,-1.493635424E0,8.502313260E0
6.182066625E0,3.028583620E-1,-8.008510864E0,-1.756066210E0,8.204373101E0
6.192012625E0,8.248261470E-1,-7.495559778E0,-2.027302757E0,7.808566516E0
6.201958625E0,1.494998703E0,-6.449720939E0,-2.200460447E0,6.976814997E0
6.211904625E0,2.620043194E0,-4.300524201E0,-2.272901163E0,5.524962845E0
6.221849625E0,5.196664379E0,8.496881425E-2,-1.768894417E0,5.490130037E0
6.231795625E0,9.852865938E0,1.243806616E1,4.119993465E-1,1.587306525E1
6.241741625E0,1.711233971E1,5.024047440E1,4.710495880E0,5.328345155E1
6.251687625E0,2.165092277E1,1.167157010E2,2.284101125E1,1.208843625E2
6.261633625E0,-6.144400388E0,1.138481983E2,3.024159119E1,1.179564316E2
6.271579625E0,-1.262134129E1,5.344559525E1,1.630102918E1,5.728397210E1
6.281525625E0,-1.056905396E1,2.275617984E1,1.020447656E1,2.708652736E1
6.291471625E0,-1.801339330E1,8.514017860E0,1.090516361E1,2.271328756E1
6.301417625E0,-1.753278609E1,2.945188145E0,5.054349582E0,1.848294270E1
6.311363625E0,-8.788370973E0,5.163345190E0,-1.324137214E0,1.027856689E1
6.321309625E0,-3.025136540E0,5.525292517E0,-2.235725589E0,6.684218533E0
6.331255625E0,-1.291392660E-1,2.556744745E0,-1.263687383E0,2.854912686E0
6.341200625E0,1.314085119E0,-4.178899777E-1,1.392944178E-1,1.385949014E0
6.351146625E0,1.381433057E0,-3.504359132E0,8.843109682E-1,3.869224225E0
6.361092625E0,1.385686614E0,-6.333384152E0,1.086030260E0,6.573533596E0
6.371038625E0,1.409221365E0,-8.838648257E0,1.299340196E0,9.044108182E0
6.380984625E0,1.251535115E0,-1.068816993E1,1.587360590E0,1.087763900E1
6.390930625E0,9.375829035E-1,-1.213453018E1,1.660075248E0,1.228339262E1
6.400876625E0,7.069211365E-1,-1.279452178E1,1.896573633E0,1.295362948E1
6.410822625E0,7.907144411E-1,-1.290389746E1,2.044415657E0,1.308875221E1
6.420768625E0,7.335386123E-1,-1.312966547E1,2.296331980E0,1.334913236E1
6.430714625E0,8.322458982E-1,-1.365643177E1,2.228040594E0,1.386199578E1
6.440660625E0,1.138079616E0,-1.438269104E1,1.891075058E0,1.455105466E1
6.450606625E0,1.691835131E0,-1.534470069E1,1.361925137E0,1.549764451E1
6.460552625E0,1.389122438E0,-1.734809827E1,4.500981957E-1,1.740944465E1
6.470497625E0,-1.832912365E0,-2.085823679E1,-1.209778394E0,2.097353508E1
6.480443625E0,-2.978278123E0,-1.904347389E1,-1.658848064E0,1.934620933E1
6.490389625E0,-3.035497221E0,-1.755157670E1,-2.844972131E0,1.803790327E1
6.500335625E0,-3.898261785E0,-1.636195951E1,-4.849853740E0,1.750517767E1
6.510281625E0,-2.814566610E0,-1.389919530E1,-5.488028212E0,1.520617864E1
6.520227625E0,-1.852912912E0,-1.198131675E1,-4.948065328E0,1.309460148E1
6.530173625E0,-1.260531641E0,-1.065388654E1,-4.183174676E0,1.151491158E1
6.540119625E0,-1.117002669E0,-9.731636201E0,-3.446486900E0,1.038415668E1
6.550065625E0,-1.098429866E0,-9.065290428E0,-2.922483991E0,9.587854369E0
6.560011625E0,-1.283371596E0,-8.623605207E0,-2.664029458E0,9.116504942E0
6.569957625E0,-1.502324241E0,-8.391233348E0,-2.485060220E0,8.879487571E0
6.579903625E0,-1.725746497E0,-8.375361666E0,-2.250651777E0,8.842528905E0
6.589849625E0,-1.848820154E0,-8.478776107E0,-2.009608936E0,8.907654478E0
6.599795625E0,-1.868727438E0,-8.644276868E0,-1.835462043E0,9.032418598E0
6.609740625E0,-1.905404244E0,-8.805068867E0,-1.684886592E0,9.165077518E0
6.619686625E0,-1.892469472E0,-8.906162547E0,-1.518247671E0,9.230723049E0
6.629632625E0,-1.670308899E0,-9.085093194E0,-1.580909649E0,9.371666099E0
6.639578625E0,-1.341694795E0,-9.479685525E0,-1.695783902E0,9.723181867E0
6.649524625E0,-9.979865415E-1,-9.490392947E0,-1.134077416E0,9.609873412E0
6.659470625E0,-7.416517702E-1,-9.269393923E0,-4.559737703E-1,9.310189210E0
6.669416625E0,-4.512183760E-1,-8.965567920E0,-2.885483980E-1,8.981551443E0
6.679362625E0,-2.372822039E-1,-8.754653589E0,-6.810417254E-1,8.784308745E0
6.689308625E0,-1.502029833E-1,-8.540786414E0,-1.171811984E0,8.622107447E0
6.699254625E0,2.387549713E-2,-8.205076713E0,-1.427719470E0,8.328399413E0
6.709200625E0,3.722315557E-1,-7.552301744E0,-1.533090243E0,7.715321358E0
6.719146625E0,8.497974855E-1,-6.139372952E0,-1.565997788E0,6.392683715E0
6.729092625E0,1.807746241E0,-4.047058513E0,-1.734060799E0,4.759579386E0
6.739037625E0,3.414598232E0,-9.356503987E-1,-1.252572411E0,3.755510671E0
6.748983625E0,5.615629660E0,9.462605224E0,1.171103740E0,1.106560789E1
6.758929625E0,8.260832253E0,4.829544723E1,7.636015745E0,4.958830819E1
6.768875625E0,1.322483943E1,1.258470310E2,2.460340415E1,1.289096547E2
6.778821625E0,-5.864883599E0,1.174434501E2,2.764346278E1,1.207953719E2
6.788767625E0,-1.199615114E1,4.696183299E1,1.384970213E1,5.040967813E1
6.798713625E0,-9.556983962E0,1.870139540E1,8.765060463E0,2.275751343E1
6.808659625E0,-1.312358320E1,7.424255322E0,8.540694612E0,1.732891997E1
6.818605625E0,-1.351628220E1,4.200064943E0,6.801530364E0,1.570322404E1
6.828551625E0,-7.668757229E0,6.715670434E0,3.817293928E0,1.088493453E1
6.838497625E0,-1.492792402E0,8.125494938E0,2.726593496E0,8.699793632E0
6.848443625E0,-6.375795177E-1,5.586103560E0,2.733424798E0,6.251613532E0
6.858388625E0,5.140329672E-1,2.120529594E0,1.824257901E0,2.844080262E0
6.868334625E0,7.192323759E-1,-1.263542957E0,8.334083247E-1,1.675829779E0
6.878280625E0,1.356745528E-1,-4.698840040E0,8.362733142E-1,4.774605571E0
6.888226625E0,-2.351066011E-1,-7.890076681E0,1.243332494E0,7.990898625E0
6.898172625E0,-3.428771079E-1,-1.042235785E1,1.592597795E0,1.054890874E1
6.908118625E0,-2.932953139E-1,-1.192634708E1,1.743084807E0,1.205662148E1
6.918064625E0,-1.767787429E-1,-1.280841710E1,2.315729971E0,1.301727332E1
6.928010625E0,4.833251357E-2,-1.324748102E1,3.296157324E0,1.365147400E1
6.937956625E0,5.532914655E-1,-1.341987682E1,3.780214394E0,1.395310883E1
6.947902625E0,1.387686946E0,-1.380746068E1,3.602641179E0,1.433703836E1
6.957848625E0,2.087095069E0,-1.419381896E1,3.251269419E0,1.471024185E1
6.967794625E0,2.359205335E0,-1.452293534E1,2.655262143E0,1.495098384E1
6.977740625E0,2.311902092E0,-1.464983629E1,1.333925161E0,1.489100235E1
6.987685625E0,2.711321738E0,-1.513586972E1,-4.528510648E-1,1.538346163E1
6.997631375E0,3.350641680E0,-1.854551565E1,-2.747680895E0,1.904501774E1
7.007577375E0,-3.723819754E-1,-1.940796827E1,-4.969538643E0,2.003757008E1
7.017523375E0,-2.840059885E-1,-1.585202032E1,-5.440703187E0,1.676211379E1
7.027469375E0,-2.268543818E0,-1.598484450E1,-6.165022933E0,1.728204422E1
7.037415375E0,-3.423774560E0,-1.511089626E1,-6.234586673E0,1.670124214E1
7.047361375E0,-3.212382511E0,-1.338777326E1,-5.732733017E0,1.491362136E1
7.057307375E0,-3.111236206E0,-1.193672706E1,-4.688540754E0,1.319650173E1
7.067253375E0,-3.120224253E0,-1.050548654E1,-3.640641357E0,1.154795724E1
7.077199375E0,-3.193858532E0,-9.314661312E0,-3.022821043E0,1.030053857E1
7.087145375E0,-3.306792825E0,-8.471784591E0,-2.840624726E0,9.527600001E0
7.097091375E0,-3.172234067E0,-8.033952684E0,-2.773161306E0,9.071818359E0
7.107037375E0,-2.913171716E0,-7.843614120E0,-2.752445206E0,8.808223801E0
7.116982375E0,-4.080113992E0,-7.260732674E0,-2.563474891E0,8.714182272E0
7.126928375E0,-5.095001764E0,-6.781671465E0,-1.837597008E0,8.679105576E0
7.136874375E0,-5.159069121E0,-6.605687231E0,-1.023989110E0,8.443912108E0
7.146820375E0,-3.387282672E0,-6.730392553E0,-3.674279219E-1,7.543664302E0
7.156766375E0,-2.823582432E-1,-7.281052333E0,4.569701359E-2,7.286668476E0
7.166712375E0,2.465918775E0,-7.854272425E0,2.665855251E-2,8.232318107E0
7.176658375E0,3.152300032E0,-8.593243539E0,-5.604638064E-1,9.170329857E0
7.186604375E0,2.165789967E0,-8.684364794E0,-1.514909495E0,9.077653267E0
7.196550375E0,1.177292433E0,-8.233925121E0,-2.427577997E0,8.664679758E0
7.206496375E0,1.111118324E0,-7.683338431E0,-2.476251390E0,8.148625303E0
7.216442375E0,1.803391673E0,-6.757571581E0,-2.304335064E0,7.363895388E0
7.226388375E0,3.264439688E0,-4.826751975E0,-1.851158455E0,6.113991228E0
7.236334375E0,4.748379113E0,-1.550291582E0,-9.696655525E-1,5.088296323E0
7.246279375E0,6.192636994E0,2.751430714E0,2.830775969E-1,6.782275196E0
7.256225375E0,7.477957320E0,9.117524191E0,2.211389332E0,1.199747206E1
7.266171375E0,3.170238705E0,2.190725769E1,7.596866298E0,2.340279322E1
7.276117375E0,8.458757579E-1,5.652029045E1,1.386841673E1,5.820302158E1
7.286063375E0,2.036717593E1,1.067498469E2,1.476995096E1,1.096745327E2
7.296009375E0,-2.605161445E0,8.667072355E1,1.601413203E1,8.817626445E1
7.305955375E0,-6.866808679E0,4.157430204E1,1.341271164E1,4.422076984E1
7.315901375E0,4.018431714E0,2.274418136E1,5.481479915E0,2.373799067E1
7.325847375E0,5.874506947E0,1.165242491E1,2.468723685E0,1.328094254E1
7.335793375E0,5.679214622E0,5.374992177E0,-8.175343037E-2,7.819891512E0
7.345739375E0,4.615436525E0,8.177512354E-1,-2.693083688E0,5.405892262E0
7.355685375E0,3.396454614E0,-2.734660900E0,-3.309193107E0,5.474032627E0
7.365630375E0,2.325264880E0,-5.655622276E0,-2.243664354E0,6.513597303E0
7.375576375E0,1.634336244E0,-7.882151949E0,-9.516448724E-1,8.105862217E0
7.385522375E0,8.976402810E-1,-9.622710174E0,2.632451570E-1,9.668071534E0
7.395468375E0,2.387583335E-1,-1.079570958E1,1.051185533E0,1.084939362E1
7.405414375E0,-8.081012830E-2,-1.169766715E1,1.403493140E0,1.178183942E1
7.415360375E0,-3.743678360E-1,-1.258893836E1,1.340280645E0,1.266561773E1
7.425306375E0,-8.437342152E-1,-1.311312721E1,9.718960460E-1,1.317613655E1
7.435252375E0,-1.287187635E0,-1.311974976E1,4.616178683E-1,1.319082169E1
7.445198375E0,-1.870797352E0,-1.318547714E1,4.166673249E-1,1.332404976E1
7.455144375E0,-2.945718195E0,-1.344235117E1,7.895635629E-1,1.378395703E1
7.465090375E0,-4.267082513E0,-1.378012494E1,1.356222494E0,1.448927797E1
7.475036375E0,-5.576583123E0,-1.407298391E1,1.570703627E0,1.521887858E1
7.484982375E0,-6.658030336E0,-1.401322069E1,1.416068746E0,1.557899139E1
7.494927375E0,-6.999210691E0,-1.372224335E1,7.579131693E-1,1.542281898E1
7.504873375E0,-6.047341286E0,-1.242199216E1,-3.172808848E-2,1.381583268E1
7.514819375E0,-5.286687527E0,-1.107311786E1,-1.603617019E0,1.237475623E1
7.524765375E0,-5.397743694E0,-1.025807915E1,-3.121855334E0,1.200457436E1
7.534711375E0,-4.843406892E0,-8.974122981E0,-4.398334671E0,1.110580125E1
7.544657375E0,-3.423871039E0,-7.990235392E0,-4.593265638E0,9.831828097E0
7.554603375E0,-2.276313744E0,-7.556547407E0,-3.921374366E0,8.812501909E0
7.564549375E0,-2.219235272E0,-7.582680953E0,-3.341683161E0,8.578397401E0
7.574495375E0,-2.648967323E0,-8.025288865E0,-2.323125676E0,8.764656419E0
7.584441375E0,-2.597239345E0,-8.378712121E0,-1.404336162E0,8.883728332E0
7.594387375E0,-2.596775368E0,-8.701645655E0,-5.840894812E-1,9.099617571E0
7.604333375E0,-2.538258773E0,-8.930711498E0,1.012946789E-1,9.284967747E0
7.614279375E0,-2.385638843E0,-9.019975092E0,4.272577288E-1,9.339902168E0
7.624224375E0,-2.363003394E0,-8.952005888E0,5.520263473E-1,9.275070218E0
7.634170375E0,-2.366940032E0,-8.976781125E0,5.913189787E-1,9.302400906E0
7.644116375E0,-2.393075332E0,-9.114186600E0,4.151996738E-1,9.432263657E0
7.654062375E0,-2.435045184E0,-9.098261708E0,-3.438572109E-2,9.418545192E0
7.664008375E0,-2.230694353E0,-8.719872011E0,-5.435992670E-1,9.017076319E0
7.673954375E0,-1.819752621E0,-8.020470759E0,-9.554578418E-1,8.279634683E0
7.683900375E0,-1.641160821E0,-7.729263048E0,-1.167733989E0,7.987397497E0
7.693846375E0,-1.245095284E0,-7.558162993E0,-1.165152444E0,7.748139796E0
7.703792375E0,-3.091200721E-1,-7.223550814E0,-1.055649809E0,7.306821341E0
7.713738375E0,7.912145242E-1,-6.319549055E0,-9.839332704E-1,6.444442983E0
7.723684375E0,2.305547776E0,-4.255896497E0,-1.048847670E0,4.952604060E0
7.733630375E0,4.046538987E0,-4.265298235E-1,-4.995289488E-1,4.099504194E0
7.743575375E0,7.069607660E0,1.050153850E1,1.189774338E0,1.271523599E1
7.753521375E0,1.468039852E1,4.098133824E1,3.846882885E0,4.370106055E1
7.763467375E0,2.296443895E1,8.695604897E1,9.109704709E0,9.039749238E1
7.773413375E0,9.943608878E0,9.014363285E1,1.440831588E1,9.182782513E1
7.783359375E0,-6.987214544E0,5.753870702E1,1.392831795E1,5.961142519E1
7.793305375E0,-6.829298206E0,2.954990534E1,9.889902202E0,3.190057030E1
7.803251375E0,-6.876087041E0,1.497805688E1,1.027886951E1,1.942364331E1
7.813197375E0,-7.084719204E0,9.703692942E0,9.860331663E0,1.554287758E1
7.823143375E0,-3.789099531E0,8.422715927E0,6.940757831E0,1.155307483E1
7.833089375E0,-1.641930023E0,6.286846163E0,4.511038583E0,7.910109858E0
7.843035375E0,-4.831795491E-1,3.220604866E0,3.245410801E0,4.597656952E0
7.852981375E0,-3.322086802E-1,5.301670432E-1,2.502949192E0,2.579960147E0
7.862926375E0,-4.554089293E-1,-1.998874764E0,2.226624398E0,3.026673723E0
7.872872375E0,-5.617640079E-1,-4.543537992E0,2.126006535E0,5.047694530E0
7.882818375E0,-6.336915578E-1,-6.973427394E0,1.737392981E0,7.214484665E0
7.892764375E0,-3.883446548E-1,-8.857961025E0,9.944149160E-1,8.922059522E0
7.902710375E0,-2.470112398E-2,-1.017123163E1,2.625544547E-1,1.017464976E1
7.912656375E0,-1.200219219E-1,-1.121925148E1,-2.127860248E-2,1.121991363E1
7.922602375E0,-3.551699652E-1,-1.192231133E1,-2.388067192E-1,1.192999086E1
7.932548375E0,-2.496916035E-1,-1.206064476E1,-5.827976851E-1,1.207729900E1
7.942494375E0,-4.558679357E-2,-1.222799558E1,-6.585065563E-1,1.224579867E1
7.952440375E0,1.375279739E-1,-1.255987068E1,-6.719802953E-1,1.257858589E1
7.962386375E0,5.318622972E-1,-1.304608771E1,-5.001861759E-1,1.306650176E1
7.972332375E0,8.644114316E-1,-1.364228034E1,-6.531521147E-1,1.368523393E1
7.982278375E0,5.509902938E-1,-1.427400183E1,-9.965222526E-1,1.431934967E1
7.992223375E0,-3.853103153E-1,-1.459716925E1,-8.550867306E-1,1.462726863E1
8.002170583E0,-1.774242865E0,-1.475777121E1,-7.715494609E-1,1.488405313E1
8.012116583E0,-2.740080684E0,-1.462232865E1,-1.581696538E0,1.496069187E1
8.022062583E0,-3.812548912E0,-1.413051934E1,-3.083059058E0,1.495701705E1
8.032008583E0,-4.249890822E0,-1.309006111E1,-4.136758894E0,1.437094451E1
8.041954583E0,-3.781347292E0,-1.184747165E1,-4.635966684E0,1.327227784E1
8.051900583E0,-3.848805158E0,-1.130878170E1,-4.612271428E0,1.280526815E1
8.061846583E0,-3.850535056E0,-1.090487008E1,-3.680091936E0,1.213613976E1
8.071792583E0,-3.929508428E0,-1.038300024E1,-2.921186494E0,1.147959324E1
8.081738583E0,-3.897755123E0,-9.778201087E0,-2.251796077E0,1.076458532E1
8.091684583E0,-3.617308920E0,-9.218058293E0,-1.437063759E0,1.000613186E1
8.101630583E0,-3.650779552E0,-8.906406376E0,-5.797825684E-1,9.643050021E0
8.111576583E0,-3.892757801E0,-8.903947622E0,2.068930547E-1,9.719910045E0
8.121521583E0,-3.997053417E0,-8.885004398E0,7.675984973E-1,9.772867881E0
8.131467583E0,-5.311693729E0,-8.914393673E0,1.380784162E0,1.046838429E1
8.141413583E0,-6.436357713E0,-8.938285981E0,2.031445363E0,1.120028692E1
8.151359583E0,-3.057007958E0,-9.355515808E0,1.623917382E0,9.975373745E0
8.161305583E0,-9.799113362E-1,-9.647678955E0,1.381890455E0,9.795282368E0
8.171251583E0,8.717675212E-1,-9.652885900E0,4.452828674E-1,9.702394635E0
8.181197583E0,2.428781939E0,-9.379367185E0,-1.270940269E0,9.771734732E0
8.191143583E0,2.295712321E0,-8.658851053E0,-1.969971392E0,9.172065411E0
8.201089583E0,1.804666805E0,-8.122516367E0,-2.240023293E0,8.616832293E0
8.211035583E0,1.267301255E0,-7.634107799E0,-2.814637946E0,8.234551665E0
8.220981583E0,1.147051803E0,-6.403113368E0,-2.626436539E0,7.015251780E0
8.230927583E0,1.719646535E0,-3.459458948E0,-2.005424815E0,4.352788658E0
8.240872583E0,2.387765329E0,1.348361498E0,-1.212982083E0,2.998470865E0
8.250818583E0,3.326245927E0,8.540564804E0,1.358384210E-1,9.166439397E0
8.260764583E0,5.532104523E0,2.591339095E1,2.142367775E0,2.658378737E1
8.270710583E0,1.264767130E1,7.661306824E1,3.938634177E0,7.774984665E1
8.280656583E0,1.464856394E1,1.130074061E2,1.345346673E0,1.139608013E2
8.290602583E0,-1.881088890E0,6.716048748E1,7.849849591E0,6.764384461E1
8.300548583E0,-8.782452421E0,3.238911446E1,1.552356000E1,3.697522307E1
8.310494583E0,-1.164511355E1,1.861083841E1,1.602343379E1,2.717944823E1
8.320440583E0,-5.919943321E0,1.477595371E1,1.249647516E1,2.023700642E1
8.330386583E0,3.208925638E0,1.514332258E1,7.205412751E0,1.707440762E1
8.340332583E0,6.164888447E0,1.260279509E1,2.184371833E0,1.419886523E1
8.350277583E0,5.096578174E0,8.700572691E0,-1.638754692E0,1.021570317E1
8.360223583E0,3.778631553E0,4.948253024E0,-3.532197141E0,7.158189788E0
8.370169583E0,3.257794620E0,1.508344241E0,-4.126848448E0,5.469845176E0
8.380115583E0,2.716904660E0,-1.638564658E0,-3.407756698E0,4.656100383E0
8.390061583E0,1.686125764E0,-5.306932926E0,-1.806314258E0,5.854001057E0
8.400007583E0,3.437250638E-1,-8.310448802E0,-2.917338149E-1,8.322668732E0
8.409953583E0,-8.285906576E-1,-1.045948065E1,9.037491596E-1,1.053109968E1
8.419899583E0,-1.700112157E0,-1.191042043E1,2.016949238E0,1.219904015E1
8.429845583E0,-1.944879528E0,-1.277421791E1,2.955965733E0,1.325522286E1
8.439791583E0,-1.373092004E0,-1.297492592E1,3.446161795E0,1.349481810E1
8.449737583E0,-9.803463690E-1,-1.337571397E1,3.651700780E0,1.389984610E1
8.459683583E0,-1.113080065E0,-1.411785310E1,4.121079585E0,1.474910236E1
8.469628583E0,-1.438821286E0,-1.479347665E1,3.953998906E0,1.538022319E1
8.479574583E0,-2.060372562E0,-1.517434089E1,2.720607702E0,1.555337464E1
8.489520583E0,-2.512686853E0,-1.602785896E1,1.187673433E0,1.626703495E1
8.499466583E0,-3.586147646E0,-1.866881589E1,-5.316242424E-1,1.901756467E1
8.509412583E0,-6.040967821E0,-2.079146159E1,-2.434997529E0,2.178778052E1
8.519358583E0,-3.630073099E0,-1.747035069E1,-2.262396494E0,1.798635654E1
8.529304583E0,-3.242154779E0,-1.529507186E1,-3.035324144E0,1.592683219E1
8.539250583E0,-3.313971452E0,-1.408097705E1,-4.105493247E0,1.503700091E1
8.549196583E0,-2.043360527E0,-1.257931735E1,-4.560727052E0,1.353568537E1
8.559142583E0,-1.550209575E0,-1.115721486E1,-4.816671376E0,1.225099654E1
8.569088583E0,-1.497196817E0,-9.803627120E0,-4.944499696E0,1.108155135E1
8.579034583E0,-1.137489997E0,-8.823449004E0,-4.584059197E0,1.000803350E1
8.588980583E0,-7.985963416E-1,-8.282924203E0,-3.962794873E0,9.216741977E0
8.598925583E0,-8.269046129E-1,-8.132926165E0,-3.130113941E0,8.753620538E0
8.608871583E0,-1.162226643E0,-8.137950093E0,-2.211001807E0,8.512668881E0
8.618817583E0,-1.651655550E0,-8.258687494E0,-1.249816472E0,8.514453970E0
8.628763583E0,-2.104078160E0,-8.437167320E0,-5.444067675E-1,8.712595252E0
8.638709583E0,-2.358487297E0,-8.594213592E0,-1.013714236E-1,8.912533073E0
8.648655583E0,-2.453767676E0,-8.711203514E0,2.207192346E-2,9.050222629E0
8.658601583E0,-2.408037041E0,-8.789386050E0,-1.393982059E-1,9.114350299E0
8.668547583E0,-2.197047281E0,-8.845624570E0,-2.002108566E-1,9.116587913E0
8.678493583E0,-1.798975564E0,-9.123204761E0,-1.018310148E-1,9.299438033E0
8.688439583E0,-1.413349499E0,-9.432178652E0,-1.437931193E-1,9.538565269E0
8.698385583E0,-8.099837941E-1,-9.103455205E0,-2.735157913E-1,9.143510338E0
8.708331583E0,2.154859766E-2,-8.357515379E0,-2.136090204E-1,8.360272512E0
8.718276583E0,7.434442341E-1,-7.738123333E0,-1.324565376E-1,7.774883072E0
8.728222583E0,1.353510409E0,-6.989011393E0,7.638744056E-2,7.119277051E0
8.738168583E0,2.459693537E0,-6.156163232E0,-1.552804130E-1,6.631180139E0
8.748114583E0,3.471777277E0,-4.504380358E0,-5.394898438E-1,5.712593909E0
8.758060583E0,4.670211780E0,-1.213332331E0,-6.184541523E-1,4.864723934E0
8.768006583E0,6.915098494E0,4.831985818E0,3.121506840E-1,8.441807400E0
8.777952583E0,9.565341972E0,2.178601918E1,4.284874129E0,2.417615654E1
8.787898583E0,1.752303410E1,6.936808270E1,1.150861147E1,7.246679074E1
8.797844583E0,1.305388088E1,1.145698570E2,2.015283805E1,1.170589288E2
8.807790583E0,-1.294451339E1,8.703741414E1,1.702032792E1,8.962568521E1
8.817736583E0,-1.592904569E1,3.728849879E1,8.169267780E0,4.136307018E1
8.827681583E0,-1.620834613E1,1.660289052E1,7.379635804E0,2.434800777E1
8.837627583E0,-1.228999712E1,1.049378275E1,3.941501067E0,1.663426993E1
8.847573583E0,-4.647955815E0,1.019924681E1,1.398514820E0,1.129530754E1
8.857519583E0,-4.891970284E-1,9.084303235E0,1.057573031E0,9.158730246E0
8.867465583E0,1.625568928E0,5.767853149E0,5.288740776E-1,6.015838435E0
8.877411583E0,2.695164127E0,1.677276149E0,7.159896563E-1,3.254198233E0
8.887357583E0,2.632801234E0,-1.995279311E0,2.214288527E0,3.976915331E0
8.897303583E0,1.652724567E0,-5.449893256E0,2.907556635E0,6.394272482E0
8.907249583E0,1.061619012E0,-8.227034177E0,2.701715348E0,8.724127011E0
8.917195583E0,7.113110067E-1,-1.009686557E1,1.812819139E0,1.028294563E1
8.927141583E0,3.283909600E-1,-1.139606192E1,7.834175545E-1,1.142767741E1
8.937086583E0,5.448187038E-2,-1.232844256E1,2.038047016E-1,1.233024738E1
8.947032583E0,3.165365343E-1,-1.251461674E1,-1.421656930E-1,1.251942645E1
8.956978583E0,6.305790849E-1,-1.258386648E1,-3.840626657E-1,1.260550791E1
8.966924583E0,9.216749686E-1,-1.283908341E1,-2.656356449E-1,1.287486349E1
8.976870583E0,9.152689053E-1,-1.340682115E1,5.128423280E-1,1.344780941E1
8.986816583E0,4.573462580E-1,-1.431730046E1,1.188733680E0,1.437384241E1
8.996760958E0,-3.382104085E-1,-1.571434529E1,1.611787480E0,1.580040800E1
9.006706958E0,-1.676972532E0,-1.771710085E1,1.824138325E0,1.788953269E1
9.016652958E0,-4.578276008E0,-2.005248814E1,7.595550674E-1,2.058251237E1
9.026598958E0,-6.095990120E0,-1.909726711E1,-1.182205410E0,2.008144208E1
9.036544958E0,-5.562208328E0,-1.599309609E1,-2.577983002E0,1.712785102E1
9.046490958E0,-4.516073328E0,-1.384514247E1,-3.806322797E0,1.505227496E1
9.056435958E0,-2.264263949E0,-1.180343042E1,-4.285899146E0,1.275996836E1
9.066381958E0,-1.092855277E0,-1.014311354E1,-4.602728187E0,1.119205931E1
9.076327958E0,-8.969172728E-1,-8.902854778E0,-4.665383441E0,1.009113901E1
9.086273958E0,-7.095210278E-1,-8.223977838E0,-4.336244257E0,9.324175343E0
9.096219958E0,-7.808519424E-1,-8.039080693E0,-3.767240592E0,8.912275232E0
9.106165958E0,-1.076021874E0,-8.089341019E0,-3.160669736E0,8.751291012E0
9.116111958E0,-1.480710885E0,-8.136750244E0,-2.429964392E0,8.619973098E0
9.126057958E0,-2.081229580E0,-8.253270049E0,-1.556824676E0,8.652842662E0
9.136003958E0,-2.503363175E0,-8.392088796E0,-7.415754640E-1,8.788851786E0
9.145949958E0,-2.610508431E0,-8.632924499E0,-2.879693775E-1,9.023583880E0
9.155895958E0,-2.649043044E0,-8.923539303E0,-2.470070006E-1,9.311712796E0
9.165841958E0,-2.765426902E0,-9.230479533E0,-3.702275687E-1,9.642945961E0
9.175786958E0,-2.916215484E0,-9.625284703E0,-2.908995634E-1,1.006156255E1
9.185732958E0,-2.829529927E0,-9.982146707E0,6.507965639E-2,1.037563144E1
9.195678958E0,-2.295598446E0,-1.029821210E1,3.330357689E-1,1.055622364E1
9.205624958E0,-1.748415567E0,-1.063539062E1,5.495844769E-1,1.079215149E1
9.215570958E0,-1.084403565E0,-1.062896102E1,6.924588525E-1,1.070655140E1
9.225516958E0,-2.309680881E-1,-1.014460925E1,7.095210278E-1,1.017201373E1
9.235462958E0,6.395618699E-1,-9.147500526E0,4.604764187E-1,9.181385723E0
9.245408958E0,1.375887704E0,-7.491421119E0,-4.153715819E-3,7.616723351E0
9.255354958E0,2.087558753E0,-5.747103719E0,-1.126856763E0,6.217468043E0
9.265300958E0,2.996825491E0,-3.827687353E0,-2.216819787E0,5.342887185E0
9.275246958E0,4.968613029E0,2.678024769E-2,-2.397152011E0,5.516717355E0
9.285192958E0,9.378229902E0,1.108070755E1,-2.158027495E-1,1.451825908E1
9.295137958E0,1.758680851E1,4.789138124E1,5.871219642E0,5.135515018E1
9.305083958E0,2.867867957E1,1.072010555E2,1.222048074E1,1.116417176E2
9.315029958E0,4.871829330E0,1.047585379E2,1.683128744E1,1.062138325E2
9.324975958E0,-1.351770775E1,5.062645144E1,1.176078200E1,5.370364980E1
9.334921958E0,-1.382843581E1,2.346323919E1,1.002370988E1,2.902109561E1
9.344867958E0,-1.207128669E1,1.377019169E1,8.127337396E0,2.003466383E1
9.354813958E0,-5.552292620E0,1.137892841E1,3.691104582E0,1.318833644E1
9.364759958E0,5.932982612E-1,1.152023573E1,1.214482332E0,1.159925866E1
9.374705958E0,3.846060182E0,1.021761642E1,-1.247012293E-1,1.091821481E1
9.384651958E0,5.101296877E0,7.203922881E0,-1.102747450E0,8.895829733E0
9.394596958E0,5.351930174E0,4.025047839E0,-1.392775340E0,6.839882297E0
9.404542958E0,3.388242785E0,6.711510140E-1,-6.041846073E-1,3.506518486E0
9.414488958E0,1.132988080E0,-2.506617150E0,-3.272452712E-1,2.770177069E0
9.424434958E0,3.756163627E-2,-5.167699027E0,-1.070157409E-1,5.168943459E0
9.434380958E0,-8.046192661E-1,-7.592204897E0,6.953302740E-1,7.666320601E0
9.444326958E0,-1.517510044E0,-9.789760448E0,1.692339015E0,1.005018695E1
9.454272958E0,-2.361790097E0,-1.166977710E1,2.467841924E0,1.215944053E1
9.464218958E0,-2.700349146E0,-1.253894115E1,3.257645808E0,1.323363846E1
9.474164958E0,-2.388753509E0,-1.262604245E1,3.984483365E0,1.345359427E1
9.484110958E0,-2.239766162E0,-1.316543523E1,4.444900142E0,1.407488453E1
9.494056958E0,-2.218028553E0,-1.381282140E1,4.069549243E0,1.456965740E1
9.504002958E0,-1.905678479E0,-1.455033773E1,2.319657692E0,1.485680821E1
9.513947958E0,-1.374861517E0,-1.635610059E1,5.896716718E-1,1.642437163E1
9.523893958E0,-1.265487156E0,-2.161128566E1,-8.176477396E-1,2.166374099E1
9.533839958E0,-2.691106744E0,-2.353965762E1,-1.324380897E0,2.372997095E1
9.543785958E0,-7.429562840E-1,-1.870016749E1,-8.572499080E-1,1.873454364E1
9.553731958E0,-1.332748116E0,-1.577146089E1,-1.521993982E0,1.590068118E1
9.563677958E0,-3.010357702E0,-1.307065771E1,-2.802666941E0,1.370252854E1
9.573623958E0,-3.326779777E0,-1.051320253E1,-4.615112005E0,1.195383411E1
9.583569958E0,-2.815482576E0,-8.773889174E0,-4.985371733E0,1.047673636E1
9.593515958E0,-2.044192439E0,-7.658819886E0,-4.816559109E0,9.275531598E0
9.603461958E0,-1.093201578E0,-7.089675888E0,-4.310018325E0,8.368682803E0
9.613407958E0,-6.132325888E-2,-6.879613497E0,-3.482688181E0,7.711158109E0
9.623353958E0,6.837258898E-1,-6.705012129E0,-2.570050377E0,7.213170432E0
9.633298958E0,4.735725738E-1,-6.738733606E0,-1.627887642E0,6.948727925E0
9.643244958E0,-9.532873553E-1,-7.693289807E0,-1.032402522E0,7.820570300E0
9.653190958E0,-1.945066347E0,-8.698583468E0,-9.612728977E-1,8.965081318E0
9.663136958E0,-2.460215693E0,-9.272039788E0,-9.703460222E-1,9.641833565E0
9.673082958E0,-2.900613651E0,-9.495224501E0,-7.769493645E-1,9.958739789E0
9.683028958E0,-3.172179396E0,-9.458356637E0,-7.111342746E-1,1.000144711E1
9.692974958E0,-3.220519497E0,-9.254135029E0,-8.100902134E-1,9.831938116E0
9.702920958E0,-2.855024957E0,-9.130593887E0,-1.006866123E0,9.619391437E0
9.712866958E0,-2.399816733E0,-9.028746500E0,-1.436351130E0,9.452009748E0
9.722812958E0,-1.805669018E0,-8.711937924E0,-1.917646998E0,9.101410495E0
9.732758958E0,-1.404513771E0,-8.089536901E0,-2.513838462E0,8.586771804E0
9.742704958E0,-1.198150474E0,-7.340332575E0,-2.891572686E0,7.979801969E0
9.752649958E0,-8.579654610E-1,-6.673150066E0,-2.831884893E0,7.299767708E0
9.762595958E0,-2.191710381E-1,-6.039904212E0,-2.516176763E0,6.546726231E0
9.772541958E0,3.172830775E-1,-5.261046317E0,-2.248301196E0,5.730107780E0
9.782487958E0,7.654831208E-1,-4.289363036E0,-2.199331204E0,4.880743530E0
9.792433958E0,2.111075523E0,-2.663267566E0,-2.059892944E0,3.974014712E0
9.802379958E0,4.197642734E0,5.767570728E-1,-4.941723146E-1,4.265801158E0
9.812325958E0,6.900566409E0,6.510500992E0,2.444919670E0,9.797044050E0
9.822271958E0,1.035080313E1,2.320650199E1,8.495593284E0,2.679283421E1
9.832217958E0,1.585335582E1,5.930110459E1,1.923836510E1,6.432779017E1
9.842163958E0,1.482204615E1,9.409422692E1,2.967319272E1,9.976930870E1
9.852108958E0,-6.212236860E0,8.329609426E1,1.849309419E1,8.555013581E1
9.862054958E0,-1.430438747E1,4.245216090E1,4.998649591E0,4.507535872E1
9.872000958E0,-1.455950382E1,2.033468880E1,2.100601698E0,2.509763430E1
9.881946958E0,-1.051824049E1,1.394931880E1,1.188763793E0,1.751085485E1
9.891892958E0,-2.786855778E0,1.330047199E1,1.595824435E0,1.368268161E1
9.901838958E0,2.363925354E0,1.066063539E1,2.079602593E0,1.111584621E1
9.911784958E0,6.009681124E0,7.323870909E0,1.592508479E0,9.606843163E0
9.921730958E0,7.865172220E0,3.291478382E0,4.357029355E-1,8.537247861E0
9.931676958E0,6.943570926E0,-4.602238190E-1,-5.129478702E-1,6.977685769E0
9.941622958E0,3.355243438E0,-4.009359759E0,-8.512964192E-1,5.296917009E0
9.951568958E0,1.293906378E0,-6.686922598E0,-1.449045289E0,6.963394272E0
9.961513958E0,2.171742140E-1,-8.408125954E0,-1.559653559E0,8.554312709E0
9.971459958E0,-6.235804063E-1,-9.911226997E0,-9.923205896E-1,9.980279218E0
9.981405958E0,-1.138173683E0,-1.129264105E1,-1.207414949E-1,1.135049601E1
9.991351958E0,-1.171108271E0,-1.214982182E1,8.265258595E-1,1.223408393E1
1.000129833E1,-5.588179614E-1,-1.248758740E1,1.763721093E0,1.262389910E1
1.001124433E1,-1.286637412E-1,-1.289195276E1,1.980113388E0,1.304376669E1
1.002119033E1,-3.357474151E-1,-1.353909102E1,1.929718283E0,1.368004110E1
1.003113633E1,-8.639918938E-1,-1.417342855E1,2.127664366E0,1.435825597E1
1.004108233E1,-1.586628519E0,-1.492499924E1,1.524149119E0,1.508628592E1
1.005102833E1,-2.261507425E0,-1.611869428E1,5.500519618E-2,1.627666264E1
1.006097433E1,-4.301558574E0,-1.908645677E1,-1.724342142E0,1.964101816E1
1.007092033E1,-6.481899337E0,-2.056184143E1,-3.391626568E0,2.182446959E1
1.008086533E1,-4.205585300E0,-1.646794380E1,-3.365042787E0,1.732638547E1
1.009081133E1,-4.727328259E0,-1.315492310E1,-4.928964229E0,1.482208901E1
1.010075733E1,-4.044903229E0,-1.080020843E1,-5.820688004E0,1.291844236E1
1.011070333E1,-2.544913489E0,-9.345811769E0,-5.786163120E0,1.128275081E1
1.012064933E1,-1.177051966E0,-8.420879901E0,-5.278602582E0,1.000801253E1
1.013059533E1,1.386376293E-1,-8.025286526E0,-4.334902321E0,9.122270680E0
1.014054133E1,9.774277313E-1,-8.005455109E0,-3.346481971E0,8.731644637E0
1.015048733E1,7.543737034E-1,-8.246930498E0,-2.511571204E0,8.653839161E0
1.016043333E1,3.297893947E-1,-8.571243975E0,-1.628909150E0,8.730883652E0
1.017037933E1,-2.540808159E-1,-8.829785047E0,-1.317849264E0,8.931203039E0
1.018032533E1,-8.680712038E-1,-8.999953056E0,-1.700655364E0,9.200268001E0
1.019027133E1,-1.303326827E0,-9.083367680E0,-2.195871552E0,9.435469310E0
1.020021633E1,-1.650581417E0,-9.120906220E0,-2.423288772E0,9.580588592E0
1.021016233E1,-1.682824279E0,-9.164328228E0,-2.277499560E0,9.591861846E0
1.022010833E1,-9.972741314E-1,-9.157394600E0,-1.952028919E0,9.416095181E0
1.023005433E1,-7.636274339E-1,-9.259056630E0,-1.595931731E0,9.426571733E0
1.024000033E1,-6.103540776E-1,-9.303169194E0,-1.326239142E0,9.417027101E0
1.024994633E1,-5.342111237E-1,-9.213889813E0,-1.151898268E0,9.300968585E0
1.025989233E1,-5.153142384E-1,-8.752515846E0,-1.030533752E0,8.828028218E0
1.026983833E1,-4.047435366E-1,-7.915035521E0,-7.755413550E-1,7.963232322E0
1.027978433E1,1.881268546E-1,-6.986273142E0,-7.394292435E-1,7.027813297E0
1.028973033E1,9.120780797E-1,-5.988576769E0,-8.995569983E-1,6.124062453E0
1.029967633E1,1.608821626E0,-4.344375395E0,-5.301126641E-1,4.662930842E0
1.030962133E1,2.423706848E0,-1.636657881E0,7.838943949E-1,3.027787035E0
1.031956733E1,4.186547935E0,2.642570177E0,3.285737001E0,5.941921271E0
1.032951333E1,7.442060094E0,1.137551715E1,6.833404706E0,1.521453478E1
1.033945933E1,1.343309035E1,3.279603623E1,9.630637829E0,3.672570073E1
1.034940533E1,1.725063103E1,6.736676322E1,1.073148844E1,7.036355521E1
1.035935133E1,9.523515084E0,9.370130339E1,1.214323200E1,9.496362293E1
1.036929733E1,-4.605969298E0,5.830680662E1,1.267187175E1,5.984542577E1
1.037924333E1,-8.413700105E0,2.618100632E1,1.368626076E1,3.071724556E1
1.038918933E1,-1.011061120E1,1.524749190E1,1.210595951E1,2.193774655E1
1.039913533E1,-4.647024938E0,1.259335768E1,8.633134414E0,1.595990314E1
1.040908033E1,3.295618503E0,1.406777872E1,5.650667346E0,1.551430117E1
1.041902633E1,6.701818964E0,1.411641819E1,2.358621052E0,1.580350383E1
1.042897233E1,6.769789338E0,1.087768521E1,-1.063476380E0,1.285632394E1
1.043891833E1,5.016549672E0,6.462952604E0,-3.086709475E0,8.744329726E0
1.044886433E1,3.252159950E0,2.645283285E0,-3.390362400E0,5.391532732E0
1.045881033E1,1.349941561E0,-7.769505340E-1,-2.605928307E0,3.035927650E0
1.046875633E1,-4.287253068E-1,-4.132364126E0,-1.656644833E0,4.472662604E0
1.047870233E1,-1.444668501E0,-7.052574136E0,-3.748141247E-1,7.208769288E0
1.048864833E1,-1.886944438E0,-9.184456099E0,6.020082736E-1,9.395595090E0
1.049859433E1,-1.939730031E0,-1.079035704E1,1.027837016E0,1.101139440E1
1.050854033E1,-2.051148726E0,-1.218577401E1,1.613606110E0,1.246210351E1
1.051848533E1,-1.523879562E0,-1.254409840E1,2.102917049E0,1.281010826E1
1.052843133E1,-7.700299157E-1,-1.263118566E1,1.842044254E0,1.278799923E1
1.053837733E1,-4.259651287E-1,-1.269782754E1,1.314209080E0,1.277276071E1
1.054832333E1,-4.872885337E-1,-1.284531303E1,7.489164971E-1,1.287635014E1
1.055826933E1,-1.128864477E0,-1.329280279E1,1.056410605E-1,1.334106821E1
1.056821533E1,-1.997312388E0,-1.502559942E1,-4.341278417E-1,1.516398238E1
1.057816133E1,-5.139465746E0,-2.041245677E1,-1.827350347E0,2.112869396E1
1.058810733E1,-7.264512899E0,-2.215161984E1,-2.500645974E0,2.344612206E1
1.059805333E1,-4.416596110E0,-1.805554003E1,-1.775432481E-1,1.858871616E1
1.060799933E1,-5.380497331E0,-1.530032734E1,-1.363821682E0,1.627604920E1
1.061794533E1,-5.094408857E0,-1.214428801E1,-3.240037503E0,1.356224819E1
1.062789133E1,-4.339318138E0,-1.026441052E1,-4.498718500E0,1.201774826E1
1.063783633E1,-3.177403298E0,-9.060699779E0,-5.007255523E0,1.082888637E1
1.064778233E1,-2.038822356E0,-8.386056224E0,-4.667020077E0,9.811412334E0
1.065772833E1,-1.087283319E0,-8.248934923E0,-3.606808782E0,9.068416729E0
1.066767433E1,-3.426347043E-1,-8.306083855E0,-2.419728841E0,8.658147331E0
1.067762033E1,6.620860755E-2,-8.453156531E0,-1.356786751E0,8.561606696E0
1.068756633E1,-7.257973373E-2,-8.773009753E0,-4.253074631E-1,8.783612832E0
1.069751233E1,-5.304458092E-1,-9.165587718E0,-1.291152924E-2,9.180933378E0
1.070745833E1,-1.057421004E0,-9.253190703E0,-4.472342294E-1,9.324145850E0
1.071740433E1,-1.564393604E0,-9.212420408E0,-1.276588680E0,9.431102574E0
1.072735033E1,-1.817251036E0,-9.224779667E0,-1.593964582E0,9.536230090E0
1.073729633E1,-1.923869459E0,-9.238507175E0,-1.531477727E0,9.560162789E0
1.074724133E1,-1.734474928E0,-9.213396893E0,-1.248345605E0,9.457983523E0
1.075718733E1,-1.310123631E0,-9.079637741E0,-1.044835457E0,9.232980373E0
1.076713333E1,-9.154007600E-1,-8.799145052E0,-1.001621317E0,8.903154355E0
1.077707933E1,-5.327601372E-1,-8.286015626E0,-1.082530556E0,8.373396009E0
1.078702533E1,-1.271288471E-1,-7.848417608E0,-1.249269319E0,7.948238454E0
1.079697133E1,5.552169536E-1,-7.471908376E0,-1.488835591E0,7.638999415E0
1.080691733E1,1.386651989E0,-6.852408741E0,-1.661332107E0,7.185981747E0
1.081686333E1,2.379332475E0,-5.711352088E0,-1.571195962E0,6.383527431E0
1.082680933E1,3.595756375E0,-3.484608407E0,-1.509738510E0,5.229844169E0
1.083675533E1,5.271329815E0,9.476471311E-1,-1.021643060E0,5.452403841E0
1.084670133E1,8.059029053E0,1.248266170E1,1.236716224E0,1.490953586E1
1.085664633E1,1.457719399E1,4.011091704E1,6.639104653E0,4.319094768E1
1.086659233E1,1.882603348E1,8.046194415E1,1.840085788E1,8.465893670E1
1.087653833E1,-9.342935523E-1,9.753438246E1,2.860017017E1,1.016454544E2
1.088648433E1,-8.969361593E0,6.079079739E1,1.801088718E1,6.403407336E1
1.089643033E1,-5.225556056E0,2.799650129E1,1.076653198E1,3.044714652E1
1.090637633E1,-5.806429569E0,1.445244365E1,6.667287648E0,1.694226892E1
1.091632233E1,-6.607629676E0,9.256116650E0,3.564001609E0,1.191799366E1
1.092626833E1,-7.609085809E0,7.458370902E0,2.652433845E0,1.098002225E1
1.093621433E1,-5.181175690E0,6.451210810E0,8.307919881E-1,8.315823337E0
1.094616033E1,-1.049800620E0,5.271192990E0,-1.252064288E-1,5.376172758E0
1.095610633E1,4.135130079E-1,3.335597379E0,2.806558263E-1,3.372828275E0
1.096605133E1,4.386935670E-1,1.169108670E0,4.804493380E-1,1.337945699E0
1.097599733E1,3.262597961E-1,-1.646781165E0,1.470218056E-1,1.685214844E0
1.098594333E1,-3.042697702E-1,-4.825144576E0,-3.017674908E-1,4.844137063E0
1.099588933E1,-5.906618978E-1,-7.379211881E0,-4.503314996E-1,7.416498360E0
1.100583521E1,-7.052854510E-1,-9.345904155E0,-2.713037896E-1,9.376404310E0
1.101578121E1,-7.935133570E-1,-1.082682262E1,-4.944376320E-2,1.085597513E1
1.102572721E1,-8.308390582E-1,-1.177065561E1,1.804526764E-1,1.180132154E1
1.103567321E1,-7.953919213E-1,-1.216342712E1,5.690571669E-1,1.220268141E1
1.104561921E1,-9.138442312E-1,-1.257366309E1,1.049758081E0,1.265045876E1
1.105556521E1,-8.687182713E-1,-1.295770821E1,1.458441033E0,1.306843234E1
1.106551121E1,-5.801461190E-1,-1.327819410E1,1.589615861E0,1.338558504E1
1.107545621E1,-6.333843597E-1,-1.370383398E1,1.172495816E0,1.376847806E1
1.108540221E1,-1.285152365E0,-1.436387119E1,6.671369004E-1,1.443667150E1
1.109534821E1,-1.952611155E0,-1.511600673E1,2.555660087E-1,1.524374179E1
1.110529421E1,-2.371031475E0,-1.631655471E1,-3.075904405E-1,1.649079621E1
1.111524021E1,-2.658748253E0,-1.791330066E1,-5.697632182E-1,1.811849643E1
1.112518621E1,-2.605942341E0,-1.718507673E1,-6.603570539E-1,1.739407569E1
1.113513221E1,-2.320159822E0,-1.447167163E1,-9.848424393E-1,1.468953151E1
1.114507821E1,-2.421787061E0,-1.285538077E1,-2.343193320E0,1.328971114E1
1.115502421E1,-1.961850633E0,-1.096724935E1,-3.070724941E0,1.155676286E1
1.116497021E1,-1.063593471E0,-9.724913657E0,-3.164242970E0,1.028190694E1
1.117491621E1,-5.999807516E-1,-9.105856656E0,-3.095156947E0,9.636212891E0
1.118486121E1,-2.807528901E-1,-8.837223290E0,-3.117091023E0,9.375051686E0
1.119480721E1,-1.596810275E-1,-8.707326810E0,-3.101362597E0,9.244538288E0
1.120475321E1,-2.345448299E-1,-8.731495106E0,-3.026500111E0,9.244118183E0
1.121469921E1,-2.712065797E-1,-8.695356975E0,-2.739993560E0,9.120874445E0
1.122464521E1,-2.115848605E-1,-8.596084701E0,-2.173321327E0,8.869090480E0
1.123459121E1,-1.416103537E-1,-8.801129013E0,-1.246413392E0,8.890077150E0
1.124453721E1,-5.721231544E-1,-9.426364766E0,-7.095982111E-1,9.470333005E0
1.125448321E1,-9.814490077E-1,-9.916456747E0,-6.686226779E-1,9.987312594E0
1.126442921E1,-1.062041327E0,-1.034990850E1,-4.767211533E-1,1.041517167E1
1.127437521E1,-1.108656354E0,-1.070133084E1,-2.124539030E-1,1.076070339E1
1.128432121E1,-1.012809672E0,-1.073081835E1,4.108195245E-2,1.077858681E1
1.129426621E1,-7.014112321E-1,-1.018196010E1,-9.188957870E-2,1.020650444E1
1.130421221E1,-4.341063532E-1,-9.116914911E0,-4.667083081E-1,9.139168587E0
1.131415821E1,-2.058439911E-1,-8.088328866E0,-1.250223584E0,8.186971028E0
1.132410421E1,1.129608974E-2,-7.098263109E0,-1.982427131E0,7.369903941E0
1.133405021E1,3.778808431E-1,-5.937380887E0,-2.073265965E0,6.300295032E0
1.134399621E1,1.362112395E0,-3.915960429E0,-2.752169802E0,4.976397781E0
1.135394221E1,3.086595454E0,-3.576414371E-1,-2.632549219E0,4.072504670E0
1.136388821E1,5.852474638E0,1.293560106E1,8.282826555E-1,1.422207040E1
1.137383421E1,1.341560016E1,5.391827481E1,9.661653800E0,5.639597716E1
1.138378021E1,1.723936111E1,1.063421884E2,3.442753803E1,1.130977983E2
1.139372521E1,-6.938631783E0,9.686432897E1,4.129616169E1,1.055282702E2
1.140367121E1,-1.471333004E1,4.469417049E1,1.922000718E1,5.082774472E1
1.141361721E1,-1.720951926E1,2.010910088E1,6.832720581E0,2.733550003E1
1.142356321E1,-2.797677278E1,7.974964219E0,-1.605313881E1,3.322654263E1
1.143350921E1,-5.432650986E0,1.586323294E1,-1.111790520E1,2.011873933E1
1.144345521E1,2.650634657E0,1.594228379E1,-4.280637821E0,1.671843703E1
1.145340121E1,2.834961698E0,1.123262874E1,-4.086778356E0,1.228457217E1
1.146334721E1,3.498998989E0,6.591389619E0,-2.083739644E0,7.747992123E0
1.147329321E1,3.492946829E0,2.324605606E0,5.150579841E-1,4.227263122E0
1.148323921E1,2.036233794E0,-2.159680796E0,3.076925329E0,4.275270598E0
1.149318521E1,2.662039943E-1,-6.014540745E0,5.095743191E0,7.887468771E0
1.150313021E1,-5.159454453E-1,-9.007493625E0,5.637229859E0,1.063858551E1
1.151307621E1,-1.159881763E0,-1.128795158E1,4.918739203E0,1.236758554E1
1.152302221E1,-1.451757812E0,-1.291082290E1,4.238281175E0,1.366601537E1
1.153296821E1,-1.463078460E0,-1.390417128E1,3.111960676E0,1.432308894E1
1.154291421E1,-7.079722466E-1,-1.431704084E1,1.962244881E0,1.446821648E1
1.155286021E1,7.119397286E-1,-1.445425628E1,1.172383768E0,1.451918960E1
1.156280621E1,2.101835899E0,-1.477159169E1,6.400303781E-1,1.493409770E1
1.157275221E1,3.144910905E0,-1.494794839E1,-9.211703539E-3,1.527519920E1
1.158269821E1,2.976865436E0,-1.507839276E1,-9.229397213E-1,1.539712550E1
1.159264421E1,1.626428761E0,-1.519538619E1,-1.492625756E0,1.535490031E1
1.160259021E1,-1.675898252E-1,-1.530150380E1,-1.738498251E0,1.540085975E1
1.161253521E1,-2.151827108E0,-1.543148740E1,-1.415186402E0,1.564493259E1
1.162248121E1,-3.889063237E0,-1.517131905E1,-9.144997772E-1,1.568853226E1
1.163242721E1,-5.528345933E0,-1.415753348E1,-9.734263355E-1,1.522977090E1
1.164237321E1,-4.460906602E0,-1.061446578E1,-2.075142336E0,1.169926439E1
1.165231921E1,-3.209658586E0,-8.632585945E0,-3.028757136E0,9.695195621E0
1.166226521E1,-2.682702834E0,-8.188609200E0,-3.046403448E0,9.139517990E0
1.167221121E1,-2.064973444E0,-7.873156593E0,-2.892198338E0,8.638027627E0
1.168215721E1,-1.633366337E0,-7.726497899E0,-2.720013624E0,8.352552274E0
1.169210321E1,-1.572534390E0,-7.876130487E0,-2.568511097E0,8.432291806E0
1.170204921E1,-1.699230836E0,-8.434825510E0,-2.428156287E0,8.940336111E0
1.171199521E1,-1.587178888E0,-8.859609355E0,-2.084813631E0,9.238953546E0
1.172194021E1,-1.465319990E0,-9.294766161E0,-1.682685554E0,9.558832111E0
1.173188621E1,-1.365927703E0,-9.695222080E0,-1.209003199E0,9.865332149E0
1.174183221E1,-1.270187294E0,-9.952860342E0,-7.546225025E-1,1.006192128E1
1.175177821E1,-1.281768874E0,-1.005788920E1,-3.859187181E-1,1.014657577E1
1.176172421E1,-1.371204376E0,-1.008806551E1,-1.051494558E-1,1.018137140E1
1.177167021E1,-1.531807510E0,-1.002855723E1,1.045505548E-1,1.014540907E1
1.178161621E1,-1.570582882E0,-9.888280184E0,1.881546289E-1,1.001400109E1
1.179156221E1,-1.488976948E0,-9.673114927E0,9.738537669E-2,9.787527198E0
1.180150821E1,-1.293136154E0,-9.207902849E0,-2.856487638E-1,9.302648612E0
1.181145421E1,-1.025277544E0,-8.595514013E0,-9.142367256E-1,8.704589823E0
1.182140021E1,-7.930254069E-1,-8.235552986E0,-1.615313351E0,8.429855248E0
1.183134521E1,-5.559057556E-1,-7.999986793E0,-2.047185044E0,8.276459781E0
1.184129121E1,-2.853654662E-1,-7.491947953E0,-2.351760660E0,7.857575694E0
1.185123721E1,1.110763398E-1,-5.801962296E0,-3.270968689E0,6.661406804E0
1.186118321E1,1.593664766E0,-1.834642264E0,-4.027405728E0,4.703793843E0
1.187112921E1,4.821018780E0,9.389360077E0,-2.400622479E0,1.082429180E1
1.188107521E1,1.130408756E1,4.598282198E1,1.752174011E0,4.738430570E1
1.189102121E1,2.079767367E1,9.855940404E1,1.377714403E1,1.016676401E2
1.190096721E1,4.459633956E0,1.080868572E2,3.276857537E1,1.130329004E2
1.191091321E1,-8.543176755E0,5.530921515E1,2.106757647E1,5.979914654E1
1.192085821E1,-7.955249746E0,2.496015914E1,1.126392654E1,2.851616356E1
1.193080421E1,-9.726587130E0,1.300547997E1,7.542198924E0,1.790624949E1
1.194075021E1,-9.300763650E0,8.532337187E0,2.999236298E0,1.297306443E1
1.195069621E1,-5.273904344E0,7.831772924E0,-2.229885390E-1,9.444599412E0
1.196064221E1,-5.417572479E-1,7.704085522E0,-1.090353692E0,7.799699085E0
1.197058821E1,1.517531094E0,5.355270104E0,3.754339296E-1,5.578778463E0
1.198053421E1,2.909057030E0,1.644246397E0,2.254002670E0,4.030717933E0
1.199048021E1,3.763105734E0,-2.339737031E0,3.579791138E0,5.696511101E0
1.200042621E1,3.524498697E0,-6.007594838E0,4.104029104E0,8.084326916E0
1.201037221E1,2.897441829E0,-8.761349820E0,3.590307355E0,9.901854711E0
1.202031821E1,1.767217728E0,-1.061250111E1,2.285931537E0,1.099880545E1
1.203026321E1,6.992600414E-1,-1.175547624E1,1.401923747E0,1.185940877E1
1.204020921E1,-1.534090117E-2,-1.224625176E1,8.836955488E-1,1.227810390E1
1.205015521E1,-2.523424387E-1,-1.214694966E1,3.294789076E-1,1.215403716E1
1.206010121E1,-2.710637614E-2,-1.224509401E1,-3.279103920E-2,1.224516792E1
1.207004721E1,2.975528178E-1,-1.278793782E1,2.295967698E-1,1.279345950E1
1.207999321E1,4.822410710E-1,-1.349682617E1,6.096717806E-1,1.351919276E1
1.208993921E1,2.686810210E-1,-1.448940740E1,5.786650193E-1,1.450344682E1
1.209988521E1,-7.876959622E-1,-1.909837925E1,1.868501151E-1,1.911552949E1
1.210983121E1,-5.245372855E0,-2.436687726E1,1.175487836E0,2.495276368E1
1.211977721E1,-4.637511519E0,-2.254287342E1,2.135261361E-1,2.301593466E1
1.212972321E1,-5.837611016E0,-1.814037377E1,-2.535934505E0,1.922451109E1
1.213966821E1,-7.506205219E0,-1.468429510E1,-5.124562363E0,1.726941744E1
1.214961421E1,-6.146857973E0,-1.191872582E1,-6.041159610E0,1.470834789E1
1.215956021E1,-3.530344158E0,-9.999269693E0,-6.053796612E0,1.221053552E1
1.216950621E1,-1.384363681E0,-8.814047266E0,-5.606883979E0,1.053760124E1
1.217945221E1,-6.146490768E-1,-8.291335423E0,-5.143751171E0,9.776615605E0
1.218939821E1,-2.364862517E-1,-8.022941208E0,-4.842277502E0,9.373961958E0
1.219934421E1,1.937448594E-1,-7.781075225E0,-4.435265685E0,8.958473666E0
1.220929021E1,1.983559737E-1,-7.703755154E0,-3.972120597E0,8.669771081E0
1.221923621E1,-2.602198076E-1,-7.915135508E0,-3.557740118E0,8.681854595E0
1.222918221E1,-8.950821242E-1,-8.174001101E0,-3.156266783E0,8.807808241E0
1.223912821E1,-1.365221944E0,-8.387381787E0,-2.737629239E0,8.927856296E0
1.224907421E1,-1.599547796E0,-8.568623253E0,-2.427033037E0,9.048223415E0
1.225901921E1,-1.704755577E0,-8.719988955E0,-2.002081962E0,9.107838994E0
1.226896521E1,-1.793903543E0,-8.777492228E0,-1.321626273E0,9.055890665E0
1.227891121E1,-1.874640142E0,-8.665856602E0,-5.308906361E-1,8.882183920E0
1.228885721E1,-1.877822051E0,-8.297629366E0,-1.563615632E-1,8.508896385E0
1.229880321E1,-1.751300876E0,-7.908263276E0,7.749665737E-2,8.100227684E0
1.230874921E1,-9.429186340E-1,-7.534200518E0,3.889217019E-1,7.602929244E0
1.231869521E1,-1.309483945E-2,-7.021792638E0,5.691194397E-1,7.044830748E0
1.232864121E1,6.205908711E-1,-6.452297223E0,6.877217308E-1,6.518453318E0
1.233858721E1,1.068780828E0,-5.657132612E0,7.012238288E-1,5.799754883E0
1.234853321E1,1.341912603E0,-4.466096299E0,2.650022453E-1,4.670864136E0
1.235847921E1,2.027332724E0,-2.324751787E0,-4.017428917E-1,3.110618298E0
1.236842421E1,2.062444669E0,5.631435853E0,1.272247707E0,6.130690174E0
1.237837021E1,1.010725139E0,3.011832253E1,4.695270900E0,3.049886041E1
1.238831621E1,1.906022880E0,5.984233223E1,5.020004207E0,6.008276036E1
1.239826221E1,6.658096994E0,8.748859466E1,6.475743973E0,8.798022341E1
1.240820821E1,1.192067528E1,7.052108814E1,2.070187523E1,7.445733013E1
1.241815421E1,9.377434680E0,3.311748574E1,3.202186254E1,4.701174133E1
1.242810021E1,5.901961963E0,1.751941818E1,2.647131824E1,3.228767346E1
1.243804621E1,2.783855571E0,1.296410624E1,1.830724278E1,2.260471280E1
1.244799221E1,4.136446360E0,1.310206895E1,1.310211222E1,1.898525069E1
1.245793821E1,6.638008300E0,1.300244994E1,9.838746082E0,1.760476592E1
1.246788421E1,6.743789694E0,1.138117257E1,6.753113079E0,1.485309142E1
1.247783021E1,4.931034143E0,8.654899505E0,3.658187097E0,1.061153693E1
1.248777521E1,2.754469804E0,4.994672315E0,1.071778257E0,5.803668156E0
1.249772121E1,8.960029145E-1,1.080083642E0,-3.821430248E-1,1.454453570E0
1.250766721E1,-4.567521809E-1,-2.954037906E0,-8.023216027E-1,3.094944662E0
1.251761321E1,-1.348727972E0,-6.752291545E0,-7.941091883E-1,6.931314281E0
1.252755921E1,-2.004388981E0,-9.695981634E0,-5.843979219E-1,9.918223427E0
1.253750521E1,-2.302513071E0,-1.151135966E1,-4.678667146E-1,1.174869639E1
1.254745121E1,-2.234834912E0,-1.211812172E1,-5.465684831E-1,1.233458950E1
1.255739721E1,-2.006238893E0,-1.211508702E1,-4.341560546E-1,1.228775079E1
1.256734321E1,-1.693325002E0,-1.211755454E1,-4.494038388E-1,1.224354693E1
1.257728921E1,-1.611568940E0,-1.219533888E1,-9.527999899E-1,1.233820379E1
1.258723521E1,-1.786267371E0,-1.255217925E1,-1.766518108E0,1.280111484E1
1.259718121E1,-1.965162934E0,-1.708657337E1,-3.674587952E0,1.758736624E1
1.260712721E1,-4.467057581E0,-2.461681064E1,-2.253955600E0,2.512015695E1
1.261707221E1,-3.622139305E0,-2.631396031E1,1.067724967E-1,2.656230036E1
1.262701821E1,-2.745705705E0,-2.309125804E1,-1.872218226E0,2.332917270E1
1.263696421E1,-6.250570621E0,-1.878006618E1,-4.042032246E0,2.020144905E1
1.264691021E1,-6.924334171E0,-1.441628212E1,-5.240047796E0,1.682954827E1
1.265685621E1,-5.769140705E0,-1.118715845E1,-5.338218454E0,1.367231052E1
1.266680221E1,-3.502102692E0,-9.103856909E0,-5.083455268E0,1.099938413E1
1.267674821E1,-1.942058685E0,-8.109019824E0,-4.971721408E0,9.708028028E0
1.268669421E1,-1.421454617E0,-8.098028812E0,-4.974005331E0,9.609335716E0
1.269664021E1,-1.115760282E0,-8.272723151E0,-4.836650142E0,9.647593168E0
1.270658621E1,-8.954386581E-1,-8.366531786E0,-4.633279304E0,9.605620314E0
1.271653221E1,-8.240431318E-1,-8.430267606E0,-4.291021891E0,9.495331898E0
1.272647821E1,-8.362835468E-1,-8.403977355E0,-3.427181148E0,9.114371957E0
1.273642421E1,-9.190086383E-1,-8.427672611E0,-2.421686928E0,8.816734662E0
1.274636921E1,-9.861278035E-1,-8.372450922E0,-1.617379611E0,8.584072419E0
1.275631521E1,-1.060072862E0,-8.373665974E0,-1.029100307E0,8.503004396E0
1.276626121E1,-1.175152937E0,-8.491784992E0,-5.821230626E-1,8.592453901E0
1.277620721E1,-1.289014598E0,-8.657244238E0,-4.251329237E-1,8.763000310E0
1.278615321E1,-1.405074958E0,-8.644569814E0,-2.703389990E-1,8.762186147E0
1.279609921E1,-1.452891733E0,-8.386068503E0,2.271877170E-2,8.511025524E0
1.280604521E1,-1.437622607E0,-8.274807683E0,-1.898403811E-1,8.400907113E0
1.281599121E1,-1.291153509E0,-8.496195547E0,-6.854743534E-1,8.621037713E0
1.282593721E1,-8.758896621E-1,-8.798578457E0,-8.897376229E-1,8.886720352E0
1.283588321E1,-4.998063992E-1,-8.914552717E0,-5.913806668E-1,8.948116432E0
1.284582921E1,-1.843141776E-1,-8.890091475E0,-2.867082793E-1,8.896622943E0
1.285577521E1,4.798429817E-2,-8.250240607E0,-3.159379256E-1,8.256427153E0
1.286572121E1,-2.974630630E-1,-7.423553656E0,-7.127928373E-1,7.463625580E0
1.287566621E1,-4.203680277E-1,-6.629163217E0,-1.092613640E0,6.731739656E0
1.288561221E1,-3.257323042E-2,-5.022898579E0,-1.242473100E0,5.174389872E0
1.289555821E1,2.234281035E-1,1.393806642E-1,-6.507892549E-1,7.020496715E-1
1.290550421E1,1.732895449E-2,1.922396808E1,9.356723258E-1,1.924673302E1
1.291545021E1,-2.627110139E-1,4.884615203E1,2.990763098E-1,4.884777407E1
1.292539621E1,4.573821307E0,8.869604937E1,1.518536231E0,8.882688201E1
1.293534221E1,1.921137552E1,9.575956072E1,1.784297620E1,9.928414888E1
1.294528821E1,1.176253967E1,4.582715039E1,3.552837929E1,5.916714280E1
1.295523421E1,4.511178331E0,2.061140945E1,2.822627347E1,3.524065044E1
1.296518021E1,9.721310310E-1,1.403667153E1,1.572016561E1,2.109731720E1
1.297512621E1,3.049505981E0,1.419066029E1,1.005982346E1,1.765996530E1
1.298507221E1,7.326079402E0,1.594030977E1,6.842191316E0,1.883030793E1
1.299501821E1,8.137613878E0,1.438603565E1,3.750503522E0,1.694830546E1
1.300496321E1,5.533666899E0,1.087166842E1,1.433977891E0,1.228295307E1
1.301490921E1,2.453130330E0,7.289386954E0,1.007220903E-1,7.691758936E0
1.302485521E1,3.411943889E-1,3.457189643E0,-8.946836364E-1,3.587343397E0
1.303480121E1,-1.191415651E0,-4.179776859E-1,-1.018160459E0,1.621982528E0
1.304474721E1,-1.660063700E0,-4.357030524E0,-2.651972499E-1,4.670102360E0
1.305469321E1,-1.931314719E0,-7.869628383E0,6.416219902E-1,8.128511931E0
1.306463921E1,-2.381428263E0,-1.066599261E1,1.550273309E0,1.103802275E1
1.307458521E1,-2.585223902E0,-1.239920322E1,2.329551181E0,1.287829305E1
1.308453121E1,-2.292010156E0,-1.299027253E1,2.794294898E0,1.348364101E1
1.309447721E1,-1.695484232E0,-1.324754183E1,3.054471729E0,1.370043170E1
1.310442321E1,-1.058388425E0,-1.339112957E1,2.652818592E0,1.369233302E1
1.311436921E1,-9.411701703E-1,-1.350728918E1,1.471396563E0,1.361975294E1
1.312431521E1,-1.086687341E0,-1.396916309E1,1.473360935E-1,1.401214169E1
1.313426021E1,-1.396084718E0,-1.702380701E1,-2.161310853E0,1.721715198E1
1.314420621E1,-4.976037238E0,-2.434832287E1,-2.995681776E0,2.503149781E1
1.315415221E1,-5.148468704E0,-2.415997470E1,1.205573076E-1,2.470274563E1
1.316409821E1,-2.425215576E0,-1.911379017E1,-1.062052145E0,1.929628462E1
1.317404421E1,-5.464097897E0,-1.555340886E1,-3.215941127E0,1.679604627E1
1.318399021E1,-5.549815155E0,-1.274008186E1,-4.940056397E0,1.474836572E1
1.319393621E1,-4.282767962E0,-1.068264080E1,-5.775725840E0,1.287710856E1
1.320388221E1,-2.841838024E0,-9.344082747E0,-5.683652658E0,1.130008112E1
1.321382821E1,-1.515295265E0,-8.519889050E0,-5.340718723E0,1.016896778E1
1.322377421E1,-5.521329859E-1,-8.098560324E0,-5.474188437E0,9.790723630E0
1.323372021E1,-4.632398129E-2,-8.011369568E0,-5.381581405E0,9.651197163E0
1.324366621E1,6.991004124E-2,-8.027095070E0,-4.861640265E0,9.384811598E0
1.325361221E1,-4.549806207E-2,-8.174577636E0,-3.862756906E0,9.041387091E0
1.326355821E1,-2.790357091E-1,-8.307565539E0,-2.850811746E0,8.787527168E0
1.327350321E1,-8.812281699E-1,-8.531596345E0,-1.954375991E0,8.796833794E0
1.328344921E1,-1.348178772E0,-8.729799414E0,-1.045945843E0,8.894997836E0
1.329339521E1,-1.737874061E0,-8.885982052E0,-4.388791430E-1,9.064959911E0
1.330334121E1,-2.099300108E0,-9.180298144E0,-2.901090199E-1,9.421735413E0
1.331328721E1,-1.798869437E0,-9.537513903E0,-7.728604066E-1,9.736396454E0
1.332323321E1,-1.716587857E0,-9.835872760E0,-1.048901610E0,1.003948512E1
1.333317921E1,-1.667532641E0,-1.004662278E1,-6.112433660E-1,1.020239741E1
1.334312521E1,-1.448746934E0,-9.951407894E0,-4.478353232E-2,1.005641051E1
1.335307121E1,-1.433234125E0,-9.626305043E0,5.402245465E-1,9.747397160E0
1.336301721E1,-1.391344234E0,-9.009314448E0,9.892383760E-1,9.169633481E0
1.337296321E1,-1.096264496E0,-8.185965089E0,5.309771749E-1,8.276095519E0
1.338290921E1,-6.481515759E-1,-7.526899100E0,-6.838944358E-1,7.585645795E0
1.339285521E1,-1.765199853E-1,-7.023725728E0,-1.777074087E0,7.247197715E0
1.340280021E1,2.475676024E-1,-6.580926027E0,-2.492075125E0,7.041329101E0
1.341274621E1,3.218754807E-1,-5.954231393E0,-2.740783227E0,6.562649465E0
1.342269221E1,4.289264511E-1,-4.415830125E0,-2.925994952E0,5.314600648E0
1.343263821E1,7.681840959E-1,-1.465773003E0,-2.257856424E0,2.799377240E0
1.344258421E1,1.103094482E0,7.733764819E0,1.114726348E0,7.891169149E0
1.345253021E1,1.292239629E0,3.799096925E1,6.509042112E0,3.856619319E1
1.346247621E1,4.073555755E0,8.321762930E1,7.157489557E0,8.362414328E1
1.347242221E1,1.040780413E1,1.038916156E2,2.660422779E1,1.077477384E2
1.348236821E1,1.355612864E1,5.727277097E1,4.837860867E1,7.618680132E1
1.349231421E1,9.575982150E0,2.387557315E1,3.195049142E1,4.101921903E1
1.350226021E1,4.155867594E0,1.348436693E1,1.792879344E1,2.281536809E1
1.351220621E1,4.961852478E0,1.082687290E1,1.239081247E1,1.718643042E1
1.352215121E1,7.652716563E0,1.135890170E1,8.274793065E0,1.600190360E1
1.353209721E1,8.640244628E0,1.124327886E1,6.685656091E0,1.567683463E1
1.354204321E1,6.771708979E0,8.808093631E0,5.189591587E0,1.226256159E1
1.355198921E1,3.538323269E0,5.848005027E0,3.498370999E0,7.678378344E0
1.356193521E1,2.908995634E-1,2.647463127E0,1.542675583E0,3.077910252E0
1.357188121E1,-1.676794923E0,-6.788833719E-1,-2.048034060E-1,1.820568121E0
1.358182721E1,-2.394495475E0,-4.240760395E0,-1.077993847E0,4.987958304E0
1.359177321E1,-2.532254267E0,-7.551012433E0,-1.609300805E0,8.125266119E0
1.360171921E1,-2.554391826E0,-1.004067850E1,-2.368963754E0,1.062789404E1
1.361166521E1,-2.402634360E0,-1.132158711E1,-2.917529353E0,1.193578502E1
1.362161121E1,-2.090659239E0,-1.140431585E1,-2.972206667E0,1.196926433E1
1.363155721E1,-1.924521131E0,-1.135273639E1,-2.153549405E0,1.171435787E1
1.364150321E1,-1.774288327E0,-1.185198687E1,-8.735325032E-1,1.201585415E1
1.365144821E1,-1.630695767E0,-1.262435845E1,2.709003317E-1,1.273212401E1
1.366139421E1,-1.492465689E0,-1.436824842E1,2.493954420E-1,1.444770620E1
1.367134021E1,-3.209937791E0,-2.261913748E1,-7.382671094E-1,2.285769278E1
1.368128621E1,-5.499333803E0,-2.742705967E1,2.049190055E0,2.804791354E1
1.369123221E1,-6.084048352E-1,-2.399111647E1,2.153007368E0,2.409521252E1
1.370117821E1,-2.734267967E0,-1.978196086E1,-8.465715766E-1,1.998796838E1
1.371112421E1,-4.271327884E0,-1.561051043E1,-3.130294620E0,1.648426590E1
1.372107021E1,-3.615153928E0,-1.223947834E1,-4.459012982E0,1.351876343E1
1.373101621E1,-2.512929220E0,-9.948391900E0,-5.156701584E0,1.148376619E1
1.374096221E1,-1.126661831E0,-8.749056634E0,-5.342341910E0,1.031290337E1
1.375090821E1,-1.014005135E-1,-8.246395478E0,-5.384541850E0,9.849193438E0
1.376085421E1,4.919280070E-1,-8.166639456E0,-5.521740918E0,9.870441527E0
1.377080021E1,4.710553475E-1,-8.282564600E0,-4.865395639E0,9.617423990E0
1.378074521E1,1.154502033E-1,-8.505377430E0,-3.681650219E0,9.268728192E0
1.379069121E1,-1.408945084E-1,-8.691466237E0,-2.580332998E0,9.067499931E0
1.380063721E1,-3.034085119E-1,-8.752672552E0,-1.395391822E0,8.868396240E0
1.381058321E1,-1.733775455E-1,-8.700335879E0,-2.580941986E-1,8.705889776E0
1.382052921E1,-2.308860809E-2,-9.113859156E0,3.922803426E-1,9.122326768E0
1.383047521E1,4.901852444E-2,-9.908251934E0,8.808900547E-1,9.947453267E0
1.384042121E1,9.693543345E-2,-1.045618282E1,1.123940975E0,1.051686260E1
1.385036721E1,1.708629504E-2,-1.084669262E1,9.497309326E-1,1.088820562E1
1.386031321E1,-1.703988276E-1,-1.098922435E1,1.169076218E0,1.105254843E1
1.387025921E1,-6.953393371E-1,-1.064164480E1,1.432598533E0,1.076013195E1
1.388020521E1,-1.626574503E0,-9.984262229E0,1.514723992E0,1.022866686E1
1.389015121E1,-2.060278568E0,-9.230461991E0,1.077289842E0,9.518756734E0
1.390009621E1,-2.164928964E0,-8.543424677E0,1.419275652E-1,8.814599598E0
1.391004221E1,-1.972241866E0,-8.334531729E0,-9.644748330E-1,8.618838020E0
1.391998821E1,-1.470375931E0,-8.267870547E0,-1.980211329E0,8.627915488E0
1.392993421E1,-8.962099059E-1,-8.189465232E0,-2.898471816E0,8.733365436E0
1.393988021E1,-3.154963146E-1,-8.007533795E0,-3.429134118E0,8.716598889E0
1.394982621E1,3.547216299E-1,-7.298067731E0,-3.533595795E0,8.116274963E0
1.395977221E1,1.309868546E0,-5.687190809E0,-3.704586507E0,6.912586787E0
1.396971821E1,2.904244187E0,-1.424636672E0,-3.969695172E0,5.120810844E0
1.397966421E1,4.573623671E0,1.766244342E1,-1.757685304E0,1.832946804E1
1.398961021E1,4.663814633E0,5.733227224E1,-1.431869093E0,5.753947216E1
1.399955683E1,-3.958487813E0,1.106193004E2,-5.235332016E0,1.108138436E2
1.400950283E1,-7.431548554E0,1.012507324E2,9.456950381E0,1.019626041E2
1.401944783E1,-2.376092679E0,4.201569666E1,3.678063537E1,5.589078386E1
1.402939383E1,1.467457294E0,1.785109330E1,3.857718302E1,4.253250537E1
1.403933983E1,3.566503632E0,9.108900717E0,2.309067800E1,2.507730909E1
1.404928583E1,6.878275069E0,7.720713249E0,1.133059299E1,1.533957035E1
1.405923183E1,7.919748377E0,7.543164300E0,5.405535693E0,1.220006386E1
1.406917783E1,7.543848424E0,6.187366898E0,2.512035765E0,1.007489364E1
1.407912383E1,6.649826692E0,4.646804498E0,1.076194951E0,8.183592283E0
1.408906983E1,4.985917279E0,2.373096566E0,-6.089237756E-1,5.555334966E0
1.409901583E1,3.024767288E0,1.064994317E-1,-2.064030288E0,3.663438318E0
1.410896183E1,6.465896384E-1,-2.580885560E0,-2.659517162E0,3.761925035E0
1.411890783E1,-6.471394229E-1,-4.950279669E0,-2.720070927E0,5.685318292E0
1.412885383E1,-1.304651806E0,-7.107526268E0,-2.772823922E0,7.739999903E0
1.413879883E1,-1.838633281E0,-9.127585495E0,-2.571154624E0,9.659411235E0
1.414874483E1,-2.074589775E0,-1.054128553E1,-2.113182567E0,1.094934537E1
1.415869083E1,-1.953746392E0,-1.089225881E1,-1.542754228E0,1.117311584E1
1.416863683E1,-1.676286508E0,-1.097765622E1,-7.254406571E-1,1.112857299E1
1.417858283E1,-1.504222393E0,-1.137457224E1,1.541244185E-1,1.147463868E1
1.418852883E1,-1.305728279E0,-1.197530582E1,1.020658097E0,1.208944245E1
1.419847483E1,-1.127508069E0,-1.295160489E1,1.605462254E0,1.309934551E1
1.420842083E1,-1.263480538E0,-1.415346498E1,1.362136368E0,1.427488598E1
1.421836683E1,-2.037446507E0,-1.800569018E1,-8.081670642E-2,1.812077808E1
1.422831283E1,-4.659920973E0,-2.266113686E1,-2.205631578E0,2.324019789E1
1.423825883E1,-2.200450507E0,-2.149675274E1,-9.621008635E-1,2.163048772E1
1.424820483E1,-1.563561984E0,-1.927075283E1,-1.131340334E0,1.936715187E1
1.425815083E1,-3.796494797E0,-1.592871123E1,-2.560876973E0,1.657393451E1
1.426809583E1,-3.671724863E0,-1.295134878E1,-3.332719379E0,1.386816560E1
1.427804183E1,-2.986990767E0,-1.064915029E1,-3.724925462E0,1.167054349E1
1.428798783E1,-1.983523922E0,-9.141891877E0,-4.039509757E0,1.018951389E1
1.429793383E1,-8.990675864E-1,-8.499880462E0,-4.163149717E0,9.507265956E0
1.430787983E1,-5.012185018E-1,-8.452449603E0,-4.106901256E0,9.410725913E0
1.431782583E1,-5.006906444E-1,-8.612622381E0,-3.778271949E0,9.418242635E0
1.432777183E1,-4.995241249E-1,-8.766421695E0,-3.266087433E0,9.368404389E0
1.433771783E1,-5.603832610E-1,-8.904943988E0,-2.349266823E0,9.226652233E0
1.434766383E1,-5.662143968E-1,-8.909804778E0,-1.299745992E0,9.021893347E0
1.435760983E1,-6.054174927E-1,-8.873233953E0,-5.821154612E-1,8.912893443E0
1.436755583E1,-6.350112744E-1,-8.783524216E0,-3.461823562E-1,8.813250206E0
1.437750183E1,-6.357850072E-1,-8.703340178E0,-4.089006145E-1,8.736106258E0
1.438744783E1,-7.457431401E-1,-8.722921919E0,-4.231249899E-1,8.764960604E0
1.439739283E1,-7.603890996E-1,-8.821694255E0,-3.212676626E-1,8.860231037E0
1.440733883E1,-5.053887360E-1,-8.811355208E0,-6.639507526E-1,8.850775615E0
1.441728483E1,-2.600125238E-1,-8.570374494E0,-1.272754076E0,8.668265595E0
1.442723083E1,-3.417726785E-2,-8.227845186E0,-1.786402442E0,8.419610334E0
1.443717683E1,1.519422376E-1,-7.965219834E0,-2.232712081E0,8.273621739E0
1.444712283E1,4.138378572E-1,-7.662611221E0,-2.506340577E0,8.072708070E0
1.445706883E1,9.267288633E-1,-7.132183977E0,-2.785795970E0,7.712816208E0
1.446701483E1,1.368758048E0,-6.215259286E0,-2.913037230E0,6.999195132E0
1.447696083E1,2.134910090E0,-4.071586413E0,-2.817569740E0,5.392064192E0
1.448690683E1,3.664124944E0,7.453972042E-1,-1.908303148E0,4.197981599E0
1.449685283E1,4.717545575E0,1.793062479E1,1.739653953E0,1.862226994E1
1.450679783E1,6.087701692E0,5.269423739E1,5.030032766E0,5.328268008E1
1.451674383E1,4.143731406E0,9.698531487E1,1.047919044E1,9.763777570E1
1.452668983E1,-2.971329877E0,9.696895203E1,2.942555612E1,1.013788430E2
1.453663583E1,-8.041090965E0,4.275167868E1,3.003565226E1,5.286308334E1
1.454658183E1,-3.741755503E0,1.907994532E1,1.600423153E1,2.518294014E1
1.455652783E1,-1.517806060E0,1.085028281E1,1.204666991E1,1.628356928E1
1.456647383E1,8.800226934E-1,7.640691179E0,8.871578606E0,1.174135889E1
1.457641983E1,5.505712531E0,8.565032478E0,7.430563883E0,1.260499629E1
1.458636583E1,6.658707443E0,8.119990954E0,6.495108197E0,1.234743165E1
1.459631183E1,5.246170415E0,6.076349908E0,4.600306562E0,9.252413344E0
1.460625783E1,4.123771058E0,3.451172274E0,2.691108791E0,6.013164253E0
1.461620283E1,2.441040919E0,5.206957233E-1,1.554779904E0,2.940602890E0
1.462614883E1,9.882021032E-1,-2.663595595E0,4.542619979E-1,2.877088607E0
1.463609483E1,-1.829228327E-3,-5.761835194E0,-2.878058016E-2,5.761907364E0
1.464604083E1,-6.485702366E-1,-8.279918734E0,-9.534616023E-2,8.305828585E0
1.465598683E1,-9.826143578E-1,-1.036581761E1,-1.891580111E-1,1.041400434E1
1.466593283E1,-1.045323114E0,-1.168739243E1,-1.360278708E-1,1.173483471E1
1.467587883E1,-7.244576671E-1,-1.202520245E1,-2.220830977E-2,1.204702561E1
1.468582483E1,-4.104629906E-1,-1.195178715E1,-3.158984569E-1,1.196300496E1
1.469577083E1,-5.608335697E-1,-1.184469305E1,-8.773024955E-1,1.189037205E1
1.470571683E1,-7.752288213E-1,-1.198095891E1,-1.433542566E0,1.209129440E1
1.471566283E1,-1.095954301E0,-1.255893512E1,-1.857317766E0,1.274274682E1
1.472560883E1,-1.404370076E0,-1.454233640E1,-1.834556748E0,1.472472077E1
1.473555383E1,-3.344183138E0,-2.223709678E1,-2.544531666E0,2.263065787E1
1.474549983E1,-4.687449664E0,-2.548728797E1,-1.984001640E0,2.599058089E1
1.475544583E1,-1.097787549E0,-2.254831600E1,-6.378563833E-1,2.258403314E1
1.476539183E1,-4.302682701E0,-1.900916711E1,-9.717587095E-1,1.951424678E1
1.477533783E1,-5.142460690E0,-1.441979513E1,-2.238115200E0,1.547205718E1
1.478528383E1,-4.403641896E0,-1.117071959E1,-3.207156855E0,1.242831015E1
1.479522983E1,-3.352870054E0,-9.131971491E0,-3.807007506E0,1.044643226E1
1.480517583E1,-2.048247337E0,-8.154815801E0,-3.968993506E0,9.297808740E0
1.481512183E1,-1.257677176E0,-8.117842103E0,-3.924442400E0,9.103974980E0
1.482506783E1,-9.615227200E-1,-8.318367686E0,-3.890270103E0,9.233307553E0
1.483501383E1,-7.678813563E-1,-8.383339022E0,-3.831477519E0,9.249336999E0
1.484495983E1,-5.951680546E-1,-8.466411000E0,-3.844475879E0,9.317421050E0
1.485490483E1,-5.464383826E-1,-8.586626830E0,-3.604517258E0,9.328520777E0
1.486485083E1,-6.217823875E-1,-8.615195156E0,-3.013545020E0,9.148204988E0
1.487479683E1,-7.317938031E-1,-8.657445967E0,-2.497964733E0,9.040283217E0
1.488474283E1,-7.916383012E-1,-8.709127167E0,-2.039515398E0,8.979711035E0
1.489468883E1,-8.265088295E-1,-8.696336383E0,-1.655249687E0,8.890963663E0
1.490463483E1,-8.336723265E-1,-8.665612189E0,-1.319447893E0,8.805043265E0
1.491458083E1,-8.288777559E-1,-8.611613737E0,-1.033309717E0,8.712901839E0
1.492452683E1,-7.375903673E-1,-8.571734557E0,-1.083281192E0,8.671341938E0
1.493447283E1,-6.768489064E-1,-8.524005489E0,-1.270896707E0,8.644765611E0
1.494441883E1,-5.866670801E-1,-8.446045148E0,-1.456399624E0,8.590748324E0
1.495436483E1,-3.168185893E-1,-8.224275461E0,-1.627728305E0,8.389790242E0
1.496431083E1,2.066911065E-1,-7.704439863E0,-1.761383668E0,7.905921024E0
1.497425583E1,8.192406674E-1,-6.626781646E0,-1.817870110E0,6.920263145E0
1.498420183E1,1.484225646E0,-5.013157117E0,-1.640890095E0,5.479707142E0
1.499414783E1,2.343160868E0,-2.211818663E0,-1.056676653E0,3.391033796E0
1.500409296E1,3.113466334E0,4.512930157E0,8.110754693E-1,5.542387088E0
1.501403896E1,4.739858258E0,1.919314390E1,5.351012746E0,2.048112220E1
1.502398496E1,6.600250490E0,5.207479272E1,1.465829487E1,5.449966011E1
1.503393096E1,6.104650431E0,9.244173829E1,3.123151779E1,9.776578869E1
1.504387696E1,-1.956688272E0,7.385855721E1,4.421488124E1,8.610383747E1
1.505382296E1,-6.122921811E0,2.994226053E1,2.737083986E1,4.102672314E1
1.506376896E1,-5.128327970E0,1.414878604E1,1.268429241E1,1.968195031E1
1.507371396E1,-3.625327791E0,9.444173630E0,8.176441144E0,1.300729053E1
1.508365996E1,-1.333503723E0,1.064902516E1,5.963451868E0,1.227773298E1
1.509360596E1,2.374535273E0,1.375958601E1,7.789030947E0,1.598854678E1
1.510355196E1,3.250346729E0,1.483086492E1,9.147236817E0,1.772544074E1
1.511349796E1,2.172746691E0,1.335915933E1,6.616544926E0,1.506541181E1
1.512344396E1,1.127172293E0,1.048809926E1,3.847929245E0,1.122841498E1
1.513338996E1,1.162108676E0,7.186932626E0,1.679068320E0,7.471396628E0
1.514333596E1,1.015566268E0,3.686668884E0,-3.161390698E-1,3.837036124E0
1.515328196E1,3.899977358E-1,-1.450226426E-2,-1.459560044E0,1.510835554E0
1.516322796E1,-2.829694234E-2,-3.709644933E0,-2.064427899E0,4.245483341E0
1.517317396E1,-3.909587988E-1,-6.987032111E0,-2.283545288E0,7.361117142E0
1.518311996E1,-8.142988931E-1,-9.628945645E0,-2.179178629E0,9.905982860E0
1.519306496E1,-1.137559798E0,-1.146434571E1,-1.763158883E0,1.165478417E1
1.520301096E1,-9.320755573E-1,-1.213466817E1,-7.471662793E-1,1.219332579E1
1.521295696E1,-4.343512054E-1,-1.256857835E1,2.224666750E-1,1.257804890E1
1.522290296E1,-1.790913715E-1,-1.283032077E1,8.674806350E-1,1.286086029E1
1.523284896E1,-1.521269365E-1,-1.332700432E1,1.373298118E0,1.339843776E1
1.524279496E1,-2.869399021E-1,-1.379366125E1,1.405589951E0,1.386806072E1
1.525274096E1,-3.469035371E-1,-1.572114677E1,4.188009739E-1,1.573054964E1
1.526268696E1,-6.888813798E-1,-2.592713425E1,-2.160415206E0,2.602610692E1
1.527263296E1,-2.593017948E0,-3.057942226E1,-3.554401942E0,3.089431309E1
1.528257896E1,-6.956129868E-1,-2.416124004E1,-2.437606557E0,2.429385361E1
1.529252496E1,-3.765568289E0,-1.915637895E1,-1.714248678E0,1.959808683E1
1.530247096E1,-5.083782127E0,-1.480896008E1,-2.324184753E0,1.582883363E1
1.531241596E1,-5.437877812E0,-1.199916480E1,-3.285596668E0,1.357739358E1
1.532236196E1,-4.882591423E0,-9.893742653E0,-4.315049855E0,1.184675052E1
1.533230796E1,-3.262840182E0,-8.288948590E0,-4.377773522E0,9.925608081E0
1.534225396E1,-1.927952570E0,-7.696248499E0,-4.079784209E0,8.921540296E0
1.535219996E1,-7.008226367E-1,-7.708069814E0,-3.853920887E0,8.646282371E0
1.536214596E1,2.266206832E-1,-7.876502954E0,-3.880357318E0,8.783383667E0
1.537209196E1,6.478437200E-1,-8.143449984E0,-3.970775737E0,9.083090833E0
1.538203796E1,7.273192213E-1,-8.430239539E0,-3.913775325E0,9.322851990E0
1.539198396E1,6.452583736E-1,-8.565516627E0,-3.682329665E0,9.345800406E0
1.540192996E1,4.866734067E-1,-8.626143483E0,-3.135569978E0,9.191245916E0
1.541187596E1,1.606664295E-1,-8.687284893E0,-2.251009334E0,8.975621179E0
1.542182096E1,-2.459419303E-1,-8.704008515E0,-1.604232731E0,8.854028141E0
1.543176696E1,-6.652327546E-1,-8.604300039E0,-1.486436771E0,8.757054759E0
1.544171296E1,-9.581607903E-1,-8.399322971E0,-1.507502242E0,8.587156775E0
1.545165896E1,-1.183556847E0,-8.249455326E0,-1.589075871E0,8.484072259E0
1.546160496E1,-1.368536877E0,-8.090946665E0,-1.662168405E0,8.372521420E0
1.547155096E1,-1.387797897E0,-7.874352348E0,-1.768986218E0,8.189061005E0
1.548149696E1,-1.078971355E0,-7.549193364E0,-1.911919943E0,7.861929629E0
1.549144296E1,-5.558278415E-1,-7.147760959E0,-2.196213030E0,7.498185313E0
1.550138896E1,1.275925313E-1,-6.284714853E0,-2.452622792E0,6.747538751E0
1.551133496E1,8.916884002E-1,-4.756566676E0,-2.695722829E0,5.539580880E0
1.552128096E1,1.749556944E0,-7.073137039E-1,-2.659697548E0,3.261170530E0
1.553122596E1,2.617687351E0,1.118861908E1,-9.724036574E-1,1.153182782E1
1.554117196E1,2.413675073E0,3.726220269E1,2.958619199E0,3.745732244E1
1.555111796E1,2.407624520E0,8.020812821E1,1.129945890E1,8.103590722E1
1.556106396E1,4.262833049E0,9.623995860E1,2.990992543E1,1.008707342E2
1.557100996E1,5.545160771E0,5.681330612E1,4.471251204E1,7.251006339E1
1.558095596E1,2.646148965E0,2.604692732E1,2.717918216E1,3.773794470E1
1.559090196E1,-2.191370950E0,1.615450146E1,1.437396816E1,2.173432734E1
1.560084796E1,-5.029003072E-1,1.383432980E1,9.209695605E0,1.662708883E1
1.561079396E1,3.419699051E0,1.414639687E1,6.421656643E0,1.590762585E1
1.562073996E1,4.305879374E0,1.282436129E1,5.826793667E0,1.472943869E1
1.563068596E1,3.204715058E0,9.871603925E0,4.537135291E0,1.132715142E1
1.564063096E1,1.402239935E0,5.258768241E0,3.003919333E0,6.216466168E0
1.565057696E1,8.677613014E-1,4.571008211E-1,2.039843573E0,2.263385216E0
1.566052296E1,8.626470342E-2,-3.645231421E0,7.695593610E-1,3.726576891E0
1.567046896E1,-4.425378189E-1,-7.187126169E0,-3.238012612E-2,7.200810424E0
1.568041496E1,-8.217877145E-1,-9.889001731E0,8.901976526E-2,9.923488036E0
1.569036096E1,-1.032362030E0,-1.174563186E1,2.877172163E-1,1.179442328E1
1.570030696E1,-7.534588335E-1,-1.240103691E1,4.381868327E-1,1.243163000E1
1.571025296E1,-6.462503538E-1,-1.260719336E1,5.556875083E-1,1.263597058E1
1.572019896E1,-8.336113693E-1,-1.273417851E1,3.970907007E-1,1.276761103E1
1.573014496E1,-9.581439064E-1,-1.295915481E1,2.979299632E-1,1.299794197E1
1.574009096E1,-1.105474299E0,-1.325961867E1,-3.619309545E-1,1.331054299E1
1.575003596E1,-6.749743621E-1,-1.624370308E1,-1.553343682E0,1.633175914E1
1.575998196E1,-1.404193344E0,-2.829810535E1,-2.538711932E0,2.844643358E1
1.576992796E1,-3.291535100E-1,-3.018889375E1,-1.665532162E0,3.023659447E1
1.577987396E1,1.537272464E-1,-2.286400016E1,-1.373787092E0,2.290575095E1
1.578981996E1,-3.630844055E0,-1.660255021E1,-2.012080116E0,1.711362523E1
1.579976596E1,-3.699973639E0,-1.258297186E1,-2.455302570E0,1.334351889E1
1.580971196E1,-3.686618890E0,-1.033159035E1,-3.145441833E0,1.141169235E1
1.581965796E1,-1.767124757E0,-8.542606652E0,-3.829056771E0,9.526832321E0
1.582960396E1,-6.299078245E-1,-7.835480644E0,-4.084952563E0,8.858802302E0
1.583954996E1,-1.224333867E-1,-7.625138170E0,-4.128746454E0,8.672039514E0
1.584949596E1,5.052834861E-2,-7.640777718E0,-3.899492331E0,8.578465929E0
1.585944096E1,-2.401799378E-1,-7.803664774E0,-3.374991240E0,8.505612040E0
1.586938696E1,-7.176618869E-1,-8.034105881E0,-2.603524225E0,8.475861861E0
1.587933296E1,-1.068922331E0,-8.315560437E0,-1.667962265E0,8.548288627E0
1.588927896E1,-1.209603123E0,-8.540344364E0,-7.947735782E-1,8.662117906E0
1.589922496E1,-1.107266982E0,-8.694910247E0,-2.645509864E-1,8.769121484E0
1.590917096E1,-9.783578040E-1,-8.863521727E0,-6.477033868E-2,8.917589170E0
1.591911696E1,-1.177972537E0,-9.311372253E0,7.516449541E-3,9.385591566E0
1.592906296E1,-1.500991660E0,-9.927760584E0,6.312010825E-2,1.004078634E1
1.593900896E1,-1.486137101E0,-1.022465881E1,7.777381539E-3,1.033210103E1
1.594895496E1,-1.290093409E0,-1.028882849E1,-2.095764881E-1,1.037151170E1
1.595890096E1,-9.669268629E-1,-1.015371571E1,-5.286847740E-1,1.021334411E1
1.596884696E1,-4.708866553E-1,-9.931133258E0,-8.081922072E-1,9.975084796E0
1.597879196E1,5.352307320E-2,-9.442850990E0,-1.136493778E0,9.511147021E0
1.598873796E1,3.880732709E-1,-8.750376935E0,-1.637563760E0,8.910741408E0
1.599868396E1,5.893199618E-1,-7.998285838E0,-2.271971310E0,8.335570047E0
1.600863012E1,8.398377769E-1,-7.435148685E0,-2.946996396E0,8.041862422E0
1.601857612E1,9.555454038E-1,-6.771761019E0,-3.205203592E0,7.552691202E0
1.602852212E1,1.357393253E0,-5.319955260E0,-3.472891464E0,6.496569520E0
1.603846812E1,2.785565882E0,-1.962448364E0,-3.790142089E0,5.096641828E0
1.604841412E1,4.729860688E0,5.603401378E0,-2.786471616E0,7.844368247E0
1.605836012E1,5.373595862E0,2.809563732E1,2.290309932E0,2.869644383E1
1.606830613E1,4.416663060E0,8.306246758E1,1.299583908E1,8.418890822E1
1.607825112E1,-3.080557619E0,1.209618086E2,2.857466929E1,1.243292432E2
1.608819713E1,-8.274983100E0,6.717983943E1,3.586505261E1,7.660227262E1
1.609814313E1,-6.343617949E0,2.332459002E1,2.642701271E1,3.581431263E1
1.610808912E1,-3.794621349E0,1.106439382E1,1.964190601E1,2.286098059E1
1.611803512E1,-6.969636936E-1,8.874084722E0,1.291768753E1,1.568763173E1
1.612798112E1,4.386547561E0,1.105171238E1,6.973606904E0,1.378453261E1
1.613792712E1,7.142178622E0,1.114409955E1,3.817267323E0,1.377581940E1
1.614787312E1,6.838070199E0,9.058817561E0,2.144988497E0,1.155085950E1
1.615781912E1,4.698306482E0,5.645526474E0,1.237541558E0,7.448326125E0
1.616776512E1,2.807810737E0,1.877325768E0,9.484973162E-1,3.508247473E0
1.617771112E1,1.271386997E0,-1.436122942E0,6.474338302E-1,2.024362755E0
1.618765612E1,3.634198383E-1,-4.913396017E0,8.458427212E-1,4.998898309E0
1.619760213E1,-2.036721160E-1,-8.033144014E0,1.093473620E0,8.109782343E0
1.620754813E1,-5.255017691E-1,-1.026412634E1,5.642796993E-1,1.029304878E1
1.621749413E1,-6.208041483E-1,-1.160426490E1,2.573289442E-1,1.162370766E1
1.622744012E1,-3.879486521E-1,-1.216325287E1,3.085271645E-1,1.217334849E1
1.623738612E1,2.153500289E-2,-1.234939313E1,3.376607703E-1,1.235402725E1
1.624733212E1,2.354228624E-1,-1.275226746E1,9.690894556E-1,1.279120337E1
1.625727812E1,2.536737766E-1,-1.341104752E1,1.546991998E0,1.350236017E1
1.626722412E1,3.063648641E-3,-1.380483644E1,8.953572357E-1,1.383384195E1
1.627717012E1,2.523170033E-1,-1.538757130E1,-6.948642509E-1,1.540531891E1
1.628711612E1,-4.067387527E-1,-2.534371544E1,-1.185967435E0,2.537470921E1
1.629706112E1,-1.690265300E0,-2.980574442E1,-8.946890451E-2,2.985376696E1
1.630700712E1,-5.179382495E-1,-2.414609575E1,5.745625397E-1,2.415848344E1
1.631695313E1,-4.955318214E0,-1.923139639E1,-8.925494758E-1,1.987959834E1
1.632689913E1,-6.422586350E0,-1.494720697E1,-2.268427897E0,1.642602742E1
1.633684513E1,-5.474658553E0,-1.146722605E1,-2.916397625E0,1.303742822E1
1.634679112E1,-3.122585651E0,-8.951013615E0,-2.964395664E0,9.932715013E0
1.635673712E1,-1.457830730E0,-7.659139144E0,-3.066676329E0,8.378077738E0
1.636668312E1,-4.425270016E-1,-7.402293765E0,-3.363961637E0,8.142850915E0
1.637662912E1,-1.852471009E-2,-7.408591801E0,-3.423269361E0,8.161271271E0
1.638657512E1,-3.115574840E-1,-7.479434327E0,-3.365522844E0,8.207664097E0
1.639652112E1,-7.186287240E-1,-7.748499802E0,-3.029049497E0,8.350498026E0
1.640646612E1,-1.238221443E0,-8.183163103E0,-2.516707690E0,8.650501044E0
1.641641212E1,-1.760294917E0,-8.584066919E0,-1.745851271E0,8.934922480E0
1.642635812E1,-1.971641211E0,-8.879253661E0,-1.123688083E0,9.164670728E0
1.643630413E1,-1.868382598E0,-9.067206561E0,-4.069327341E-1,9.266643546E0
1.644625013E1,-1.365309067E0,-9.219644642E0,6.091921628E-2,9.320387724E0
