"Time (s)","Linear Acceleration x (m/s^2)","Linear Acceleration y (m/s^2)","Linear Acceleration z (m/s^2)","Absolute acceleration (m/s^2)"
3.739041684E-3,1.390183561E-1,7.891891949E-2,-3.142147511E-1,3.525410742E-1
1.368504169E-2,1.946733972E-1,1.394168439E-1,-5.026611561E-1,5.567791535E-1
2.363104164E-2,3.242359286E-1,1.932203642E-1,-5.319989759E-1,6.522928459E-1
3.357704164E-2,4.568886403E-1,2.579208286E-1,-5.185971576E-1,7.377082047E-1
4.352304165E-2,5.340317604E-1,2.572825319E-1,-4.070819843E-1,7.190966307E-1
5.346904165E-2,5.328538388E-1,2.698917601E-1,-2.836864382E-1,6.612509137E-1
6.341504166E-2,4.741749101E-1,2.471960118E-1,-1.855602193E-1,5.660214737E-1
7.336104166E-2,3.775392196E-1,2.177513342E-1,-9.672873437E-2,4.464391939E-1
8.330604166E-2,2.831554014E-1,1.953850765E-1,-3.694329321E-2,3.460016132E-1
9.325204167E-2,2.393663708E-1,1.599282186E-1,-7.640322804E-2,2.978434955E-1
1.031980417E-1,2.453703649E-1,1.230740223E-1,-1.634478039E-1,3.194824182E-1
1.131440417E-1,1.905028707E-1,6.317419499E-2,-2.401854926E-1,3.130038235E-1
1.230900417E-1,1.636845795E-1,-6.468774676E-3,-2.524506122E-1,3.009415196E-1
1.330360417E-1,3.382214452E-1,-1.135183563E-1,-1.023373836E-1,3.711510518E-1
1.429820416E-1,6.844003661E-1,-2.333082899E-1,2.062336349E-1,7.519101884E-1
1.529280416E-1,9.945597808E-1,-3.879696290E-1,5.168032318E-1,1.186067102E0
1.628740416E-1,1.214863132E0,-5.974313655E-1,9.947873837E-1,1.680005537E0
1.728190416E-1,1.545487509E0,-7.884017211E-1,1.461119204E0,2.268254449E0
1.827650417E-1,1.906655402E0,-9.894080915E-1,1.193046001E0,2.457157291E0
1.927110417E-1,2.463073520E0,-1.196771408E0,5.333140147E-1,2.789877561E0
2.026570417E-1,3.115009122E0,-1.033864034E0,2.960041827E-1,3.295417294E0
2.126030417E-1,3.880192719E0,-2.487423080E-1,5.925498176E-1,3.933050160E0
2.225490417E-1,3.195297240E0,-9.877800804E-1,8.103340423E-1,3.441260699E0
2.324950417E-1,2.118016168E0,-1.581381958E0,5.748555583E-1,2.705036099E0
2.424410417E-1,1.786872120E0,-1.086106713E0,7.934490377E-1,2.236537757E0
2.523860417E-1,1.193577513E0,-1.117719099E0,1.377713935E0,2.138227994E0
2.623320417E-1,1.547384346E0,-6.712591875E-1,1.506219948E0,2.261346002E0
2.722780416E-1,2.116606697E0,-7.791366617E-1,1.018293191E0,2.474671467E0
2.822240416E-1,2.163391731E0,-3.964808361E-1,6.367793262E-1,2.289748621E0
2.921700416E-1,1.728510622E0,-6.345534374E-1,-2.792519099E-1,1.862361045E0
3.021160417E-1,2.361959520E0,-1.566848265E0,-1.470564796E0,3.193184473E0
3.120620417E-1,2.190558480E0,-1.791852340E0,-2.212396368E0,3.592210872E0
3.220080417E-1,2.232644691E0,-1.481084522E0,-2.632939813E0,3.756419271E0
3.319540417E-1,2.413006444E0,-9.910768868E-1,-2.616516153E0,3.694724655E0
3.418990417E-1,1.677470130E0,-6.882378206E-1,-2.226066574E0,2.871053766E0
3.518450417E-1,3.656130923E-1,-5.112083966E-1,-1.782483346E0,1.890040697E0
3.617910417E-1,-7.650391710E-1,-2.908701812E-1,-1.744384058E0,1.926853948E0
3.717370417E-1,-1.206810347E0,2.517295043E-1,-1.942836218E0,2.300950136E0
3.816830417E-1,-1.852556378E0,1.375057545E-1,-2.318459598E0,2.970879983E0
3.916290416E-1,-2.417275057E0,-4.273057491E-2,-2.852551877E0,3.739264208E0
4.015750416E-1,-2.749079256E0,-3.405111417E-2,-3.285442886E0,4.284008776E0
4.115210416E-1,-2.769972235E0,-8.138856411E-2,-3.688099698E0,4.613182162E0
4.214660416E-1,-2.293334697E0,-1.703485416E-1,-4.137917227E0,4.734000595E0
4.314120417E-1,-1.676783667E0,3.557410920E-1,-4.399268471E0,4.721410623E0
4.413580417E-1,-5.002461829E-1,7.957230198E-1,-3.193156282E0,3.328613586E0
4.513040417E-1,-2.658364091E0,1.468554962E0,7.496705832E0,8.088519744E0
4.612500417E-1,-8.272624333E0,1.845726684E0,9.548759853E0,1.276800043E1
4.711960417E-1,-1.607461213E1,2.957776323E0,1.652660190E1,2.324371240E1
4.811420417E-1,-1.190209868E1,3.677247850E0,1.753830937E1,2.151219189E1
4.910880417E-1,-2.457824475E0,2.005804591E0,4.146852357E0,5.221162484E0
5.010340417E-1,1.810802873E0,1.524276442E0,-9.711810046E-1,2.558440592E0
5.109789167E-1,2.181607854E0,5.712766238E-1,-2.675991692E0,3.499528732E0
5.209249167E-1,2.241129878E0,2.657993670E-1,-3.516595016E0,4.178486920E0
5.308709167E-1,2.182327939E0,6.916778107E-1,-5.146769503E0,5.632957460E0
5.408169167E-1,3.068482827E0,1.788815734E0,-5.761393729E0,6.768242482E0
5.507629167E-1,4.472949528E0,2.467824675E0,-5.302490796E0,7.363005144E0
5.607089167E-1,4.021166165E0,2.063499215E0,-3.713612269E0,5.849677121E0
5.706549167E-1,3.157751683E0,1.663323523E0,-2.019728274E0,4.100895406E0
5.806009166E-1,4.004825536E0,7.409327088E-1,-2.323897508E0,4.689147948E0
5.905459166E-1,4.330686479E0,-6.593016315E-1,-2.272525626E0,4.934966741E0
6.004919166E-1,4.134383755E0,-1.302095257E0,-1.904300144E0,4.734441903E0
6.104379166E-1,3.771652901E0,-1.317699868E0,-1.811548101E0,4.386730567E0
6.203839167E-1,2.222783362E0,-8.800061019E-1,-1.226050025E0,2.686703422E0
6.303299167E-1,-1.573763182E0,4.172336277E-1,7.589609903E-1,1.796339678E0
6.402759167E-1,-2.044208373E0,5.863400745E-1,-9.587094784E-3,2.126658051E0
6.502219167E-1,-1.737405991E0,7.822755933E-1,4.363660097E-1,1.954725038E0
6.601679167E-1,-3.188161005E0,1.160573635E0,3.293998532E0,4.728818890E0
6.701139167E-1,-3.781453712E0,1.409091118E0,4.261115722E0,5.868733862E0
6.800589167E-1,-1.877614475E0,1.044106163E0,3.848134482E0,4.407236411E0
6.900049167E-1,8.783852537E-1,1.844281983E-1,4.384904786E0,4.475819969E0
6.999509167E-1,2.063939364E0,-7.952868176E-1,5.387062000E0,5.823466649E0
7.098969166E-1,1.672058824E0,-1.922722381E0,4.770896448E0,5.408705481E0
7.198429166E-1,7.788571648E-1,-2.535068240E0,3.187216680E0,4.146268157E0
7.297889167E-1,-4.660727888E-2,-2.550171013E0,7.330677652E-1,2.653852442E0
7.397349167E-1,-2.206672675E0,-2.258314553E0,-1.167222358E0,3.366273451E0
7.496809167E-1,-5.390967355E0,-1.480055412E0,-8.558832675E-1,5.655583897E0
7.596269167E-1,-7.327678615E0,-1.079776005E0,1.176124159E0,7.499603866E0
7.695719167E-1,-6.974782194E0,-1.309703654E0,2.705614856E0,7.594949774E0
7.795179167E-1,-3.955071285E0,-2.156457226E0,3.186773461E0,5.518008856E0
7.894639167E-1,-7.438656722E-1,-3.053678261E0,4.195618721E0,5.242280373E0
7.994099167E-1,9.011095072E-1,-3.795288516E0,4.253958730E0,5.771687634E0
8.093559167E-1,1.145365758E0,-3.630575667E0,4.365258726E0,5.792100322E0
8.193019167E-1,2.133539941E0,-2.131536246E0,3.960367693E0,4.977946536E0
8.292479166E-1,2.445169492E0,-1.486786873E0,3.484803704E0,4.509240059E0
8.391939166E-1,2.371421046E0,-7.629574891E-1,1.963707270E0,3.172047943E0
8.491399167E-1,2.125192164E0,-2.008578511E-1,5.418258065E-1,2.202353471E0
8.590849167E-1,1.471137531E0,1.602859585E-1,2.467408061E-1,1.500272725E0
8.690309167E-1,3.165048131E-1,1.190415047E0,9.104781353E-1,1.531742052E0
8.789769167E-1,-1.376253593E0,1.215370744E0,1.956184242E0,2.682882179E0
8.889229167E-1,-1.956356443E0,-3.681281991E-1,1.664918059E0,2.595149522E0
8.988689167E-1,-2.404142065E0,-2.305806662E0,4.464314067E-1,3.360943979E0
9.088149167E-1,-3.193910280E0,-2.594636165E0,-1.631569049E0,4.426648536E0
9.187609167E-1,-2.458315348E0,-1.067388606E0,-3.204847205E0,4.177759973E0
9.287069167E-1,-1.157499608E0,-2.841242485E-2,-2.926311579E0,3.147048151E0
9.386529166E-1,-1.320446744E-1,6.350099587E-1,-2.827745064E0,2.901174864E0
9.485989166E-1,1.155349514E0,1.139672251E0,-3.002638208E0,3.413139544E0
9.585439166E-1,2.268992592E0,1.031975894E0,-3.898736286E0,4.627466505E0
9.684899166E-1,2.800539724E0,9.139866109E-1,-5.291776943E0,6.056508688E0
9.784359167E-1,2.229486903E0,1.004633949E0,-6.800796538E0,7.227083421E0
9.883819167E-1,1.277733711E0,1.329309807E0,-8.492931631E0,8.690774171E0
9.983279167E-1,7.076008753E-1,1.351085423E0,-9.432480369E0,9.554989101E0
1.008273917E0,3.976033553E-2,7.519957870E-1,-9.263429763E0,9.293987816E0
1.018219917E0,-1.477774121E-2,9.234050866E-2,-9.502695488E0,9.503155618E0
1.028165917E0,1.029911754E-1,-5.330491723E-2,-9.651401877E0,9.652098569E0
1.038111917E0,4.468707519E-1,-4.764793709E-2,-9.824171312E0,9.834444863E0
1.048056917E0,8.014679092E-1,-8.663283133E-2,-9.973520894E0,1.000604693E1
1.058002917E0,1.020328826E0,7.588940397E-2,-1.004881783E1,1.010077076E1
1.067948917E0,8.976586267E-1,1.882001641E-1,-8.707158410E0,8.755330827E0
1.077894917E0,7.297403341E-1,4.748605327E-1,-8.736467578E0,8.779742549E0
1.087840917E0,1.292886331E0,7.564719037E-1,-9.377065721E0,9.495955262E0
1.097786917E0,9.300264005E-1,5.059031082E-1,-7.551364435E0,7.625220776E0
1.107732917E0,7.181388004E-1,9.242996375E-1,-5.980138067E0,6.093611774E0
1.117678917E0,1.040406922E0,1.347161064E0,-3.682242542E0,4.056624167E0
1.127624917E0,1.497150770E0,2.075989598E-1,9.621546578E-1,1.791730823E0
1.137569917E0,2.225373533E0,-1.652944276E0,4.133054098E0,4.976610123E0
1.147515917E0,2.744079887E0,-2.738519477E0,6.060503368E0,7.194384229E0
1.157461917E0,3.147871351E0,-4.691612881E0,9.014600916E0,1.063876662E1
1.167407917E0,4.055126793E0,-6.049031716E0,1.113332664E1,1.330360102E1
1.177353917E0,5.258254856E0,-6.483989131E0,1.278533230E1,1.526944927E1
1.187299917E0,5.741167626E0,-6.913892214E0,1.417314788E1,1.678216411E1
1.197245917E0,5.625423161E0,-5.953732626E0,1.445403175E1,1.661358937E1
1.207191917E0,4.967816638E0,-5.292783834E0,1.376216347E1,1.555923861E1
1.217137917E0,5.050442473E0,-7.332283298E0,1.300545658E1,1.576106749E1
1.227083917E0,4.025907964E0,-8.670486428E0,1.303150709E1,1.616185159E1
1.237028917E0,-2.467169495E0,-3.618463160E0,1.603984575E1,1.662699169E1
1.246974917E0,-5.910783073E0,-3.415310715E0,1.764302130E1,1.891766118E1
1.256920917E0,-7.484485736E0,-6.334714394E0,1.684458752E1,1.949067115E1
1.266866917E0,-7.453928187E0,-7.342071537E0,1.617972518E1,1.926786358E1
1.276812917E0,-3.795469780E0,-6.800874306E0,1.449855128E1,1.645799111E1
1.286758917E0,3.888892499E-1,-5.991700936E0,1.288187217E1,1.421247148E1
1.296704917E0,4.923134555E0,-3.783076022E0,1.201601413E1,1.352529163E1
1.306650917E0,7.695589517E0,-9.882806021E-1,1.055259171E1,1.309793833E1
1.316596917E0,8.806642352E0,6.791903508E-1,8.657184012E0,1.236790540E1
1.326542917E0,7.050813539E0,2.505655868E0,7.309598440E0,1.046052160E1
1.336487917E0,5.141219326E0,3.022964007E0,4.631398255E0,7.551178540E0
1.346433917E0,3.322609543E0,3.729370515E0,1.465815103E0,5.205434903E0
1.356379917E0,1.655443230E0,3.898831596E0,-1.668121163E0,4.552362938E0
1.366325917E0,3.948382071E-1,4.209847920E0,-4.718800095E0,6.336070632E0
1.376271917E0,-4.768266955E-1,4.723707079E0,-6.977394145E0,8.439478735E0
1.386217917E0,-9.780497289E-1,4.826373076E0,-8.792426017E0,1.007755990E1
1.396163917E0,-1.278036450E0,4.738595259E0,-1.063489712E1,1.171275795E1
1.406109917E0,-1.082381013E0,4.699011948E0,-1.176952943E1,1.271904419E1
1.416055917E0,-2.841078763E-1,4.478325458E0,-1.239363434E1,1.318098207E1
1.426000917E0,1.152157299E-1,4.059753695E0,-1.304545270E1,1.366304179E1
1.435946917E0,-8.959001496E-2,3.612698098E0,-1.367649708E1,1.414588938E1
1.445892917E0,-6.291288292E-1,3.302585168E0,-1.412115444E1,1.451584908E1
1.455838917E0,-1.469929350E0,2.433648723E0,-1.440979405E1,1.468759691E1
1.465784917E0,-2.854334693E0,2.013319141E0,-1.415710546E1,1.458164310E1
1.475730917E0,-4.154774750E0,1.124375497E0,-1.323621109E1,1.391846463E1
1.485676917E0,-4.807849681E0,3.087993523E-1,-1.091918290E1,1.193479496E1
1.495622917E0,-4.674943054E0,4.114084853E-1,-9.509515096E0,1.060449088E1
1.505568917E0,-4.222405985E0,-8.697718665E-2,-8.114275301E0,9.147553826E0
1.515514833E0,-3.673302734E0,-8.903871024E-1,-7.428425556E0,8.334713457E0
1.525459833E0,-3.340254978E0,-7.990857536E-1,-7.284234973E0,8.053317360E0
1.535405833E0,-2.789401071E0,-4.624619870E-1,-7.516526724E0,8.030741150E0
1.545351833E0,-1.895268534E0,-2.168846306E-1,-8.244839534E0,8.462650926E0
1.555297833E0,-1.376160623E0,-1.985495165E-1,-8.980208178E0,9.087209632E0
1.565243833E0,-1.848848951E0,-7.438769281E-1,-8.622115921E0,8.849433783E0
1.575189833E0,-2.422078545E0,-1.131897574E0,-7.144630360E0,7.628459843E0
1.585135833E0,-2.352274046E0,-7.708553964E-1,-4.828910767E0,5.426397555E0
1.595081833E0,-1.870823518E0,-5.071787149E-1,-3.302263572E0,3.829119427E0
1.605027833E0,-1.432651304E0,-4.351269847E-1,-1.873535603E0,2.398324604E0
1.614973833E0,-4.802851774E-1,-8.432035804E-2,-9.098559916E-1,1.032289543E0
1.624918833E0,3.744055505E-1,-2.586340427E-2,-1.205135704E0,1.262220463E0
1.634864833E0,1.040380609E0,-1.751325873E-1,-1.947392369E0,2.214813824E0
1.644810833E0,1.143442317E0,-7.183012068E-1,-1.912464611E0,2.341140287E0
1.654756833E0,4.811727847E-1,-1.122215754E0,-1.231570382E0,1.734260953E0
1.664702833E0,2.053613766E-1,-2.201840682E0,1.314921856E-2,2.211435866E0
1.674648833E0,1.713840104E-1,-3.933800869E0,3.039171027E0,4.974004653E0
1.684594833E0,-5.488997680E-1,-4.054788532E0,7.194598326E0,8.276765435E0
1.694540833E0,-8.502727910E-1,-2.629490248E0,9.807920145E0,1.018982239E1
1.704486833E0,1.879290725E-1,-2.814444988E0,9.913371756E0,1.030685973E1
1.714432833E0,1.793133464E-1,-2.563912555E0,7.904922177E0,8.312255740E0
1.724377833E0,-1.718647612E-1,-1.172480174E0,5.719422415E0,5.840893769E0
1.734323833E0,-1.189745540E0,-1.655203494E-1,4.548991106E0,4.704913550E0
1.744269833E0,-3.087806413E0,-4.058698565E-2,5.087594512E0,5.951454751E0
1.754215833E0,-4.997928044E0,-7.977824092E-1,6.717868987E0,8.411034730E0
1.764161833E0,-6.753004321E0,-1.581227446E0,8.734467246E0,1.115321773E1
1.774107833E0,-7.489445345E0,-3.276850403E0,1.142276265E1,1.404667387E1
1.784053833E0,-7.177522702E0,-4.737565272E0,1.437003533E1,1.674691829E1
1.793999833E0,-5.820068784E0,-5.564627906E0,1.578242910E1,1.771788228E1
1.803945833E0,-3.138954347E0,-6.427900300E0,1.532917633E1,1.691610427E1
1.813890833E0,-4.923853324E-1,-7.375556202E0,1.491483444E1,1.664612745E1
1.823836833E0,1.441064424E0,-7.259158604E0,1.551442431E1,1.718922371E1
1.833782833E0,3.142068281E0,-6.040727500E0,1.635279575E1,1.771374920E1
1.843728833E0,5.052373223E0,-4.780241760E0,1.496234658E1,1.649996974E1
1.853674833E0,6.794483884E0,-3.078058812E0,1.165528069E1,1.383781143E1
1.863620833E0,6.957941628E0,-1.420312656E0,7.934447692E0,1.064827216E1
1.873566833E0,5.570619548E0,-4.239909625E-1,4.223159106E0,7.003330873E0
1.883512833E0,3.283202818E0,3.799260530E-1,1.517170613E0,3.636697846E0
1.893458833E0,1.267442757E0,6.105361453E-1,-5.943472517E-1,1.527224339E0
1.903404833E0,3.483672414E-1,6.630980824E-1,-1.820747525E0,1.968801755E0
1.913349833E0,1.039836380E0,1.566517605E0,-3.903705250E0,4.332914929E0
1.923295833E0,2.714040401E0,2.391739974E0,-5.921149017E0,6.938763657E0
1.933241833E0,3.624192262E0,3.209256005E0,-6.771773298E0,8.324122012E0
1.943187833E0,3.539022888E0,4.122030927E0,-8.411342508E0,1.001331637E1
1.953133833E0,2.638834683E0,3.559061881E0,-1.004968906E1,1.098301508E1
1.963079833E0,7.161013381E-1,2.798214287E0,-1.037744889E1,1.077191950E1
1.973025833E0,-8.165160111E-1,2.316932305E0,-9.716453320E0,1.002219232E1
1.982971833E0,-1.129177888E0,1.277822734E0,-8.768852382E0,8.933120717E0
1.992917833E0,-1.184101515E0,6.394313309E-1,-7.945590146E0,8.058745039E0
2.002863833E0,-5.329948298E-1,5.969935553E-1,-9.161740835E0,9.196628726E0
2.012808833E0,3.842957503E-1,8.437669596E-1,-1.116824271E1,1.120666191E1
2.022754833E0,3.257328889E-1,3.536917160E-1,-1.154252649E1,1.155253728E1
2.032700833E0,-6.498644447E-1,-4.871726858E-1,-1.017513640E1,1.020750027E1
2.042646833E0,-2.094002531E0,-1.318514239E0,-8.834938783E0,9.174937040E0
2.052592833E0,-2.586761135E0,-1.835891521E0,-8.133730157E0,8.730372106E0
2.062538833E0,-1.768030344E0,-1.932342513E0,-7.624020182E0,8.061362331E0
2.072484833E0,-7.752127415E-1,-1.541596626E0,-7.012588536E0,7.221763838E0
2.082430833E0,-1.300599832E-1,-1.324833910E0,-6.857053769E0,6.985076011E0
2.092376833E0,3.578620598E-1,-1.198538291E0,-7.189507155E0,7.297504534E0
2.102322833E0,5.262677544E-1,-7.969256459E-1,-7.417762574E0,7.478987220E0
2.112267833E0,3.123809547E-1,-5.403179558E-1,-7.604982233E0,7.630549136E0
2.122213833E0,6.383032568E-2,-9.925787441E-2,-7.735795557E0,7.736695634E0
2.132159833E0,2.391777616E-1,4.414659512E-1,-7.862604707E0,7.878619865E0
2.142105833E0,5.346621633E-1,1.044903723E0,-7.771490470E0,7.859627952E0
2.152051833E0,1.446807559E0,1.949569580E0,-7.904131633E0,8.268577298E0
2.161997833E0,2.368756031E0,2.036854622E0,-7.941026979E0,8.533445457E0
2.171943833E0,2.614405308E0,1.165700620E0,-7.209944928E0,7.757401557E0
2.181889833E0,2.692395763E0,-6.822860860E-1,-5.545547272E0,6.202225713E0
2.191835833E0,2.783979240E0,-2.656415506E0,-1.757625078E0,4.230405378E0
2.201781833E0,3.177838916E0,-3.964032143E0,3.214330804E0,6.011999129E0
2.211726833E0,3.146151977E0,-4.687376866E0,8.960935171E0,1.059094582E1
2.221672833E0,3.067628256E0,-4.295768953E0,1.398123057E1,1.494452349E1
2.231618833E0,3.014029461E0,-3.604451477E0,1.628692920E1,1.695112111E1
2.241564833E0,1.480139904E0,-2.844008218E0,1.606719669E1,1.638395576E1
2.251510833E0,-8.504548587E-2,-1.391915653E0,1.363638050E1,1.370749923E1
2.261456833E0,-8.361838518E-1,6.492056827E-1,1.019124431E1,1.024607886E1
2.271402833E0,-1.109795391E0,3.228632801E0,7.228430316E0,7.994117863E0
2.281348833E0,-1.583789549E0,5.917479304E0,4.880838720E0,7.832466870E0
2.291294833E0,-3.166913978E0,7.063702556E0,2.914827647E0,8.271726432E0
2.301240833E0,-5.639406778E0,6.275835271E0,2.889314491E0,8.918360577E0
2.311185833E0,-7.669427320E0,4.775490605E0,4.961620343E0,1.030742947E1
2.321131833E0,-8.699558784E0,2.696445252E0,7.355627137E0,1.170719397E1
2.331077833E0,-8.549502858E0,5.444411199E-1,9.716648617E0,1.295390580E1
2.341023833E0,-7.827299219E0,-2.760362628E0,1.179594365E1,1.442326251E1
2.350969833E0,-6.301086472E0,-6.318759096E0,1.516645183E1,1.759692212E1
2.360915833E0,-2.505780121E0,-8.828964098E0,1.893315915E1,2.104029602E1
2.370861833E0,1.726194101E0,-9.849892044E0,1.933329698E1,2.176640741E1
2.380807833E0,4.487280761E0,-9.035730999E0,1.670383568E1,1.951405262E1
2.390753833E0,5.466787616E0,-7.311024576E0,1.333888119E1,1.616361960E1
2.400699833E0,4.872511116E0,-5.107106085E0,8.593987890E0,1.112117462E1
2.410644833E0,3.731512350E0,-2.909711334E0,1.958813151E0,5.121284353E0
2.420590833E0,2.961186127E0,-1.070168884E0,-3.838499440E0,4.964671456E0
2.430536833E0,2.954610348E0,7.475333382E-1,-8.328517283E0,8.868637355E0
2.440482833E0,3.622505048E0,2.819569780E0,-1.142751994E1,1.231506105E1
2.450428833E0,4.198720084E0,4.669944270E0,-1.260355406E1,1.408144895E1
2.460374833E0,4.478214653E0,5.975171442E0,-1.298226886E1,1.497652780E1
2.470320833E0,4.060559149E0,6.802229691E0,-1.393033991E1,1.602538110E1
2.480266833E0,3.953261864E0,6.829092969E0,-1.510571797E1,1.704252051E1
2.490212833E0,3.256663183E0,6.161586524E0,-1.449489209E1,1.608331124E1
2.500158833E0,1.504162167E0,5.390751593E0,-1.293131388E1,1.409047853E1
2.510104417E0,3.072974950E-2,4.068072529E0,-1.260872066E1,1.324877334E1
2.520050417E0,-1.228843533E0,2.809289790E0,-1.189724315E1,1.228603110E1
2.529996417E0,-2.348165354E0,1.394122830E0,-1.110933552E1,1.144005221E1
2.539942417E0,-2.884282670E0,-3.278753087E-3,-9.879964274E0,1.029236568E1
2.549888417E0,-2.793295316E0,-6.139594708E-1,-8.094243910E0,8.584650804E0
2.559834417E0,-1.934639153E0,-9.167245696E-1,-6.728884556E0,7.061239265E0
2.569780417E0,-1.127510847E0,-1.096784752E0,-5.950819543E0,6.155198675E0
2.579726417E0,-2.865609294E-1,-6.457052471E-1,-6.093225557E0,6.134040277E0
2.589672417E0,7.280803826E-1,-2.240508319E-1,-8.177149826E0,8.212556186E0
2.599618417E0,7.593325078E-1,-9.898605198E-3,-1.083668219E1,1.086325756E1
2.609563417E0,-1.187364116E-1,1.454189377E-1,-1.309633049E1,1.309767603E1
2.619509417E0,-7.320227947E-1,2.436732106E-1,-1.425815587E1,1.427901407E1
2.629455417E0,-1.027869907E0,1.379368405E-1,-1.316021016E1,1.320101036E1
2.639401417E0,-9.376459073E-1,1.808777690E-2,-1.163299344E1,1.167073448E1
2.649347417E0,-3.227002305E-1,-1.243234992E-1,-1.128206227E1,1.128736111E1
2.659293417E0,-8.198665387E-1,-6.239486347E-1,-1.029299405E1,1.034442939E1
2.669239417E0,-1.852850786E0,-9.633515829E-1,-7.934942951E0,8.205146065E0
2.679185417E0,-2.100795241E0,-9.113145795E-1,-6.083745466E0,6.500445662E0
2.689131417E0,-1.811546054E0,-6.356804882E-1,-5.270810582E0,5.609566203E0
2.699077417E0,-1.373910322E0,-2.120627242E-1,-4.765945610E0,4.964558161E0
2.709023417E0,-5.494560575E-1,4.674474692E-1,-5.394556376E0,5.442577293E0
2.718968417E0,9.513821863E-1,9.848570573E-1,-6.436250709E0,6.580303540E0
2.728914417E0,1.846448961E0,1.140428077E0,-5.154976655E0,5.593186416E0
2.738860417E0,1.807438239E0,1.215639935E0,-2.499625635E0,3.315530388E0
2.748806417E0,1.773081608E0,5.173307969E-1,-4.001781768E-1,1.889865634E0
2.758752417E0,6.475951403E-1,-4.645921277E-1,2.602522597E0,2.721828278E0
2.768698417E0,-1.168164052E0,-6.263423386E-1,5.072647859E0,5.242963692E0
2.778644417E0,-1.736542650E0,6.546513408E-2,5.793141187E0,6.048169216E0
2.788590417E0,-2.014423972E0,1.192914146E0,7.771367093E0,8.116347368E0
2.798536417E0,-2.465218279E0,3.089331366E0,9.612950587E0,1.039375238E1
2.808482417E0,-2.566590287E0,2.907106399E0,1.119193796E1,1.184475110E1
2.818427417E0,-2.899754110E0,7.606511280E-1,1.563888814E1,1.592362981E1
2.828373417E0,-3.881811520E0,-1.523060075E0,2.159038304E1,2.198937953E1
2.838319417E0,-5.073577566E0,-2.694261902E0,2.533003997E1,2.597327784E1
2.848265417E0,-5.709315503E0,-3.465707867E0,2.538882086E1,2.625261205E1
2.858211417E0,-6.162085876E0,-4.233547270E0,2.400373710E1,2.514107435E1
2.868157417E0,-5.385449338E0,-4.872133970E0,2.312651442E1,2.423997572E1
2.878103417E0,-3.805201886E0,-7.099007460E0,2.289064008E1,2.426637326E1
2.888049417E0,-1.050430950E0,-1.019275991E1,2.336592749E1,2.551396338E1
2.897995417E0,2.346752082E0,-1.162165452E1,2.432725652E1,2.706262199E1
2.907941417E0,4.980273546E0,-1.041165042E1,2.296387294E1,2.570107098E1
2.917886417E0,7.565264436E0,-8.707429136E0,1.798521206E1,2.136633803E1
2.927832417E0,8.711953712E0,-6.849760537E0,1.293846152E1,1.703587812E1
2.937778417E0,8.641333380E0,-5.122887720E0,9.875236216E0,1.408676370E1
2.947724417E0,7.986418329E0,-3.731013875E0,8.884232565E0,1.251530785E1
2.957670417E0,7.023657900E0,-2.157273205E0,9.408828966E0,1.193782478E1
2.967616417E0,5.295261299E0,2.842702827E-1,7.202326591E0,8.943942651E0
2.977562417E0,4.596335426E0,1.942508482E0,1.284646143E0,5.152664773E0
2.987508417E0,3.778102965E0,3.624679043E0,-4.508141872E0,6.909102931E0
2.997454417E0,2.763497028E0,5.790788852E0,-8.285829100E0,1.047974786E1
3.007400417E0,2.294440844E0,7.522123094E0,-1.191207870E1,1.427390674E1
3.017345417E0,1.433203573E0,8.055385069E0,-1.482397105E1,1.693202347E1
3.027291417E0,-3.128231138E-1,7.628430737E0,-1.617127362E1,1.788297806E1
3.037237417E0,-2.551539554E0,6.486929696E0,-1.670767028E1,1.810350401E1
3.047183417E0,-4.537883150E0,4.930200330E0,-1.635444934E1,1.767391502E1
3.057129417E0,-5.704278712E0,3.845015869E0,-1.510351240E1,1.659635591E1
3.067075417E0,-5.575330065E0,3.524008116E0,-1.407567597E1,1.554437494E1
3.077021417E0,-5.041960502E0,2.943256810E0,-1.302725967E1,1.427563032E1
3.086967417E0,-4.520362553E0,2.565700341E0,-1.146458895E1,1.258782331E1
3.096913417E0,-3.564961429E0,2.375412063E0,-1.005540296E1,1.092989758E1
3.106859417E0,-2.536049695E0,1.907697376E0,-8.972656499E0,9.517322207E0
3.116804417E0,-2.186156550E0,1.409218149E0,-7.979495226E0,8.392706376E0
3.126750417E0,-2.391413553E0,7.714167291E-1,-6.689012977E0,7.145406718E0
3.136696417E0,-2.537496881E0,6.034943435E-1,-5.476298697E0,6.065718693E0
3.146642417E0,-2.339425959E0,5.133571753E-1,-5.247508843E0,5.768257836E0
3.156588417E0,-1.657643538E0,5.567487779E-1,-5.758746695E0,6.018381410E0
3.166534417E0,-9.195043360E-1,9.320499757E-1,-6.131172232E0,6.269408132E0
3.176480417E0,-4.760557401E-1,1.209761437E0,-6.358027827E0,6.489581624E0
3.186426417E0,-2.796971753E-1,1.282502846E0,-6.595476238E0,6.724830917E0
3.196372417E0,-1.165733072E-1,1.440442573E0,-6.626307437E0,6.782065643E0
3.206318417E0,1.802404225E-1,1.595498452E0,-6.964166574E0,7.146867705E0
3.216263417E0,-9.699273616E-2,1.420337214E0,-7.124804791E0,7.265645787E0
3.226209417E0,-5.450277418E-1,1.128229031E0,-6.967254488E0,7.079024728E0
3.236155417E0,-2.022858873E-1,1.057384312E0,-7.222161516E0,7.301958513E0
3.246101417E0,7.269818370E-1,1.319187254E0,-7.601510741E0,7.749304688E0
3.256047417E0,1.366855071E0,1.296737308E0,-7.685931087E0,7.913492092E0
3.265993417E0,1.563360401E0,1.344574110E0,-7.320122843E0,7.605009778E0
3.275939417E0,1.507334135E0,1.226012165E0,-6.806443779E0,7.078335888E0
3.285885417E0,9.857668110E-1,9.298930840E-1,-5.568092381E0,5.730627376E0
3.295831417E0,8.181071846E-1,3.777736929E-1,-4.416204931E0,4.507202938E0
3.305777417E0,1.490059413E0,-4.984393202E-1,-3.690083073E0,4.010664770E0
3.315723417E0,1.859864667E0,-1.736847874E0,-1.556077986E0,2.982803349E0
3.325668417E0,1.442609258E0,-2.981038301E0,3.319626294E0,4.689096881E0
3.335614417E0,1.392462952E0,-2.466927420E0,7.989006892E0,8.476373935E0
3.345560417E0,7.181928141E-1,2.620308365E-1,9.955568773E0,9.984879101E0
3.355506417E0,-8.952633879E-1,3.621630889E0,9.643681213E0,1.034013028E1
3.365452417E0,-1.810695284E0,6.547761204E0,9.954940782E0,1.205208033E1
3.375398417E0,-1.583068149E0,7.191327394E0,1.331145657E1,1.521236900E1
3.385344417E0,-2.259452275E0,5.687307753E0,2.002399115E1,2.093826200E1
3.395290417E0,-4.525502840E0,3.334492547E0,2.613661893E1,2.673428259E1
3.405236417E0,-6.355152751E0,1.390045128E0,2.724205610E1,2.800803122E1
3.415182417E0,-7.797568467E0,3.361757602E-1,2.371847717E1,2.496960648E1
3.425127417E0,-8.459921175E0,-4.326713734E-1,1.893113719E1,2.073994759E1
3.435073417E0,-6.890660056E0,-2.611507428E0,1.520539194E1,1.689689650E1
3.445019417E0,-4.196075973E0,-6.638655002E0,1.547992106E1,1.735818970E1
3.454965417E0,-1.911848607E0,-9.372358128E0,1.878612390E1,2.108114591E1
3.464911417E0,-7.878808804E-2,-9.860130519E0,1.987500877E1,2.218658052E1
3.474857417E0,3.468282104E0,-8.688699920E0,1.830994186E1,2.056152859E1
3.484803417E0,6.995133428E0,-7.388101988E0,1.635113046E1,1.925812582E1
3.494749417E0,8.028931096E0,-5.574645356E0,1.388560287E1,1.698088255E1
3.504695417E0,8.356751148E0,-3.261310258E0,9.004254853E0,1.271015499E1
3.514640667E0,8.174450752E0,-1.535984322E0,3.077341066E0,8.868535446E0
3.524585667E0,7.714094785E0,-6.929454871E-2,-1.877337463E0,7.939550116E0
3.534531667E0,6.706615435E0,1.310669030E0,-6.431652458E0,9.384172699E0
3.544477667E0,5.194306197E0,2.224237711E0,-1.049061590E1,1.191558107E1
3.554423667E0,3.834030121E0,3.172163316E0,-1.341397347E1,1.430723912E1
3.564369667E0,2.885642147E0,4.063559940E0,-1.586405272E1,1.662851824E1
3.574315667E0,2.334514736E0,4.338948594E0,-1.859271555E1,1.923448739E1
3.584261667E0,1.741921211E0,4.229697463E0,-2.053281117E1,2.103618228E1
3.594207667E0,1.108590353E0,3.863430798E0,-2.130153526E1,2.167741854E1
3.604153667E0,5.359837072E-1,2.850825486E0,-2.158503634E1,2.177907891E1
3.614099667E0,3.283558767E-3,1.724675141E0,-2.124132297E1,2.131122514E1
3.624044667E0,-1.166345276E0,3.267842913E-1,-1.946990899E1,1.950754996E1
3.633990667E0,-2.446976866E0,-1.025509605E0,-1.702434145E1,1.722984526E1
3.643936667E0,-2.917277631E0,-1.850399633E0,-1.497072447E1,1.536414914E1
3.653882667E0,-2.704976632E0,-2.358865320E0,-1.326816730E1,1.374501392E1
3.663828667E0,-2.878415281E0,-2.785312990E0,-1.118284204E1,1.187851838E1
3.673774667E0,-2.761993417E0,-2.683787200E0,-9.267493578E0,1.003582376E1
3.683720667E0,-1.776543013E0,-2.137684447E0,-8.109302244E0,8.572431555E0
3.693666667E0,-1.170327887E0,-1.506982571E0,-7.181173704E0,7.430337785E0
3.703612667E0,-9.477198558E-1,-8.114969073E-1,-6.648353194E0,6.764414265E0
3.713558667E0,-8.979017977E-1,-2.408386266E-1,-6.317958028E0,6.385986574E0
3.723503667E0,-8.797771834E-1,2.315465239E-1,-5.629181167E0,5.702219068E0
3.733449667E0,-7.642781559E-1,6.026771951E-1,-4.851214972E0,4.947891228E0
3.743395667E0,-3.797534505E-1,9.503542458E-1,-4.342277414E0,4.461250836E0
3.753341667E0,-3.435084245E-1,1.208030076E0,-3.748056462E0,3.952880209E0
3.763287667E0,-4.575761267E-1,1.232501112E0,-3.323452712E0,3.574041526E0
3.773233667E0,-3.020639446E-1,1.266567721E0,-3.110344505E0,3.371895515E0
3.783179667E0,1.563515498E-1,1.431256889E0,-3.257227732E0,3.561246213E0
3.793125667E0,3.163266192E-1,1.548856383E0,-3.165049301E0,3.537874461E0
3.803071667E0,-5.072167218E-3,1.530111817E0,-2.357587411E0,2.810602480E0
3.813017667E0,-2.188685178E-1,1.102412989E0,-1.555292705E0,1.918893751E0
3.822963667E0,-2.471336659E-1,4.345666753E-1,-9.483084512E-1,1.072013135E0
3.832908667E0,-6.973605734E-1,-3.472336856E-1,1.836347312E-1,8.003778584E-1
3.842854667E0,-1.314887357E0,-1.320754454E0,1.438189348E0,2.354083620E0
3.852800667E0,-1.505122718E0,-1.942861508E0,2.652375957E0,3.615965079E0
3.862746667E0,-2.422468700E0,-1.918395880E0,3.861029347E0,4.945315457E0
3.872692667E0,-2.862792690E0,-9.182426530E-1,4.209538602E0,5.172906997E0
3.882638667E0,-2.091937148E0,1.351530250E0,4.821817510E0,5.427039630E0
3.892584667E0,-2.560871710E0,4.338985432E0,7.013859136E0,8.635917929E0
3.902530667E0,-3.708423158E0,6.626319716E0,8.951158626E0,1.173813256E1
3.912476667E0,-4.333237619E0,6.900441279E0,1.065161782E1,1.341081654E1
3.922422667E0,-4.629620993E0,5.632794746E0,1.349885750E1,1.534212896E1
3.932367667E0,-4.848697453E0,2.362224838E0,1.739018770E1,1.820737766E1
3.942313667E0,-4.709148096E0,-1.120532195E0,2.172986252E1,2.226249297E1
3.952259667E0,-3.151418564E0,-4.334774852E0,2.485966656E1,2.543078318E1
3.962205667E0,-9.388064334E-1,-7.251332690E0,2.666110716E1,2.764557502E1
3.972151667E0,9.806347829E-1,-1.002375666E1,2.667646897E1,2.851440581E1
3.982097667E0,1.492467881E0,-1.134273532E1,2.558803550E1,2.802913958E1
3.992043667E0,1.030586815E0,-1.100270803E1,2.279096844E1,2.532883605E1
4.001989667E0,2.211597931E0,-9.462912202E0,1.888460738E1,2.123832076E1
4.011935667E0,4.023078496E0,-6.916774306E0,1.600785563E1,1.789632279E1
4.021881667E0,5.217288094E0,-4.547547136E0,1.327782924E1,1.497334396E1
4.031826667E0,6.166826214E0,-2.145480540E0,9.384667102E0,1.143262039E1
4.041772667E0,7.221161642E0,3.428202072E-1,4.284361913E0,8.403478932E0
4.051718667E0,7.368428446E0,2.812083005E0,-9.572330564E-1,7.944673921E0
4.061664667E0,6.444522180E0,4.937309375E0,-5.689253122E0,9.913450009E0
4.071610667E0,4.862079098E0,6.685269005E0,-9.954185321E0,1.293902779E1
4.081556667E0,3.413417972E0,7.627744274E0,-1.392875766E1,1.624328153E1
4.091502667E0,2.751348268E0,8.399469151E0,-1.704161179E1,1.919733137E1
4.101448667E0,2.530901222E0,8.596247254E0,-1.905848136E1,2.106007216E1
4.111394667E0,2.089154604E0,7.844244450E0,-1.962803641E1,2.124044612E1
4.121340667E0,1.108770959E0,6.482432603E0,-1.895523707E1,2.006370648E1
4.131285667E0,1.912092143E-1,4.885707989E0,-1.792108448E1,1.857611295E1
4.141231667E0,-4.103859900E-1,3.116056066E0,-1.657097758E1,1.686640211E1
4.151177667E0,-1.160755776E0,1.594594473E0,-1.430853899E1,1.444383514E1
4.161123667E0,-1.308683900E0,2.644014439E-1,-1.199829239E1,1.207234782E1
4.171069667E0,-7.913099800E-1,-2.374060187E-1,-9.988897902E0,1.002300426E1
4.181015667E0,-4.306249210E-1,-3.362412125E-1,-8.706282497E0,8.723408215E0
4.190961667E0,3.197936892E-1,-2.154283816E-1,-8.589652764E0,8.598302856E0
4.200907667E0,1.037045577E0,2.108909422E-1,-9.075552877E0,9.137045394E0
4.210853667E0,4.423133589E-1,3.869085056E-1,-9.151534520E0,9.170382946E0
4.220799667E0,-3.274932297E-1,4.548072508E-1,-8.798361526E0,8.816193452E0
4.230745667E0,-6.291367961E-1,3.173564601E-1,-8.272704440E0,8.302660235E0
4.240690667E0,-1.073394866E0,2.304715133E-1,-7.241215838E0,7.323967536E0
4.250636667E0,-1.075979554E0,2.858019608E-1,-6.151615852E0,6.251543198E0
4.260582667E0,-4.706322283E-1,5.875372919E-1,-5.273561112E0,5.327019952E0
4.270528667E0,-5.286716178E-2,8.075493059E-1,-4.861278030E0,4.928179674E0
4.280474667E0,5.157456167E-2,1.014921101E0,-4.571693505E0,4.683279437E0
4.290420667E0,2.202231349E-1,1.361061065E0,-4.279802839E0,4.496409433E0
4.300366667E0,7.392048566E-1,1.852542053E0,-4.343305939E0,4.779397698E0
4.310312667E0,1.642814414E0,2.304778867E0,-4.737736303E0,5.518785202E0
4.320258667E0,2.443877111E0,2.672338644E0,-5.162057633E0,6.305614020E0
4.330204667E0,2.390887889E0,2.514636899E0,-4.788951480E0,5.913865057E0
4.340149667E0,2.002014426E0,2.379931376E0,-3.447677978E0,4.643125947E0
4.350095667E0,2.335339632E0,2.433561746E0,-3.124847354E0,4.597902234E0
4.360041667E0,3.122731247E0,2.173527879E0,-4.075343249E0,5.575311335E0
4.369987667E0,3.432361781E0,1.769017501E0,-3.924809605E0,5.505875112E0
4.379933667E0,4.046648038E0,5.502849734E-1,-2.314357191E0,4.694083841E0
4.389879667E0,4.257970212E0,-1.732152268E0,1.740855263E0,4.915408310E0
4.399825667E0,2.607828945E0,-4.281296802E0,8.664841526E0,1.001048215E1
4.409771667E0,1.546082025E-1,-6.176553057E0,1.511566876E1,1.632964033E1
4.419717667E0,-1.595814494E0,-7.257132543E0,1.717216608E1,1.871084938E1
4.429663667E0,-1.756733962E0,-7.287464975E0,1.625716571E1,1.790219810E1
4.439608667E0,-1.318118967E0,-6.278000495E0,1.542181611E1,1.670278838E1
4.449554667E0,-8.314056534E-1,-4.532606330E0,1.527888560E1,1.595869984E1
4.459500667E0,-9.703327198E-1,-3.331742309E0,1.584331849E1,1.621890235E1
4.469446667E0,-1.179764124E0,-3.515531115E0,1.660532647E1,1.701433718E1
4.479392667E0,-1.393753140E0,-4.961059595E0,1.799568442E1,1.871895611E1
4.489338667E0,-1.099581256E0,-6.789175197E0,2.059311000E1,2.171124497E1
4.499284667E0,-5.488573026E-1,-8.599856740E0,2.349840201E1,2.502865712E1
4.509230667E0,-5.748229600E-2,-1.007519111E1,2.454946943E1,2.653656401E1
4.519177042E0,2.403674872E-1,-1.081250278E1,2.339059806E1,2.576990630E1
4.529123042E0,1.201865210E-1,-1.079082716E1,2.110004255E1,2.369953989E1
4.539069042E0,1.765435204E-1,-1.026778202E1,1.777931990E1,2.053199288E1
4.549014042E0,4.574669299E-1,-9.250241953E0,1.363642611E1,1.648418543E1
4.558960042E0,1.432952728E0,-7.817884033E0,9.310464181E0,1.224162602E1
4.568906042E0,2.735961028E0,-5.957581263E0,5.321659724E0,8.443833221E0
4.578852042E0,3.983622947E0,-3.933728364E0,1.505778483E0,5.797485616E0
4.588798042E0,4.790177642E0,-2.018122921E0,-2.451164496E0,5.746897367E0
4.598744042E0,4.864280867E0,-1.856374025E-1,-6.129700488E0,7.827446434E0
4.608690042E0,4.478748504E0,1.795738107E0,-9.040787086E0,1.024791172E1
4.618636042E0,4.358699904E0,3.877225549E0,-1.105351449E1,1.249845292E1
4.628582042E0,4.588456303E0,5.638468884E0,-1.250607045E1,1.446540911E1
4.638528042E0,4.129468585E0,7.317500367E0,-1.328456289E1,1.571871285E1
4.648473042E0,3.287507538E0,9.521855060E0,-1.455514180E1,1.770100513E1
4.658419042E0,2.637147469E0,1.080887283E1,-1.747270127E1,2.071428416E1
4.668365042E0,1.252305485E0,1.060144520E1,-2.016591944E1,2.281716933E1
4.678311042E0,-9.775071803E-1,9.720132973E0,-2.013799314E1,2.238247692E1
4.688257042E0,-3.360809695E0,8.108844992E0,-1.706717581E1,1.919210513E1
4.698203042E0,-4.837743571E0,5.797641789E0,-1.249886668E1,1.460267377E1
4.708149042E0,-6.112189246E0,3.631584604E0,-7.564881443E0,1.038145921E1
4.718095042E0,-7.042194743E0,2.213356481E0,-3.788807462E0,8.297380050E0
4.728041042E0,-7.200058456E0,1.597192976E0,-2.245270584E0,7.709287073E0
4.737987042E0,-6.550359707E0,1.581797549E0,-2.694777042E0,7.257487105E0
4.747933042E0,-5.598678582E0,1.837685155E0,-3.758165129E0,6.988998049E0
4.757878042E0,-4.513464300E0,2.278743409E0,-4.239388053E0,6.598215106E0
4.767824042E0,-3.597950251E0,2.509500997E0,-4.214867755E0,6.083416100E0
4.777770042E0,-3.670258089E0,2.206351371E0,-3.719400428E0,5.672100171E0
4.787716042E0,-4.081716422E0,1.559793161E0,-3.328460852E0,5.492905906E0
4.797662042E0,-4.314393797E0,8.109235878E-1,-3.076265178E0,5.360503554E0
4.807608042E0,-4.260062639E0,1.576097976E-1,-2.599539347E0,4.993053109E0
4.817554042E0,-3.888004307E0,-5.705983467E-1,-2.719951644E0,4.779152321E0
4.827500042E0,-3.277957573E0,-1.083147437E0,-3.545149308E0,4.948363148E0
4.837446042E0,-2.242525755E0,-1.253377865E0,-4.702363572E0,5.358367382E0
4.847392042E0,-1.546946243E0,-1.672923481E0,-5.811864556E0,6.242554387E0
4.857337042E0,-1.058316943E0,-2.058013357E0,-6.451493230E0,6.853992897E0
4.867283042E0,-8.168358538E-1,-2.430589606E0,-6.804337027E0,7.271450270E0
4.877229042E0,-7.790916382E-1,-2.778798607E0,-6.486225107E0,7.099283176E0
4.887175042E0,-2.339976036E-1,-2.844861619E0,-5.715047529E0,6.388251777E0
4.897121042E0,4.296452931E-1,-3.095097306E0,-4.457720162E0,5.443848956E0
4.907067042E0,2.992705835E-1,-3.416421102E0,-1.647768175E0,3.804817471E0
4.917013042E0,4.912283146E-1,-3.177800909E0,1.543041034E0,3.566608965E0
4.926959042E0,1.622217012E0,-2.780166855E0,3.587619975E0,4.819951541E0
4.936905042E0,2.548495786E0,-2.325906904E0,5.135832286E0,6.187200253E0
4.946851042E0,2.211861348E0,-1.997940086E0,7.740294405E0,8.294350649E0
4.956796042E0,9.861574781E-1,-1.173439556E0,1.126723841E1,1.137102143E1
4.966742042E0,-5.291649766E-2,-7.457503760E-1,1.426955443E1,1.428912620E1
4.976688042E0,-1.146545726E0,-1.367592113E-1,1.642968897E1,1.647021402E1
4.986634042E0,-1.176552468E0,2.163895176E0,1.553796052E1,1.573197175E1
4.996580042E0,-1.088173046E0,4.958015535E0,1.128190556E1,1.237123404E1
5.006526042E0,-2.397335467E0,7.081935929E0,7.338757335E0,1.047656399E1
5.016472042E0,-3.037706592E0,7.586086371E0,6.107620232E0,1.020193083E1
5.026418042E0,-1.685978267E0,4.763375174E0,7.708797793E0,9.217257140E0
5.036364042E0,-1.033029124E0,-3.102162058E-1,1.215331845E1,1.220108735E1
5.046310042E0,-2.016655854E0,-4.641487625E0,1.875943954E1,1.943005096E1
5.056256042E0,-1.975251574E0,-7.063224839E0,2.288074893E1,2.402747251E1
5.066201042E0,-8.440820514E-1,-8.282082204E0,2.447228150E1,2.584952460E1
5.076147042E0,4.479340681E-1,-8.354994645E0,2.410146746E1,2.551249329E1
5.086093042E0,2.218649673E0,-7.219091728E0,2.016112005E1,2.152924646E1
5.096039042E0,3.840175252E0,-5.804878888E0,1.493231996E1,1.647476082E1
5.105985042E0,5.049659531E0,-4.056082228E0,9.808985508E0,1.175444857E1
5.115931042E0,5.704381038E0,-2.294805856E0,4.780110490E0,7.788167515E0
5.125877042E0,5.820583924E0,-7.877230056E-1,-3.673489845E-1,5.885121072E0
5.135823042E0,5.527059546E0,8.230682547E-1,-4.776424990E0,7.351194750E0
5.145769042E0,5.411848932E0,2.596967157E0,-8.298665493E0,1.024207968E1
5.155715042E0,5.298160349E0,4.080532653E0,-1.120259393E1,1.304681419E1
5.165660042E0,4.534471300E0,5.076745003E0,-1.370353928E1,1.530103783E1
5.175606042E0,3.486316671E0,5.096248391E0,-1.643994733E1,1.756126475E1
5.185552042E0,2.023376205E0,4.409348778E0,-1.860798964E1,1.923002045E1
5.195498042E0,-1.747619469E-1,3.266134503E0,-1.888874253E1,1.916984013E1
5.205444042E0,-2.057282893E0,1.649954595E0,-1.791519750E1,1.810825957E1
5.215390042E0,-3.321758189E0,6.140175775E-2,-1.620323567E1,1.654033536E1
5.225336042E0,-4.081422014E0,-8.099764851E-1,-1.457378039E1,1.515615856E1
5.235282042E0,-4.497799025E0,-7.790942694E-1,-1.392148372E1,1.465076424E1
5.245228042E0,-4.321568623E0,-4.664091499E-1,-1.386382082E1,1.452924707E1
5.255174042E0,-3.698086742E0,-6.257163942E-2,-1.355018786E1,1.404590161E1
5.265120042E0,-2.918189504E0,3.135624942E-1,-1.243423623E1,1.277592979E1
5.275065042E0,-1.655808535E0,6.192546362E-1,-1.112371382E1,1.126331156E1
5.285011042E0,-7.890937391E-1,8.008258849E-1,-1.012115958E1,1.018341113E1
5.294957042E0,-7.756402460E-1,1.095684160E0,-9.402122794E0,9.497476223E0
5.304903042E0,-8.682138759E-1,1.511921422E0,-8.995375856E0,9.162777336E0
5.314849042E0,-5.075299864E-1,1.726381797E0,-9.082059073E0,9.258605608E0
5.324795042E0,1.298203935E-1,2.212821315E0,-9.059257856E0,9.326499043E0
5.334741042E0,5.941772439E-2,2.383932772E0,-8.743807588E0,9.063158228E0
5.344687042E0,2.070396736E-2,2.668738806E0,-8.707275354E0,9.107098306E0
5.354633042E0,3.396420993E-1,2.817127983E0,-8.637570112E0,9.091709645E0
5.364579042E0,2.560042575E-1,2.755242222E0,-8.406232626E0,8.849951686E0
5.374524042E0,1.914843989E-1,2.874240954E0,-8.284587736E0,8.771107187E0
5.384470042E0,1.145405519E0,3.009552541E0,-8.593442929E0,9.176961462E0
5.394416042E0,2.098764795E0,2.880447773E0,-8.322215154E0,9.053234676E0
5.404362042E0,2.617699045E0,2.853371657E0,-7.276186865E0,8.242388816E0
5.414308042E0,2.646449220E0,2.809797621E0,-6.744341671E0,7.770765774E0
5.424254042E0,2.821727110E0,2.652301698E0,-6.733572269E0,7.767743796E0
5.434200042E0,3.686175672E0,2.388201532E0,-6.022362565E0,7.453874731E0
5.444146042E0,3.973671278E0,1.558655585E0,-3.696482851E0,5.646543733E0
5.454092042E0,3.827660164E0,3.564386648E-1,-3.413516790E-1,3.859346035E0
5.464038042E0,3.828269151E0,-4.958012027E-1,2.572456214E0,4.638857025E0
5.473984042E0,3.530416079E0,-1.180288254E0,5.500538329E0,6.641749767E0
5.483929042E0,1.896235664E0,-1.533734606E0,8.494543709E0,8.837721672E0
5.493875042E0,2.247797970E-1,-1.770178904E0,1.110948287E1,1.125187402E1
5.503821042E0,-1.287359982E0,-2.284067152E0,1.544013426E1,1.566116230E1
5.513767167E0,-2.321736962E0,-2.745376215E0,2.118959850E1,2.149247863E1
5.523713167E0,-4.205885262E0,-4.381647302E0,2.586725408E1,2.657071955E1
5.533659167E0,-7.305061585E0,-5.986916159E0,2.830942088E1,2.984343145E1
5.543605167E0,-8.816330019E0,-7.606266282E0,2.808462818E1,3.040278444E1
5.553551167E0,-9.298206663E0,-8.802145844E0,2.809428545E1,3.087431446E1
5.563497167E0,-8.913589681E0,-9.282972912E0,2.833874584E1,3.112410935E1
5.573443167E0,-7.007709035E0,-9.522792953E0,2.709159087E1,2.955919261E1
5.583388167E0,-4.221656664E0,-9.635662342E0,2.552619301E1,2.760896418E1
5.593334167E0,-1.210563090E0,-9.656334003E0,2.537778132E1,2.717980931E1
5.603280167E0,2.735036291E0,-8.610571178E0,2.668678112E1,2.817457446E1
5.613226167E0,7.012939369E0,-6.367082241E0,2.634221405E1,2.799345095E1
5.623172167E0,9.558044647E0,-3.783795229E0,2.212291235E1,2.439460135E1
5.633118167E0,9.542335517E0,-1.276891565E0,1.565195901E1,1.837581127E1
5.643064167E0,8.634649428E0,2.632925195E-1,7.280465857E0,1.129741903E1
5.653010167E0,7.513862733E0,1.680781847E0,1.923862588E-1,7.701959053E0
5.662956167E0,6.171975857E0,2.704038447E0,-5.091549568E0,8.445648993E0
5.672902167E0,4.975708625E0,3.510771189E0,-9.129573548E0,1.097416529E1
5.682848167E0,4.203628529E0,3.953530544E0,-1.252532767E1,1.379074797E1
5.692793167E0,3.395788909E0,4.179765750E0,-1.440725285E1,1.538085690E1
5.702739167E0,2.688414102E0,5.160882928E0,-1.557423782E1,1.662585837E1
5.712685167E0,2.290804314E0,5.637952575E0,-1.785039632E1,1.885924024E1
5.722631167E0,1.640565136E0,5.295191717E0,-2.035564522E1,2.109698560E1
5.732577167E0,1.080991422E0,4.639636397E0,-2.156826887E1,2.208811876E1
5.742523167E0,5.570189193E-2,3.370039818E0,-2.193188616E1,2.218936460E1
5.752469167E0,-2.146728628E0,1.405086652E0,-2.109237568E1,2.124784752E1
5.762415167E0,-4.483170753E0,-5.043542174E-1,-1.899805038E1,1.952636964E1
5.772361167E0,-5.796767045E0,-2.188837206E0,-1.636264012E1,1.749655704E1
5.782307167E0,-6.307677453E0,-3.217221667E0,-1.324281143E1,1.501696923E1
5.792252167E0,-6.113409560E0,-3.621690531E0,-1.067204799E1,1.282119444E1
5.802198167E0,-4.942670102E0,-3.502863999E0,-9.050403417E0,1.089081475E1
5.812144167E0,-3.200560026E0,-2.939338591E0,-8.072361875E0,9.167678117E0
5.822090167E0,-1.917193547E0,-2.127479156E0,-6.998421902E0,7.561726507E0
5.832036167E0,-1.336216246E0,-1.215148038E0,-5.946748127E0,6.214971592E0
5.841982167E0,-1.079621200E0,-4.414080638E-1,-5.478957426E0,5.601731651E0
5.851928167E0,-6.386763091E-1,4.594247970E-1,-5.420112802E0,5.476915314E0
5.861874167E0,1.878537714E-2,1.256071385E0,-5.623935045E0,5.762526668E0
5.871820167E0,7.217224858E-1,2.028579643E0,-6.078807492E0,6.448869610E0
5.881766167E0,1.313319573E0,2.640182759E0,-6.492955252E0,7.131187924E0
5.891711167E0,1.925069892E0,3.119261509E0,-6.903091237E0,7.815903983E0
5.901657167E0,2.333554624E0,3.388077893E0,-7.268517657E0,8.351999636E0
5.911603167E0,2.746399770E0,3.552921135E0,-7.716348887E0,8.927933716E0
5.921549167E0,2.870068966E0,3.474435421E0,-8.365630145E0,9.502250528E0
5.931495167E0,2.397092369E0,3.227178598E0,-9.143400459E0,9.988118215E0
5.941441167E0,1.953384449E0,2.933406298E0,-9.936267114E0,1.054276944E1
5.951387167E0,1.674984040E0,2.450817464E0,-1.025220855E1,1.067332459E1
5.961333167E0,1.497329257E0,1.895874891E0,-9.851067334E0,1.014297117E1
5.971279167E0,1.427288091E0,1.077199795E0,-9.139329042E0,9.312617572E0
5.981225167E0,1.298763514E0,8.394803658E-2,-8.105487521E0,8.209309465E0
5.991171167E0,1.271157201E0,-2.669911757E-2,-7.644925148E0,7.749931225E0
6.001116167E0,1.141566822E0,2.633985002E-1,-9.322666735E0,9.395992158E0
6.011062167E0,5.860838203E-1,7.136384178E-1,-1.093296712E1,1.097189793E1
6.021008167E0,-2.100524880E-1,1.667613040E0,-1.078411338E1,1.091430972E1
6.030954167E0,-2.200474334E0,3.351829542E0,-1.011222620E1,1.087814173E1
6.040900167E0,-4.339136582E0,4.447372345E0,-8.528069889E0,1.055154980E1
6.050846167E0,-4.271332562E0,4.049533054E0,-3.229735293E0,6.713731442E0
6.060792167E0,-2.451887504E0,2.090627810E0,6.641713681E0,7.382061879E0
6.070738167E0,-3.715593817E-1,-1.542552646E0,1.906389471E1,1.912980937E1
6.080684167E0,4.172152821E-2,-5.627984827E0,3.014619738E1,3.066706980E1
6.090630167E0,-1.761363203E0,-9.500536696E0,3.592086546E1,3.719773075E1
6.100576167E0,-4.700558537E0,-1.236857200E1,3.916928611E1,4.134380000E1
6.110521167E0,-5.713596250E0,-1.556821167E1,4.122325861E1,4.443389975E1
6.120467167E0,-4.688465910E0,-1.696090384E1,4.330003056E1,4.673913369E1
6.130413167E0,-2.822915264E0,-1.638635409E1,4.354771394E1,4.661421286E1
6.140359167E0,2.410776681E-1,-1.406938670E1,4.166598171E1,4.397794666E1
6.150305167E0,4.046111264E0,-1.098490443E1,3.930759381E1,4.101373030E1
6.160251167E0,6.059366670E0,-8.266102349E0,3.554808207E1,3.699608778E1
6.170197167E0,5.652095236E0,-6.233587968E0,2.990217202E1,3.106354280E1
6.180143167E0,4.778018649E0,-4.310632868E0,2.303802265E1,2.391989770E1
6.190089167E0,4.214577733E0,-2.021927704E0,1.520631346E1,1.590857713E1
6.200035167E0,4.212407831E0,7.886139750E-3,6.377927071E0,7.643454432E0
6.209981167E0,4.391299593E0,1.678157470E0,-2.353341748E0,5.257180042E0
6.219926167E0,3.589640772E0,2.331147763E0,-1.085691356E1,1.167014750E1
6.229872167E0,2.271615799E0,3.387908909E0,-1.703872794E1,1.752017166E1
6.239818167E0,1.605734881E0,3.611759912E0,-2.116447886E1,2.153040547E1
6.249764167E0,1.319546419E0,3.920663637E0,-2.369728920E1,2.405565051E1
6.259710167E0,1.056705158E0,4.460183887E0,-2.557182702E1,2.597938035E1
6.269656167E0,8.841476847E-1,4.105074879E0,-2.790632085E1,2.822049079E1
6.279602167E0,7.850271468E-1,2.697381099E0,-2.882773445E1,2.896429536E1
6.289548167E0,4.706942088E-1,5.407053338E-1,-2.636383940E1,2.637358419E1
6.299494167E0,3.080927163E-2,-1.900889463E0,-2.135446893E1,2.143892892E1
6.309440167E0,-1.440697475E-1,-4.294134949E0,-1.630433870E1,1.686095524E1
6.319385167E0,-1.053129147E0,-5.718269929E0,-1.143115457E1,1.282493613E1
6.329331167E0,-1.918800361E0,-5.956746281E0,-8.176963885E0,1.029695875E1
6.339277167E0,-2.018356517E0,-5.470267879E0,-7.556245691E0,9.544340869E0
6.349223167E0,-1.377218822E0,-4.064441408E0,-8.090098819E0,9.157844426E0
6.359169167E0,-3.705941161E-1,-2.398242809E0,-8.383197520E0,8.727365537E0
6.369115167E0,-1.879417171E-1,-1.028277896E0,-8.108202383E0,8.175305707E0
6.379061167E0,-1.818356891E-1,2.290675968E-1,-7.447848253E0,7.453588383E0
6.389007167E0,7.895901860E-2,1.236095542E0,-7.084939059E0,7.192393773E0
6.398953167E0,4.426062313E-1,2.071878421E0,-6.999798337E0,7.313395738E0
6.408899167E0,7.074404423E-1,2.675819784E0,-7.191086488E0,7.705336357E0
6.418845167E0,5.215734269E-1,3.076005562E0,-7.442750065E0,8.070215461E0
6.428790167E0,4.139556421E-1,3.420291374E0,-7.722027703E0,8.455735580E0
6.438736167E0,4.205482316E-1,3.729263511E0,-8.170603868E0,8.991275478E0
6.448682167E0,1.541157390E-1,3.819548029E0,-8.357844577E0,9.190553019E0
6.458628167E0,1.421224236E-1,3.802886388E0,-8.153390835E0,8.997773379E0
6.468574167E0,1.238458730E-1,3.649320964E0,-7.966911433E0,8.763821032E0
6.478520167E0,9.274268746E-2,3.621287365E0,-8.093337007E0,8.867041631E0
6.488466167E0,-9.404970462E-2,3.498532674E0,-8.532970440E0,9.222806555E0
6.498412167E0,-3.077503253E-1,3.220798409E0,-8.967839563E0,9.533645634E0
6.508358167E0,-2.417266908E-1,3.164147075E0,-9.209607312E0,9.741002276E0
6.518304333E0,-4.493826427E-1,3.067023654E0,-9.432598482E0,9.928871687E0
6.528250333E0,-3.416906347E-1,2.868563308E0,-9.721534551E0,1.014167846E1
6.538195333E0,3.000907652E-1,2.848903507E0,-9.635564108E0,1.005238287E1
6.548141333E0,2.925030892E-1,2.637823407E0,-9.315346021E0,9.686038503E0
6.558087333E0,-2.903534883E-1,2.616424937E0,-9.013651913E0,9.390202628E0
6.568033333E0,-8.418815980E-1,2.664184994E0,-8.590206496E0,9.033177400E0
6.577979333E0,-1.349267231E0,3.692632459E0,-7.240855064E0,8.239298429E0
6.587925333E0,-1.672046984E0,4.216804937E0,-6.331031232E0,7.788397875E0
6.597871333E0,-1.418158541E0,3.544521025E0,-3.470309041E0,5.159248762E0
6.607817333E0,4.047733574E-1,1.338093348E0,4.354983414E0,4.573862243E0
6.617763333E0,2.259384447E0,-3.363051518E0,1.698395122E1,1.746051353E1
6.627709333E0,1.977471323E0,-9.481569498E0,3.196340208E1,3.339864706E1
6.637655333E0,1.884908438E-2,-1.615218363E1,4.375725008E1,4.664322379E1
6.647600333E0,-3.245676265E0,-2.171794589E1,5.075281211E1,5.529965213E1
6.657546333E0,-5.107000836E0,-2.411974118E1,5.343689927E1,5.885019605E1
6.667492333E0,-4.996111314E0,-2.368987961E1,5.058233069E1,5.607801443E1
6.677438333E0,-4.383051511E0,-2.107103334E1,4.469338463E1,4.960542527E1
6.687384333E0,-3.891241033E0,-1.722913550E1,3.877105564E1,4.260492486E1
6.697330333E0,-2.699020951E0,-1.291597313E1,3.275763639E1,3.531529156E1
6.707276333E0,1.090016198E-1,-7.566460776E0,2.686169005E1,2.790723208E1
6.717222333E0,3.409587753E0,-2.854719440E0,2.071059226E1,2.118261890E1
6.727168333E0,5.441900112E0,8.758010767E-1,1.446780194E1,1.548220260E1
6.737114333E0,5.136868998E0,3.219391861E0,6.880169567E0,9.169985841E0
6.747060333E0,4.302088624E0,4.786810522E0,-8.853064567E-1,6.496559784E0
6.757005333E0,4.270458988E0,6.045316980E0,-7.606569752E0,1.061332091E1
6.766951333E0,4.361343723E0,6.741030977E0,-1.306046016E1,1.533096336E1
6.776897333E0,4.175849577E0,6.852651985E0,-1.688343174E1,1.869349690E1
6.786843333E0,3.998799980E0,6.762676785E0,-1.996584643E1,2.145598337E1
6.796789333E0,3.593559869E0,6.467046239E0,-2.280625306E1,2.397627031E1
6.806735333E0,1.900760824E0,5.639809066E0,-2.592717401E1,2.660147910E1
6.816681333E0,-1.729367385E-1,3.156474651E0,-2.763758516E1,2.781778842E1
6.826627333E0,-1.311380782E0,1.922445370E-1,-2.567039704E1,2.570459029E1
6.836573333E0,-2.912174765E0,-3.112180823E0,-2.161331582E1,2.202956767E1
6.846519333E0,-4.291674733E0,-5.628257307E0,-1.692893828E1,1.834897010E1
6.856465333E0,-4.155907356E0,-6.641986746E0,-1.355037264E1,1.565248071E1
6.866410333E0,-3.363439481E0,-6.706054103E0,-1.170805298E1,1.390548062E1
6.876356333E0,-2.596216667E0,-6.343674082E0,-9.602644284E0,1.179802183E1
6.886302333E0,-1.828787008E0,-5.433777160E0,-8.217083970E0,1.001952420E1
6.896248333E0,-7.116672483E-1,-3.584773550E0,-8.252635041E0,9.025688716E0
6.906194333E0,5.018515360E-2,-2.056105849E0,-8.356654084E0,8.606030287E0
6.916140333E0,5.946501374E-1,-6.303548442E-1,-7.905625597E0,7.952978819E0
6.926086333E0,1.580103611E0,7.541227117E-1,-7.976927714E0,8.166811142E0
6.936032333E0,2.466659325E0,2.071954873E0,-8.229757226E0,8.837777391E0
6.945978333E0,2.909172805E0,3.221011832E0,-8.471396336E0,9.518548183E0
6.955924333E0,2.489762551E0,3.660533584E0,-8.932368599E0,9.969234297E0
6.965869333E0,1.755293208E0,3.732632677E0,-9.143312166E0,1.003064097E1
6.975815333E0,2.004815827E0,3.762522474E0,-9.414054038E0,1.033442187E1
6.985761333E0,2.438481593E0,3.733834864E0,-9.672528452E0,1.065108079E1
6.995707333E0,2.455335900E0,3.372925419E0,-9.758838032E0,1.061320969E1
7.005653333E0,1.889388136E0,2.750226772E0,-1.003574930E1,1.057590653E1
7.015599333E0,1.326666427E0,2.253826084E0,-1.020532791E1,1.053510767E1
7.025545333E0,1.108339946E0,1.788209524E0,-1.029094986E1,1.050379740E1
7.035491333E0,4.705892513E-1,1.250852160E0,-9.839584572E0,9.929930006E0
7.045437333E0,-3.746586619E-1,6.933270179E-1,-8.853414230E0,8.888420276E0
7.055383333E0,-2.896700584E-1,3.359801343E-1,-7.938682246E0,7.951067047E0
7.065329333E0,-5.485913639E-1,9.524266452E-2,-7.092519974E0,7.114342080E0
7.075275333E0,-8.785717068E-1,-1.914270231E-1,-6.475263332E0,6.537397629E0
7.085220333E0,-6.361671227E-1,2.026019293E-1,-5.961273195E0,5.998544345E0
7.095166333E0,-1.135893086E-1,4.627955706E-1,-5.008440168E0,5.031059053E0
7.105112333E0,-4.085441536E-1,5.456957862E-1,-2.285950248E0,2.385426745E0
7.115058333E0,-4.574916344E-1,1.611175861E0,-4.128204417E-1,1.724994773E0
7.125004333E0,-1.153157612E0,3.075905575E0,-1.467216096E0,3.597734100E0
7.134950333E0,-2.242390538E0,3.484917725E0,-1.533826407E0,4.418777016E0
7.144896333E0,-3.359803390E0,2.536972970E0,1.869191122E0,4.606341946E0
7.154842333E0,-4.137333675E0,2.304732674E-1,6.988705584E0,8.124817143E0
7.164788333E0,-4.057435566E0,-1.949591799E0,1.400071349E1,1.470658593E1
7.174734333E0,-5.044716879E0,-7.422696455E0,2.097625232E1,2.281553752E1
7.184679333E0,-7.577065871E0,-1.289596629E1,2.910271263E1,3.272133488E1
7.194625333E0,-8.511802350E0,-1.785127691E1,3.553969249E1,4.067171755E1
7.204571333E0,-8.290482899E0,-2.067507393E1,3.999460891E1,4.577946625E1
7.214517333E0,-8.319931816E0,-2.110582661E1,4.182388927E1,4.758061471E1
7.224463333E0,-7.421738681E0,-2.060786603E1,4.182434302E1,4.721273151E1
7.234409333E0,-4.128033094E0,-1.845497970E1,4.123412039E1,4.536385806E1
7.244355333E0,9.788979406E-1,-1.458236293E1,3.903557199E1,4.168188371E1
7.254301333E0,4.741101376E0,-1.025001701E1,3.562138510E1,3.736875657E1
7.264247333E0,7.424212053E0,-6.334238430E0,3.051699973E1,3.203948772E1
7.274193333E0,8.222688527E0,-3.383060982E0,2.324197354E1,2.488467484E1
7.284139333E0,7.615927051E0,-1.092190010E0,1.439124669E1,1.631879913E1
7.294085333E0,7.297150887E0,1.114529005E0,4.430356362E0,8.609218517E0
7.304030333E0,6.470398448E0,2.923941702E0,-5.000420128E0,8.684451198E0
7.313976333E0,4.975388197E0,4.055468563E0,-1.310365472E1,1.459133578E1
7.323922333E0,4.654319925E0,5.045841299E0,-2.026598401E1,2.139703990E1
7.333868333E0,4.201776716E0,5.588385143E0,-2.633693519E1,2.724920423E1
7.343814333E0,2.623609411E0,5.503291783E0,-2.988807321E1,3.050354844E1
7.353760333E0,1.630156215E0,5.400224082E0,-3.163183688E1,3.213087198E1
7.363706333E0,2.660260197E-1,4.375604789E0,-3.299189223E1,3.328185151E1
7.373652333E0,-1.832798929E0,2.279141312E0,-3.323709638E1,3.336552432E1
7.383598333E0,-3.467431919E0,-5.381241535E-1,-3.030740278E1,3.050985619E1
7.393544333E0,-4.460860409E0,-3.713317569E0,-2.443915820E1,2.511892626E1
7.403490333E0,-5.109129807E0,-6.118686672E0,-1.821135663E1,1.987951318E1
7.413435333E0,-4.748798358E0,-7.097259727E0,-1.391616158E1,1.632733091E1
7.423381333E0,-4.162481672E0,-7.347943311E0,-1.105896176E1,1.391471019E1
7.433327333E0,-4.136522959E0,-6.770792720E0,-7.864738356E0,1.117177540E1
7.443273333E0,-2.444057059E0,-5.428902336E0,-5.323433769E0,7.986572643E0
7.453219333E0,-3.924685498E-1,-3.573152794E0,-3.793434364E0,5.226049820E0
7.463165333E0,6.327497906E-1,-1.862423701E0,-3.255072448E0,3.803221132E0
7.473111333E0,1.288990770E0,-2.216049416E-1,-2.820788632E0,3.109253039E0
7.483057333E0,2.318609725E0,1.236554548E0,-2.824927291E0,3.858138464E0
7.493003333E0,3.379410858E0,2.630018544E0,-3.205685111E0,5.349189875E0
7.502949333E0,3.727833282E0,3.748835604E0,-3.988832524E0,6.622785990E0
7.512895333E0,3.333561378E0,4.532323617E0,-5.200836368E0,7.661807082E0
7.522840083E0,3.561919415E0,5.289712876E0,-6.270442384E0,8.943532855E0
7.532786083E0,3.750251507E0,5.441391989E0,-6.812694452E0,9.491361275E0
7.542732083E0,3.001712009E0,5.097199148E0,-6.699350270E0,8.937170032E0
7.552678083E0,2.420893022E0,4.415228446E0,-6.677132605E0,8.362957914E0
7.562624083E0,9.813445618E-1,3.342728350E0,-7.381263669E0,8.162102874E0
7.572570083E0,-7.321194199E-1,2.422806377E0,-8.960635793E0,9.311228888E0
7.582516083E0,-1.299263305E0,1.807067087E0,-1.067206202E1,1.090167347E1
7.592462083E0,-2.146043627E0,9.291865942E-1,-1.131726485E1,1.155635646E1
7.602408083E0,-3.126306527E0,5.688492984E-2,-1.092054530E1,1.135937225E1
7.612354083E0,-2.402812116E0,-2.570345369E-1,-1.000266108E1,1.029042280E1
7.622300083E0,-1.001484127E0,-1.635396051E-1,-9.291748413E0,9.346994395E0
7.632245083E0,-6.127507051E-1,-1.729714563E-1,-8.899862173E0,8.922607760E0
7.642191083E0,2.558331351E-2,1.852374530E-1,-8.133693320E0,8.135842577E0
7.652137083E0,1.797108840E0,1.306070926E0,-7.892060056E0,8.198782433E0
7.662083083E0,3.409363805E0,2.867501161E0,-8.769983819E0,9.836612254E0
7.672029083E0,3.148901630E0,4.152316288E0,-8.576719308E0,1.003580720E1
7.681975083E0,2.880284636E0,4.910125669E0,-6.401877851E0,8.566762148E0
7.691921083E0,3.096236343E0,3.864542354E0,-2.269664583E0,5.447269446E0
7.701867083E0,2.625554779E0,1.286145076E0,5.297739349E0,6.050929620E0
7.711813083E0,2.469317762E0,-1.632384735E0,1.422499163E1,1.452971428E1
7.721759083E0,1.641499667E0,-5.560185192E0,2.272827693E1,2.345601741E1
7.731705083E0,-1.483331168E0,-1.021240772E1,3.049119714E1,3.219016380E1
7.741650083E0,-4.160731016E0,-1.579440653E1,3.643228867E1,3.992601430E1
7.751596083E0,-4.735970736E0,-2.162205623E1,4.224254524E1,4.769041164E1
7.761542083E0,-4.039018006E0,-2.578737878E1,4.851979320E1,5.509512594E1
7.771488083E0,-2.828905152E0,-2.718964634E1,5.246958269E1,5.916364323E1
7.781434083E0,-1.070085123E0,-2.530928937E1,5.160215527E1,5.748467308E1
7.791380083E0,2.125595037E0,-2.041557684E1,4.619300833E1,5.054807564E1
7.801326083E0,4.392443016E0,-1.444302729E1,3.909910081E1,4.191222110E1
7.811272083E0,6.021894788E0,-8.922766886E0,3.138379332E1,3.317862970E1
7.821218083E0,7.893659270E0,-4.234315009E0,2.160571911E1,2.338902261E1
7.831164083E0,8.347974477E0,-4.737691864E-1,1.030842602E1,1.327316021E1
7.841110083E0,7.559601992E0,1.934844244E0,3.098386949E-1,7.809430488E0
7.851055083E0,6.658671191E0,3.299720910E0,-7.036355714E0,1.023407846E1
7.861001083E0,5.640385602E0,3.620572251E0,-1.233371792E1,1.403720381E1
7.870947083E0,4.448021678E0,3.234275949E0,-1.616242444E1,1.707247497E1
7.880893083E0,3.229333882E0,2.261743653E0,-1.870756422E1,1.911849996E1
7.890839083E0,2.595487519E0,1.673674264E0,-1.998379739E1,2.022102616E1
7.900785083E0,2.358718555E0,1.771495697E0,-2.148665577E1,2.168820247E1
7.910731083E0,1.824270326E0,2.302016935E0,-2.411332327E1,2.429155416E1
7.920677083E0,1.652844143E-1,2.343167300E0,-2.722974888E1,2.733087954E1
7.930623083E0,-2.900263402E0,1.199872845E0,-2.806437811E1,2.823934385E1
7.940569083E0,-5.657671725E0,-3.165246937E-1,-2.577909210E1,2.639452646E1
7.950515083E0,-6.264861801E0,-1.987263948E0,-2.151230166E1,2.249392882E1
7.960460083E0,-6.149543599E0,-3.260992169E0,-1.676715986E1,1.815457535E1
7.970406083E0,-6.599188051E0,-3.601172943E0,-1.278265895E1,1.482950098E1
7.980352083E0,-5.929942060E0,-3.084370004E0,-1.097829357E1,1.285303391E1
7.990298083E0,-4.796420714E0,-2.101161423E0,-1.079004948E1,1.199356906E1
8.000244083E0,-3.814080883E0,-9.495452835E-1,-1.093940023E1,1.162408390E1
8.010190083E0,-2.768556332E0,5.063761845E-2,-1.052385148E1,1.088204568E1
8.020136083E0,-1.545587789E0,7.061549319E-1,-9.062989549E0,9.220915137E0
8.030082083E0,-6.383616558E-1,8.524500749E-1,-7.295587927E0,7.372908512E0
8.040028083E0,-5.139091159E-1,8.034759893E-1,-5.761658024E0,5.840066731E0
8.049974083E0,-6.063227879E-1,7.230592324E-1,-4.905394102E0,4.995331148E0
8.059920083E0,-5.427343176E-1,8.420317984E-1,-4.660239061E0,4.766697620E0
8.069865083E0,-2.000806282E-1,1.235599990E0,-4.930986781E0,5.087373608E0
8.079811083E0,-2.424845265E-1,1.610419962E0,-5.570100315E0,5.803298090E0
8.089757083E0,1.502208721E-1,2.248464918E0,-6.619985427E0,6.993022798E0
8.099703083E0,1.088474031E0,3.069066086E0,-8.230972862E0,8.851714896E0
8.109649083E0,1.659745904E0,3.685944414E0,-1.009041843E1,1.087002699E1
8.119595083E0,1.839759308E0,4.203145257E0,-1.143118381E1,1.231759342E1
8.129541083E0,1.740768140E0,4.434896433E0,-1.217061218E1,1.306990363E1
8.139487083E0,1.274508971E0,4.144766071E0,-1.237288140E1,1.311074571E1
8.149433083E0,9.972020645E-1,3.623537666E0,-1.202623039E1,1.259978788E1
8.159379083E0,1.035195591E0,3.156396883E0,-1.137008157E1,1.184538839E1
8.169325083E0,9.763593719E-1,2.521314712E0,-1.072517345E1,1.106072561E1
8.179270083E0,9.615057631E-1,1.706255242E0,-9.887280310E0,1.007939047E1
8.189216083E0,1.180789433E0,1.009231468E0,-8.712968788E0,8.850346713E0
8.199162083E0,1.226898310E0,4.323469260E-1,-6.850703108E0,6.973115258E0
8.209108083E0,8.389099699E-1,-1.199179146E-1,-4.789456680E0,4.863850895E0
8.219054083E0,1.387342911E-1,-4.088259163E-1,-2.284201931E0,2.324642831E0
8.229000083E0,5.836672392E-2,8.816694885E-2,1.641003531E-1,1.952152945E-1
8.238946083E0,7.157835419E-1,3.580896261E-1,2.555065425E0,2.677486430E0
8.248892083E0,2.078731942E0,2.889015698E-1,7.137417819E0,7.439578196E0
8.258838083E0,3.388089588E0,-3.546818689E-1,1.467690422E1,1.506706567E1
8.268784083E0,3.371016887E0,-2.203039069E0,2.286703604E1,2.321892489E1
8.278730083E0,2.096916198E0,-5.721384156E0,3.026239793E1,3.086979142E1
8.288675083E0,4.932435209E-1,-1.102267627E1,3.741001329E1,3.900322776E1
8.298621083E0,-8.913903384E-1,-1.655557602E1,4.421753822E1,4.722364196E1
8.308567083E0,-1.091881715E0,-2.009239889E1,4.952524298E1,5.345695830E1
8.318513083E0,-2.002753770E-1,-2.031364116E1,5.030815709E1,5.425490574E1
8.328459083E0,1.663755486E0,-1.771700262E1,4.490839844E1,4.830553296E1
8.338405083E0,3.059569916E0,-1.343604203E1,3.785982790E1,4.028963591E1
8.348351083E0,3.772398714E0,-9.065046015E0,3.077959351E1,3.230773015E1
8.358297083E0,4.110926772E0,-5.005346407E0,2.367245257E1,2.454257978E1
8.368243083E0,3.911556891E0,-1.672114519E0,1.601967753E1,1.657486991E1
8.378189083E0,3.484191501E0,5.729729010E-1,8.277728952E0,8.999371365E0
8.388135083E0,3.291500602E0,1.889417957E0,1.931155820E0,4.258314130E0
8.398080083E0,3.615882784E0,2.416967640E0,-2.857470555E0,5.203986823E0
8.408026083E0,3.506547745E0,2.215613506E0,-6.901002027E0,8.051624014E0
8.417972083E0,2.794675844E0,1.934437424E0,-1.119139300E1,1.169613349E1
8.427918083E0,2.028378060E0,2.061950872E0,-1.550465010E1,1.577213155E1
8.437864083E0,1.959876613E0,2.938498638E0,-1.926549735E1,1.958660968E1
8.447810083E0,1.888267809E0,4.448433907E0,-2.265246661E1,2.316221844E1
8.457756083E0,5.510769422E-1,6.020144717E0,-2.625183715E1,2.693890833E1
8.467702083E0,-1.381075353E0,6.424953888E0,-2.926293102E1,2.999177443E1
8.477648083E0,-3.409938294E0,5.317026390E0,-2.931365444E1,2.998647671E1
8.487594083E0,-5.522011060E0,2.594098221E0,-2.529046134E1,2.601594485E1
8.497540083E0,-6.774299880E0,-9.648297590E-1,-1.907860046E1,2.026857249E1
8.507486083E0,-8.092859289E0,-3.557430215E0,-1.202917271E1,1.492818399E1
8.517431667E0,-8.872283195E0,-4.809464682E0,-6.422752411E0,1.196244574E1
8.527377667E0,-7.437296367E0,-4.770667529E0,-4.105392675E0,9.743043413E0
8.537323667E0,-5.442915189E0,-3.427453628E0,-4.034332048E0,7.592667462E0
8.547269667E0,-4.557369289E0,-1.849477234E0,-5.173543904E0,7.138328754E0
8.557215667E0,-4.199013614E0,-5.310985047E-1,-5.639412625E0,7.051010970E0
8.567161667E0,-3.322574460E0,2.048902372E-1,-5.063215715E0,6.059507771E0
8.577107667E0,-2.093351151E0,7.086682114E-1,-4.111235797E0,4.667610680E0
8.587053667E0,-1.200679761E0,1.117717638E0,-3.646280411E0,3.998285313E0
8.596999667E0,-1.023023369E0,1.513283092E0,-3.925335855E0,4.329533936E0
8.606945667E0,-8.041858412E-1,2.053856425E0,-4.741291995E0,5.229234252E0
8.616890667E0,-3.900603010E-1,2.352077287E0,-5.466830885E0,5.964113893E0
8.626836667E0,1.531253486E-1,2.564808056E0,-5.863498394E0,6.401742040E0
8.636782667E0,7.972110631E-1,2.722944834E0,-6.456072185E0,7.052009792E0
8.646728667E0,1.472357699E0,3.041714858E0,-7.400103398E0,8.135194944E0
8.656674667E0,1.389974377E0,3.293844166E0,-8.604130470E0,9.317322540E0
8.666620667E0,9.348453833E-1,3.334587272E0,-9.671043259E0,1.027241383E1
8.676566667E0,8.230376299E-1,3.316979844E0,-1.045751949E1,1.100179350E1
8.686512667E0,9.695327476E-1,3.109362173E0,-1.094433879E1,1.141869863E1
8.696458667E0,8.890925288E-1,2.719745822E0,-1.121741077E1,1.157660604E1
8.706404667E0,9.258631830E-1,2.337712871E0,-1.116603363E1,1.144562935E1
8.716350667E0,7.022604670E-1,2.019094436E0,-1.105868343E1,1.126340940E1
8.726295667E0,4.437411028E-1,1.456252420E0,-1.103801586E1,1.114250292E1
8.736241667E0,5.626208442E-1,8.662164670E-1,-1.045811942E1,1.050900256E1
8.746187667E0,8.373041783E-1,1.270183347E-1,-9.337032174E0,9.375360354E0
8.756133667E0,1.372179692E0,-2.951442035E-1,-8.117173181E0,8.237626337E0
8.766079667E0,2.049233032E0,-6.365837368E-1,-7.038203434E0,7.358050180E0
8.776025667E0,2.614143645E0,-1.029322647E0,-5.962311661E0,6.591085832E0
8.785971667E0,3.342666955E0,-7.287240149E-1,-4.800792677E0,5.895088751E0
8.795917667E0,3.577975285E0,9.530065428E-1,-4.258630655E0,5.643231669E0
8.805863667E0,3.451184553E0,2.848992092E0,-3.684772632E0,5.796980258E0
8.815809667E0,2.670333049E0,4.291297880E0,-5.219809413E-1,5.081179016E0
8.825755667E0,4.191371303E0,4.619369363E0,6.563416539E0,9.054534962E0
8.835700667E0,7.155479284E0,2.699009549E0,1.806478682E1,1.961688199E1
8.845646667E0,7.320771300E0,1.509176593E-1,3.110568805E1,3.195591177E1
8.855592667E0,4.929395753E0,-2.695826617E0,3.873318674E1,3.913855105E1
8.865538667E0,1.219578254E0,-5.214658601E0,4.116803750E1,4.151490512E1
8.875484667E0,-1.377861431E0,-7.469332677E0,4.269887130E1,4.336914852E1
8.885430667E0,-1.743243559E0,-9.588938411E0,4.379247371E1,4.486387624E1
8.895376667E0,-1.477739038E0,-1.115968121E1,4.388225887E1,4.530314383E1
8.905322667E0,-5.413911391E-1,-1.190500357E1,4.239922723E1,4.404221479E1
8.915268667E0,9.836695609E-1,-1.127555081E1,3.887563193E1,4.048975685E1
8.925214667E0,2.114954128E0,-9.574419190E0,3.342755891E1,3.483596171E1
8.935160667E0,3.704258771E0,-6.839909148E0,2.594019927E1,2.708135573E1
8.945105667E0,5.474738075E0,-3.628592584E0,1.684749592E1,1.808252084E1
8.955051667E0,5.450298468E0,-1.123251369E0,7.427903985E0,9.281228617E0
8.964997667E0,3.003540141E0,-2.260012438E-1,-1.069738748E0,3.196352755E0
8.974943667E0,5.276977640E-1,-5.812633026E-2,-7.508741741E0,7.527486044E0
8.984889667E0,-9.077451468E-1,-5.325103880E-1,-1.194786717E1,1.199412767E1
8.994835667E0,-1.812435416E0,-1.206963471E0,-1.508422828E1,1.524059138E1
9.004781667E0,-2.366976431E0,-1.650050636E0,-1.778925081E1,1.802172825E1
9.014727667E0,-2.275486071E0,-1.534876567E0,-2.025284181E1,2.043798631E1
9.024673667E0,-1.719515996E0,-1.088564444E0,-2.248028950E1,2.257222018E1
9.034619667E0,-1.570003423E0,-3.714091814E-1,-2.424462601E1,2.429824574E1
9.044565667E0,-1.543505011E0,5.400832631E-1,-2.565763374E1,2.570969208E1
9.054511667E0,-1.529281659E0,1.086388987E0,-2.677074012E1,2.683638332E1
9.064456667E0,-1.465912167E0,1.164377980E0,-2.664039398E1,2.670609043E1
9.074402667E0,-1.774101655E0,2.098548521E-1,-2.402113373E1,2.408747271E1
9.084348667E0,-2.153284234E0,-1.609578255E0,-1.942174664E1,1.960692780E1
9.094294667E0,-2.404839491E0,-3.280711027E0,-1.455153524E1,1.510938436E1
9.104240667E0,-3.080096859E0,-4.404904895E0,-1.016542885E1,1.149896202E1
9.114186667E0,-3.530496771E0,-4.859471532E0,-7.250614652E0,9.415427970E0
9.124132667E0,-3.392226493E0,-4.354900091E0,-5.850626333E0,8.043766771E0
9.134078667E0,-2.940565629E0,-3.245861622E0,-5.812355722E0,7.277775960E0
9.144024667E0,-2.654775070E0,-2.082705418E0,-6.269793343E0,7.120098391E0
9.153970667E0,-2.370210088E0,-9.815559386E-1,-6.484421825E0,6.973454978E0
9.163916667E0,-1.803558904E0,-1.206344908E-1,-6.303011375E0,6.557082415E0
9.173862667E0,-8.362948027E-1,6.024552201E-1,-5.737963936E0,5.829800290E0
9.183808667E0,5.026091158E-2,1.162104071E0,-5.168390168E0,5.297666369E0
9.193753667E0,2.298601869E-1,1.476187917E0,-4.939866947E0,5.160838297E0
9.203699667E0,3.002824442E-1,1.905934148E0,-5.064593904E0,5.419673970E0
9.213645667E0,6.184873353E-1,2.194290611E0,-5.243761947E0,5.717908466E0
9.223591667E0,6.996978517E-1,2.440258562E0,-5.394901947E0,5.962332257E0
9.233537667E0,9.857823792E-1,2.769527262E0,-5.715592489E0,6.427289137E0
9.243483667E0,9.928870386E-1,2.934342729E0,-5.693822136E0,6.481959769E0
9.253429667E0,4.842140678E-1,2.891239979E0,-5.684056116E0,6.395484799E0
9.263375667E0,3.792342543E-1,3.055316944E0,-5.947332264E0,6.696980013E0
9.273321667E0,3.325171208E-1,3.230525545E0,-6.233897286E0,7.029106508E0
9.283267667E0,8.459824696E-3,3.199862453E0,-6.211503035E0,6.987271373E0
9.293213667E0,-2.707301778E-1,3.057889134E0,-5.357879716E0,6.175018691E0
9.303159667E0,-2.573459011E-1,2.666937279E0,-4.183090476E0,4.967597739E0
9.313105667E0,-1.316050369E-1,2.137906788E0,-3.090069870E0,3.759853337E0
9.323050667E0,-4.935139912E-1,1.316506451E0,-1.508493930E0,2.062110383E0
9.332996667E0,-6.565738323E-1,1.067857845E0,3.677080035E-2,1.254097949E0
9.342942667E0,-1.547499975E-1,1.744801842E0,3.607960099E-1,1.788422430E0
9.352888667E0,-8.958424084E-2,2.982565594E0,7.538978863E-1,3.077675240E0
9.362834667E0,7.984515499E-1,4.485021105E0,2.669318265E0,5.279980983E0
9.372780667E0,3.291962532E0,4.720394046E0,7.022846307E0,9.079620450E0
9.382726667E0,4.979263147E0,3.654650116E0,1.465098702E1,1.589971540E1
9.392672667E0,4.097685460E0,1.454715918E0,2.147903100E1,2.191474383E1
9.402618667E0,7.219940159E-1,-1.776058718E0,2.555040516E1,2.562223378E1
9.412564667E0,-3.837655687E0,-5.576039917E0,2.867272476E1,2.946090575E1
9.422510667E0,-6.909642457E0,-1.019141972E1,3.273378209E1,3.497297078E1
9.432456667E0,-7.528976031E0,-1.529940582E1,3.764007784E1,4.132230340E1
9.442402667E0,-6.589684571E0,-1.926946878E1,4.252825891E1,4.715282786E1
9.452348667E0,-6.383445089E0,-2.041967691E1,4.416950217E1,4.907806535E1
9.462293667E0,-5.801785126E0,-1.853307278E1,4.001848894E1,4.448162490E1
9.472239667E0,-3.643823996E0,-1.421283410E1,3.262387783E1,3.577149020E1
9.482185667E0,-5.770032040E-1,-9.142804627E0,2.420489067E1,2.588050505E1
9.492131667E0,2.721065539E0,-4.539208714E0,1.503495730E1,1.593921436E1
9.502077667E0,4.962664071E0,-9.662412769E-1,5.668556902E0,7.595669440E0
9.512023667E0,5.004187489E0,1.626122221E0,-3.367148370E0,6.246907558E0
9.521969042E0,4.034746031E0,3.542936722E0,-1.118102004E1,1.240349892E1
9.531915042E0,3.090289433E0,4.685721227E0,-1.687647121E1,1.778541967E1
9.541861042E0,2.453061917E0,5.027832459E0,-2.010572119E1,2.086951452E1
9.551807042E0,2.179723881E0,5.050710275E0,-2.165855455E1,2.234622688E1
9.561753042E0,2.497251080E0,5.366555815E0,-2.333322284E1,2.407229679E1
9.571699042E0,2.163111211E0,5.282274633E0,-2.607073251E1,2.668828524E1
9.581645042E0,1.369465414E-1,4.377739608E0,-2.806266370E1,2.840240223E1
9.591591042E0,-2.409195959E0,2.925986474E0,-2.711567204E1,2.737928583E1
9.601536042E0,-4.114786519E0,1.022329524E0,-2.355719459E1,2.393570644E1
9.611482042E0,-5.008890404E0,-6.694981523E-1,-1.907449454E1,1.973255059E1
9.621428042E0,-6.107437214E0,-1.713057600E0,-1.507273382E1,1.635306273E1
9.631374042E0,-6.233377469E0,-1.801222503E0,-1.284594687E1,1.439158602E1
9.641320042E0,-4.427783295E0,-1.296564084E0,-1.179962739E1,1.266955208E1
9.651266042E0,-2.139215395E0,-4.373978240E-1,-9.960361151E0,1.019687960E1
9.661212042E0,-1.414624777E0,-4.342127725E-2,-7.290804319E0,7.426902200E0
9.671158042E0,-1.606969228E0,-9.576401688E-2,-4.776945977E0,5.040906041E0
9.681104042E0,-2.138613716E0,-1.261513388E-1,-2.654835296E0,3.411412206E0
9.691050042E0,-2.699820850E0,-2.926258077E-1,-1.304728990E0,3.012802719E0
9.700996042E0,-2.754147915E0,-2.928092641E-1,-7.093830335E-1,2.859071929E0
9.710942042E0,-2.773162476E0,-1.653785545E-1,-9.634854841E-1,2.940422497E0
9.720888042E0,-2.520462772E0,2.437878160E-1,-2.076052748E0,3.274470965E0
9.730834042E0,-1.747399613E0,8.371734931E-1,-3.470255247E0,3.974535991E0
9.740779042E0,-7.111035767E-1,1.509609579E0,-5.056816522E0,5.325033589E0
9.750725042E0,2.040168093E-1,2.064962188E0,-7.002342460E0,7.303320589E0
9.760671042E0,5.312427847E-1,2.427352587E0,-9.003184227E0,9.339785100E0
9.770617042E0,2.363944504E-1,2.455573297E0,-1.023653801E1,1.052959795E1
9.780563042E0,5.202472419E-2,2.252194711E0,-1.036153745E1,1.060361004E1
9.790509042E0,3.995488702E-1,1.805923664E0,-1.005640518E1,1.022508116E1
9.800455042E0,7.367955114E-1,1.419126256E0,-1.000143316E1,1.012844767E1
9.810401042E0,4.996106637E-1,8.718529636E-1,-1.024248112E1,1.029165477E1
9.820347042E0,3.837189956E-1,4.401793445E-1,-1.019803293E1,1.021473806E1
9.830293042E0,6.170815185E-1,2.982346762E-1,-9.651904737E0,9.676207862E0
9.840239042E0,6.878870608E-1,5.193233818E-2,-8.470484755E0,8.498529141E0
9.850185042E0,8.540853949E-1,1.197421326E-1,-6.140990877E0,6.201255436E0
9.860131042E0,1.550083859E0,5.442368328E-1,-3.282684170E0,3.670826754E0
9.870077042E0,1.420369666E0,4.804591320E-1,-2.526231050E-1,1.520562198E0
9.880022042E0,3.665021615E-1,2.308194957E-1,3.060588208E0,3.091084220E0
9.889968042E0,-4.696545739E-1,5.703264512E-2,6.629157370E0,6.646018024E0
9.899914042E0,-3.102046575E-1,-2.980368941E-1,1.097700016E1,1.098542605E1
9.909860042E0,-5.384647539E-1,-9.891516180E-1,1.638907655E1,1.642772642E1
9.919806042E0,-1.720901055E0,-1.738120667E0,2.080390680E1,2.094719796E1
9.929752042E0,-3.923277927E0,-1.911806507E0,2.347017633E1,2.387250072E1
9.939698042E0,-6.500012841E0,-2.271215850E0,2.481347823E1,2.575106387E1
9.949644042E0,-6.703502963E0,-3.535853405E0,2.547022346E1,2.657388745E1
9.959590042E0,-3.039255812E0,-5.839233034E0,2.732916324E1,2.811079654E1
9.969536042E0,2.096195236E0,-8.191687174E0,3.169952893E1,3.280789398E1
9.979482042E0,4.451543456E0,-1.057104435E1,3.629943993E1,3.806852449E1
9.989428042E0,2.777734706E0,-1.180279424E1,3.861389418E1,4.047288705E1
9.999374042E0,1.910613675E0,-1.023830153E1,3.789836806E1,3.930342943E1
1.000932004E1,3.884559127E0,-6.667775306E0,3.354985459E1,3.442588808E1
1.001926504E1,6.070250677E0,-3.001823106E0,2.591329272E1,2.678353272E1
1.002921104E1,8.031600934E0,-2.033762468E-1,1.647002190E1,1.832510837E1
1.003915704E1,8.128762947E0,1.602999845E0,7.421858549E0,1.112341584E1
1.004910304E1,6.193029926E0,1.940442368E0,1.541138935E-1,6.491739932E0
1.005904904E1,4.246745605E0,1.340275822E0,-5.079713634E0,6.755344411E0
1.006899504E1,2.976162601E0,7.208081274E-1,-8.996121960E0,9.503016285E0
1.007894104E1,1.501164738E0,2.127868288E-1,-1.198252830E1,1.207806931E1
1.008888704E1,-1.314757403E-1,9.954479911E-2,-1.500970435E1,1.501061023E1
1.009883304E1,-1.383600912E0,1.361983317E0,-1.882908105E1,1.892891025E1
1.010877904E1,-2.304327901E0,3.380614800E0,-2.374944870E1,2.409926964E1
1.011872504E1,-2.980212090E0,4.687303191E0,-2.828006552E1,2.882038482E1
1.012867104E1,-3.795876746E0,4.362627186E0,-2.924059231E1,2.980693602E1
1.013861704E1,-4.286988482E0,2.326672597E0,-2.551545284E1,2.597749044E1
1.014856304E1,-5.111955766E0,-7.056584302E-1,-1.919998281E1,1.988138288E1
1.015850804E1,-6.373606564E0,-3.895720292E0,-1.299136479E1,1.498582851E1
1.016845404E1,-7.758627765E0,-5.856809179E0,-7.349853011E0,1.218683133E1
1.017840004E1,-7.463486631E0,-6.310019848E0,-3.589986343E0,1.041191554E1
1.018834604E1,-5.347020267E0,-5.313667749E0,-2.744670748E0,8.022400402E0
1.019829204E1,-3.417308417E0,-3.508563865E0,-3.849819649E0,6.229697307E0
1.020823804E1,-2.338392756E0,-1.826485690E0,-5.399218361E0,6.160818904E0
1.021818404E1,-1.548186876E0,-6.001816034E-1,-6.073800521E0,6.296677960E0
1.022813004E1,-7.086712081E-1,7.746321861E-2,-5.768851268E0,5.812732609E0
1.023807604E1,2.499048807E-2,4.055097776E-1,-5.140045205E0,5.156076747E0
1.024802204E1,3.536764401E-1,5.832458011E-1,-4.768001491E0,4.816544499E0
1.025796804E1,3.046861285E-1,6.294041600E-1,-5.033151087E0,5.081495163E0
1.026791404E1,5.115257543E-1,7.582271647E-1,-5.975060930E0,6.044660466E0
1.027786004E1,8.145139975E-1,8.349261157E-1,-7.344579408E0,7.436624325E0
1.028780504E1,1.169797399E0,9.494049503E-1,-8.674611638E0,8.804469478E0
1.029775104E1,1.419803071E0,1.216986987E0,-9.847475975E0,1.002345655E1
1.030769704E1,1.350358614E0,1.174139614E0,-1.102486898E1,1.116914537E1
1.031764304E1,1.158345627E0,1.131842610E0,-1.182804486E1,1.193840347E1
1.032758904E1,1.097609940E0,9.437827063E-1,-1.251997629E1,1.260338366E1
1.033753504E1,1.077812072E0,7.637669630E-1,-1.297257417E1,1.303965872E1
1.034748104E1,1.029723182E0,3.726300435E-1,-1.311605315E1,1.316168809E1
1.035742704E1,7.301138981E-1,-6.015847525E-2,-1.301940102E1,1.303999571E1
1.036737304E1,8.534870055E-1,-2.789869031E-1,-1.266233261E1,1.269413017E1
1.037731904E1,1.274643019E0,-4.973070069E-1,-1.191517305E1,1.199347230E1
1.038726504E1,1.127809713E0,-8.905492895E-1,-1.068345240E1,1.077966548E1
1.039721104E1,8.668614149E-1,-1.324280763E0,-8.982415502E0,9.120798019E0
1.040715704E1,1.180969820E0,-1.622566968E0,-7.227964293E0,7.501391944E0
1.041710304E1,1.916533396E0,-1.547209076E0,-5.385687320E0,5.922211081E0
1.042704804E1,2.521418207E0,-6.473461220E-1,-3.664271709E0,4.494829689E0
1.043699404E1,2.470662329E0,1.059916888E0,-2.768623282E0,3.859128274E0
1.044694004E1,1.379825511E0,3.118469211E0,-1.305915390E0,3.651600152E0
1.045688604E1,-1.152036700E-1,3.737375354E0,2.809440356E0,4.676986373E0
1.046683204E1,-1.316356616E-1,2.557784965E0,1.028249946E1,1.059666868E1
1.047677804E1,1.378292664E0,5.106214093E-1,1.905136763E1,1.910798350E1
1.048672404E1,2.209450833E0,-2.116590032E0,2.735417295E1,2.752475984E1
1.049667004E1,1.902431958E0,-4.117377713E0,3.409128337E1,3.439167993E1
1.050661604E1,2.364889121E0,-6.306057774E0,3.931324924E1,3.988597035E1
1.051656204E1,3.903409966E0,-8.919050395E0,4.442367830E1,4.547800856E1
1.052650783E1,4.059474490E0,-1.075188821E1,4.840067372E1,4.974643354E1
1.053645383E1,2.888357010E0,-1.092720294E1,4.874880758E1,5.004190855E1
1.054639983E1,2.483678231E0,-9.254782315E0,4.558788232E1,4.658406024E1
1.055634483E1,3.173602608E0,-5.899995545E0,4.144539199E1,4.198335644E1
1.056629083E1,4.986854002E0,-3.239014240E0,3.411644979E1,3.463079659E1
1.057623683E1,6.308903030E0,-3.659789819E-1,2.407564849E1,2.489122433E1
1.058618283E1,7.297887636E0,2.190221826E0,1.332241543E1,1.534740983E1
1.059612883E1,7.819431791E0,3.542677398E0,3.595093886E0,9.306920905E0
1.060607483E1,6.765844806E0,3.604568714E0,-4.411994936E0,8.845070428E0
1.061602083E1,4.880873511E0,2.963022445E0,-1.077605358E1,1.219531709E1
1.062596683E1,2.852759453E0,2.212649845E0,-1.571859154E1,1.612786953E1
1.063591283E1,9.153992982E-1,1.773740589E0,-1.948805758E1,1.959001020E1
1.064585883E1,-7.105860250E-1,2.170064281E0,-2.288911512E1,2.300273250E1
1.065580483E1,-2.113867569E0,3.075190752E0,-2.644400940E1,2.670600808E1
1.066575083E1,-3.281599219E0,3.235300966E0,-2.947916339E1,2.983717714E1
1.067569683E1,-4.556250716E0,2.212743401E0,-2.965255438E1,3.008204839E1
1.068564283E1,-6.179484851E0,-1.291479637E-1,-2.567783470E1,2.641124584E1
1.069558783E1,-7.596495584E0,-3.012364467E0,-1.991035636E1,2.152216009E1
1.070553383E1,-9.831817131E0,-5.359484192E0,-1.498747674E1,1.870863859E1
1.071547983E1,-1.221111233E1,-6.424030613E0,-1.150273619E1,1.796364032E1
1.072542583E1,-1.201165094E1,-6.409210260E0,-9.565792208E0,1.663917411E1
1.073537183E1,-8.674178360E0,-5.301486245E0,-8.406439617E0,1.319148792E1
1.074531783E1,-5.448389937E0,-3.705686076E0,-7.520855418E0,9.999016372E0
1.075526383E1,-4.052530045E0,-2.818944713E0,-7.371026364E0,8.871385389E0
1.076520983E1,-3.038272310E0,-2.139520473E0,-7.590836649E0,8.451594377E0
1.077515583E1,-1.859866421E0,-1.669377291E0,-7.417278425E0,7.827000886E0
1.078510183E1,-1.294341411E0,-1.525915124E0,-6.666481901E0,6.960295798E0
1.079504783E1,-1.582394696E0,-1.799446996E0,-5.993829322E0,6.455073385E0
1.080499383E1,-1.794018148E0,-2.103623539E0,-5.945571667E0,6.556947122E0
1.081493983E1,-1.542257946E0,-1.979495629E0,-6.432868679E0,6.904980953E0
1.082488483E1,-1.079777833E0,-1.783574582E0,-7.301992967E0,7.593823789E0
1.083483083E1,-8.400241569E-1,-1.608058272E0,-8.277485708E0,8.473975551E0
1.084477683E1,-4.434132202E-1,-1.283771984E0,-9.242542339E0,9.341802539E0
1.085472283E1,3.999476503E-1,-9.443313213E-1,-9.819025762E0,9.872435702E0
1.086466883E1,9.658961450E-1,-7.797563935E-1,-1.007301127E1,1.014921334E1
1.087461483E1,4.797997123E-1,-1.062544334E0,-1.028964125E1,1.035547804E1
1.088456083E1,6.730598375E-2,-1.525057776E0,-1.007648802E1,1.019146418E1
1.089450683E1,9.856315210E-2,-2.120074827E0,-8.703699782E0,8.958728808E0
1.090445283E1,7.798453443E-1,-2.776135785E0,-7.000750263E0,7.571366647E0
1.091439883E1,1.603204206E0,-3.360264735E0,-5.383684648E0,6.545662931E0
1.092434483E1,2.422052086E0,-3.472141559E0,-4.311159117E0,6.042201275E0
1.093429083E1,3.158469429E0,-3.061719060E0,-3.189032241E0,5.433229184E0
1.094423683E1,4.253760509E0,-2.516931931E0,-5.232842857E-1,4.970236540E0
1.095418183E1,5.236402642E0,-1.757806195E0,3.243958061E0,6.405705203E0
1.096412783E1,5.156309820E0,-1.208031282E-1,6.408030292E0,8.225872390E0
1.097407383E1,3.557021203E0,1.605273828E0,8.306727049E0,9.177745810E0
1.098401983E1,1.168752282E0,2.335752884E0,1.118463128E1,1.148554310E1
1.099396583E1,1.235018192E-1,2.311778862E0,1.626938171E1,1.643326977E1
1.100391183E1,-1.317058282E-1,2.974899310E0,2.142354794E1,2.162951175E1
1.101385783E1,-9.337222063E-1,4.762023298E0,2.263860403E1,2.315286366E1
1.102380383E1,-3.114711498E0,6.892655126E0,2.046670022E1,2.181962282E1
1.103374983E1,-4.840571870E0,7.776274077E0,1.998064457E1,2.198016678E1
1.104369583E1,-4.868749017E0,6.305985269E0,2.313619507E1,2.446944399E1
1.105364183E1,-4.409175993E0,3.486842628E0,2.687795934E1,2.745949021E1
1.106358783E1,-2.580372759E0,3.965070755E-1,2.872172911E1,2.884013288E1
1.107353383E1,-2.398742015E-1,-3.016108147E0,3.111943836E1,3.126617808E1
1.108347883E1,1.729316368E0,-5.853037140E0,3.537353099E1,3.589617352E1
1.109342483E1,4.380783668E0,-6.831231880E0,3.706618531E1,3.794415750E1
1.110337083E1,6.984640015E0,-6.053911802E0,3.237631373E1,3.366987875E1
1.111331683E1,7.500180248E0,-4.466299782E0,2.370156001E1,2.525795883E1
1.112326283E1,6.502270451E0,-3.293305637E0,1.484783237E1,1.654036000E1
1.113320883E1,5.702604654E0,-2.927496517E0,7.224815567E0,9.658565922E0
1.114315483E1,5.159086663E0,-3.062494401E0,8.873231614E-1,6.064848683E0
1.115310083E1,4.748879634E0,-3.278794895E0,-4.919087697E0,7.582860773E0
1.116304683E1,4.203933461E0,-2.837506406E0,-1.019730787E1,1.138901168E1
1.117299283E1,3.322971778E0,-1.986470188E0,-1.474941320E1,1.524904571E1
1.118293883E1,2.028745850E0,-7.108862065E-1,-1.849631484E1,1.862081716E1
1.119288483E1,1.153774201E0,8.048701116E-1,-2.241462760E1,2.245872974E1
1.120282983E1,9.533574488E-3,2.775748115E0,-2.623838855E1,2.638480438E1
1.121277583E1,-1.079732224E0,4.144702336E0,-2.972164041E1,3.002865777E1
1.122272183E1,-1.803691636E0,4.349088251E0,-3.136174931E1,3.171320217E1
1.123266783E1,-2.006779615E0,3.502695014E0,-2.958801516E1,2.986212782E1
1.124261383E1,-1.705865964E0,1.625276860E0,-2.565698353E1,2.576494338E1
1.125255983E1,-2.001722943E0,-2.436401007E-1,-2.120258868E1,2.129826335E1
1.126250583E1,-3.232256613E0,-1.905715462E0,-1.723825365E1,1.764189964E1
1.127245183E1,-4.035647671E0,-2.955386274E0,-1.409631079E1,1.495749772E1
1.128239783E1,-3.743420205E0,-3.312484797E0,-1.141164592E1,1.245838726E1
1.129234383E1,-2.804211776E0,-3.141486484E0,-9.359122955E0,1.026283214E1
1.130228983E1,-1.917140922E0,-2.653446583E0,-8.202841322E0,8.831920167E0
1.131223583E1,-1.182250433E0,-1.957093046E0,-7.525617975E0,7.865294348E0
1.132218183E1,-4.842162605E-1,-1.429131426E0,-6.747949403E0,6.914600723E0
1.133212683E1,7.982984260E-2,-1.093100713E0,-5.995302821E0,6.094661425E0
1.134207283E1,8.479743236E-1,-7.876602211E-1,-5.288634650E0,5.413790311E0
1.135201883E1,1.279261296E0,-6.037062685E-1,-4.643514270E0,4.854193599E0
1.136196483E1,9.784759909E-1,-7.868262620E-1,-4.296815313E0,4.476508981E0
1.137191083E1,5.998450962E-1,-9.035723544E-1,-4.092504827E0,4.233775253E0
1.138185683E1,4.752888778E-1,-9.305213673E-1,-4.188439509E0,4.316803801E0
1.139180283E1,-3.528429195E-2,-9.957199415E-1,-4.454456831E0,4.564525040E0
1.140174883E1,-7.708552502E-1,-8.988109667E-1,-4.861632371E0,5.003753419E0
1.141169483E1,-9.675269334E-1,-6.146424986E-1,-5.850633350E0,5.961862491E0
1.142164083E1,-9.237619860E-1,-2.313298845E-1,-6.633890106E0,6.701891350E0
1.143158683E1,-1.256234230E0,-8.263745628E-2,-7.158388274E0,7.268251238E0
1.144153283E1,-1.433878634E0,1.499549152E-1,-7.814448209E0,7.946325895E0
1.145147883E1,-1.289699160E0,5.268400506E-1,-8.550434904E0,8.663187717E0
1.146142383E1,-1.487589988E0,6.993988397E-1,-8.633892213E0,8.788980456E0
1.147136983E1,-1.521461739E0,5.499239078E-1,-7.848345687E0,8.013350869E0
1.148131583E1,-1.370612492E0,-4.183441602E-2,-6.041685859E0,6.195344764E0
1.149126183E1,-1.158540778E0,-9.041213349E-1,-2.818162647E0,3.178316037E0
1.150120783E1,-9.544996293E-1,-1.498879646E0,1.444478028E0,2.290027622E0
1.151115383E1,-5.439335816E-1,-1.466489287E0,4.957976359E0,5.198844501E0
1.152109979E1,-7.711986279E-1,-9.931253857E-1,7.333258029E0,7.440276787E0
1.153104579E1,-1.185170386E0,-4.253054166E-1,9.578208185E0,9.660620352E0
1.154099179E1,-1.190641626E0,-9.826099724E-2,1.280391709E1,1.285953247E1
1.155093779E1,-1.654504460E0,-1.557775360E-1,1.517554074E1,1.526625980E1
1.156088379E1,-3.043423415E0,1.132781381E0,1.552417279E1,1.586018791E1
1.157082979E1,-4.575718728E0,2.557670652E0,1.430452780E1,1.523477590E1
1.158077579E1,-5.883791741E0,3.239667959E0,1.450014055E1,1.598025437E1
1.159072079E1,-5.995436137E0,1.924045314E0,1.780843670E1,1.888882268E1
1.160066679E1,-5.068162460E0,-1.189546662E0,2.360660357E1,2.417380863E1
1.161061279E1,-3.968224597E0,-4.763274018E0,3.005013464E1,3.068299493E1
1.162055879E1,-2.167253525E0,-7.766315099E0,3.486434843E1,3.578456972E1
1.163050479E1,1.224776429E-1,-9.290327539E0,3.711763613E1,3.826282921E1
1.164045079E1,2.208895640E0,-8.828427908E0,3.773191421E1,3.881388552E1
1.165039679E1,4.449736666E0,-7.982342235E0,3.622997033E1,3.736480555E1
1.166034279E1,5.904113154E0,-6.412052591E0,3.246897807E1,3.361855897E1
1.167028879E1,6.555350305E0,-4.732593677E0,2.669311716E1,2.789072541E1
1.168023479E1,6.358858716E0,-3.402704703E0,1.972123869E1,2.099858898E1
1.169018079E1,5.694727285E0,-2.409866635E0,1.220574809E1,1.368275055E1
1.170012679E1,4.901795433E0,-1.778555479E0,4.606401408E0,6.957714567E0
1.171007279E1,4.442687263E0,-1.428289427E0,-2.454681011E0,5.272849294E0
1.172001879E1,4.227779576E0,-1.107139147E0,-8.674152047E0,9.712918767E0
1.172996479E1,3.720033974E0,-6.228239959E-1,-1.404202992E1,1.453977877E1
1.173990979E1,3.367419680E0,6.439640924E-2,-1.844684623E1,1.875179452E1
1.174985579E1,3.774768590E0,9.720251233E-1,-2.200449454E1,2.234706895E1
1.175980179E1,4.098469864E0,2.204564900E0,-2.537661188E1,2.579980604E1
1.176974779E1,3.283701878E0,3.614075994E0,-2.874824038E1,2.915999946E1
1.177969379E1,2.486062141E0,4.900809885E0,-3.168785087E1,3.216081988E1
1.178963979E1,1.910620984E0,4.875606632E0,-3.350293887E1,3.390971728E1
1.179958579E1,7.820301564E-1,3.268623371E0,-3.203424226E1,3.221006283E1
1.180953179E1,-7.420833678E-1,3.034285020E-1,-2.713099175E1,2.714283460E1
1.181947779E1,-2.663262303E0,-3.078371638E0,-2.121244942E1,2.159947565E1
1.182942379E1,-4.605630745E0,-5.498484203E0,-1.520196080E1,1.680906824E1
1.183936979E1,-5.523666991E0,-6.507753385E0,-1.031292954E1,1.338724269E1
1.184931579E1,-5.376235880E0,-6.570035003E0,-7.193755158E0,1.112741594E1
1.185926179E1,-4.222567368E0,-5.605622735E0,-5.865305768E0,9.146304892E0
1.186920779E1,-2.697080260E0,-4.151217889E0,-6.034980272E0,7.805628660E0
1.187915379E1,-1.490428665E0,-2.512190132E0,-6.375111637E0,7.012455009E0
1.188909879E1,-4.325729575E-1,-1.296962864E0,-6.673719585E0,6.812324503E0
1.189904479E1,7.370385363E-1,-4.504882780E-1,-6.144200413E0,6.204624421E0
1.190899079E1,1.695848660E0,1.387596899E-1,-5.055716076E0,5.334362378E0
1.191893679E1,1.776182094E0,4.372055968E-1,-4.102290142E0,4.491631772E0
1.192888279E1,1.313568518E0,5.028036819E-1,-3.531587861E0,3.801366414E0
1.193882879E1,1.000503329E0,5.716998160E-1,-3.266418970E0,3.463717725E0
1.194877479E1,8.739637354E-1,7.785469700E-1,-3.293542449E0,3.495335443E0
1.195872079E1,1.350437844E0,1.173870788E0,-3.838103583E0,4.234701184E0
1.196866679E1,1.297758670E0,1.684389871E0,-4.878088775E0,5.321381108E0
1.197861279E1,7.073005477E-1,2.027078662E0,-6.212606404E0,6.573111919E0
1.198855879E1,2.981928686E-1,2.333671714E0,-7.223088300E0,7.596574704E0
1.199850479E1,4.716466472E-2,2.316282679E0,-7.455889344E0,7.807539680E0
1.200845079E1,-1.687714744E-1,2.044089967E0,-7.114718928E0,7.404458997E0
1.201839679E1,-9.498261691E-1,1.405149071E0,-6.798064134E0,7.006446291E0
1.202834279E1,-1.557305463E0,6.737983409E-1,-6.314170786E0,6.538192199E0
1.203828879E1,-1.511193005E0,1.797976421E-1,-5.399299053E0,5.609675726E0
1.204823379E1,-9.380438103E-1,5.018109709E-2,-4.484945383E0,4.582267934E0
1.205817979E1,-3.598713458E-1,7.873097536E-1,-4.692505751E0,4.771684635E0
1.206812579E1,-6.846840291E-1,1.863298737E0,-5.615394017E0,5.955948654E0
1.207807179E1,-1.257616219E0,2.552138309E0,-4.502937850E0,5.326486439E0
1.208801779E1,-7.767835229E-1,2.577577790E0,4.351380944E-1,2.727021281E0
1.209796379E1,9.091248704E-1,9.215919381E-1,8.482545807E0,8.580758888E0
1.210790979E1,2.561259381E0,-1.592139227E0,1.867472508E1,1.891666762E1
1.211785579E1,3.447004671E0,-4.775554632E0,2.828864222E1,2.889524254E1
1.212780179E1,2.821613089E0,-8.618467843E0,3.554102331E1,3.667974682E1
1.213774779E1,8.405394427E-1,-1.255798670E1,4.104824442E1,4.293446060E1
1.214769379E1,-3.082634916E-1,-1.519028157E1,4.529796802E1,4.777808689E1
1.215763979E1,-1.735768624E-1,-1.555584949E1,4.688100108E1,4.939476536E1
1.216758579E1,8.846473293E-1,-1.393141463E1,4.414299791E1,4.629763686E1
1.217753179E1,1.682027596E0,-1.125584335E1,3.850915885E1,4.015567883E1
1.218747779E1,1.737363306E0,-7.913853214E0,3.246067268E1,3.345658044E1
1.219742379E1,2.916205251E0,-4.676492859E0,2.590581296E1,2.648556180E1
1.220736979E1,4.225990328E0,-2.156607207E0,1.918387723E1,1.976185959E1
1.221731479E1,4.306126419E0,-3.926569033E-1,1.257895950E1,1.330139565E1
1.222726079E1,3.969089400E0,5.761330287E-1,6.055895762E0,7.263571671E0
1.223720679E1,3.565177484E0,8.349572521E-1,3.345577991E-1,3.676897201E0
1.224715279E1,3.468451965E0,7.917960298E-1,-4.319738737E0,5.596181086E0
1.225709879E1,3.587914967E0,7.037169354E-1,-8.385396658E0,9.147853761E0
1.226704479E1,3.335293616E0,6.917467348E-1,-1.237213646E1,1.283247668E1
1.227699079E1,2.961980179E0,1.156837411E0,-1.635584800E1,1.666209360E1
1.228693679E1,2.858751972E0,2.108117124E0,-2.018759156E1,2.049769435E1
1.229688279E1,2.816960168E0,3.613006538E0,-2.368934868E1,2.412828883E1
1.230682879E1,2.396608512E0,5.044976496E0,-2.687776053E1,2.745194950E1
1.231677479E1,1.609097176E0,5.584597317E0,-2.904788680E1,2.962358264E1
1.232672079E1,4.997533357E-1,4.905443219E0,-2.923071286E1,2.964367893E1
1.233666679E1,-7.977494455E-1,3.186793049E0,-2.697542307E1,2.717472178E1
1.234661279E1,-1.989622861E0,1.071400965E0,-2.310768872E1,2.321791931E1
1.235655879E1,-3.601796257E0,-1.245408987E0,-1.878480243E1,1.916749285E1
1.236650479E1,-4.575274632E0,-2.637534262E0,-1.472169623E1,1.564027061E1
1.237644979E1,-3.909783138E0,-2.819479733E0,-1.238084063E1,1.328612377E1
1.238639579E1,-1.764543504E0,-2.123782108E0,-1.178282951E1,1.210203022E1
1.239634179E1,-9.195265554E-1,-1.150090235E0,-1.155869638E1,1.165211134E1
1.240628779E1,-1.058145181E0,-4.771702194E-1,-1.174109910E1,1.179833763E1
1.241623379E1,-1.094019896E0,1.811035446E-1,-1.178456146E1,1.183661973E1
1.242617979E1,-8.073246266E-1,4.621323502E-1,-1.113016798E1,1.116897393E1
1.243612579E1,-6.031303543E-1,4.621026756E-1,-1.021008521E1,1.023831749E1
1.244607179E1,-4.356582773E-1,5.049902482E-1,-9.686609132E0,9.709542201E0
1.245601779E1,2.381725886E-1,1.054155041E0,-9.741143773E0,9.800910725E0
1.246596379E1,6.831217993E-1,1.433605569E0,-1.035963359E1,1.048064352E1
1.247590979E1,7.925444003E-1,1.761490526E0,-1.058607988E1,1.076085790E1
1.248585579E1,1.017816935E0,1.860074290E0,-9.962305934E0,1.018544880E1
1.249580179E1,1.346135901E0,1.675483100E0,-8.878518666E0,9.134955894E0
1.250574779E1,1.255878426E0,1.476576319E0,-7.845668832E0,8.081585715E0
1.251569379E1,1.088669986E0,1.379690002E0,-6.758529355E0,6.983299069E0
1.252563996E1,1.163865179E0,1.295212792E0,-5.348129484E0,5.624468625E0
1.253558596E1,8.197772956E-1,9.830450052E-1,-3.699594739E0,3.914768643E0
1.254553096E1,5.952279885E-1,8.292715658E-1,-2.164784830E0,2.393382763E0
1.255547696E1,3.892264880E-1,6.154776272E-1,-1.724957854E-1,7.483747487E-1
1.256542296E1,2.742808995E-1,5.842083259E-1,1.606486248E0,1.731279135E0
1.257536896E1,-2.820625202E-1,5.389874218E-1,2.433243949E0,2.508135328E0
1.258531496E1,-6.980182390E-1,6.752595600E-1,4.546954520E0,4.649516141E0
1.259526096E1,-3.866276930E-1,3.732403466E-1,9.221187723E0,9.236833459E0
1.260520696E1,6.914920154E-1,-8.077638987E-1,1.545770281E1,1.549423182E1
1.261515296E1,2.301487616E0,-2.297699936E0,2.222957960E1,2.246620750E1
1.262509896E1,3.425651516E0,-4.001622139E0,2.743561297E1,2.793673079E1
1.263504496E1,3.054056284E0,-5.425133221E0,2.992294367E1,3.056373485E1
1.264499096E1,1.401053535E0,-7.070926791E0,3.135564482E1,3.217355154E1
1.265493696E1,-1.007124424E-2,-9.363469191E0,3.323916630E1,3.453283702E1
1.266488296E1,-8.527554457E-1,-1.190041702E1,3.602107972E1,3.794555707E1
1.267482896E1,-1.020397530E0,-1.378966877E1,3.843048808E1,4.084236268E1
1.268477496E1,-5.815640688E-2,-1.463325826E1,3.844561131E1,4.113636662E1
1.269472096E1,1.697736287E0,-1.401261258E1,3.591666716E1,3.859070613E1
1.270466696E1,3.486695863E0,-1.228283662E1,3.216243194E1,3.460414934E1
1.271461196E1,4.995096238E0,-9.944659038E0,2.748742632E1,2.965477762E1
1.272455796E1,6.071065779E0,-7.380300048E0,2.125327936E1,2.330297303E1
1.273450396E1,6.422855322E0,-5.068656549E0,1.376807383E1,1.601574871E1
1.274444996E1,6.049466164E0,-3.265781624E0,6.352554249E0,9.360358752E0
1.275439596E1,5.134123730E0,-2.647065516E0,1.249228388E-1,5.777697469E0
1.276434196E1,4.322559434E0,-2.643062805E0,-4.753219146E0,6.947185998E0
1.277428796E1,3.886013914E0,-2.815872293E0,-9.456399574E0,1.060442048E1
1.278423396E1,3.188522656E0,-2.455005532E0,-1.436760522E1,1.492051637E1
1.279417996E1,2.453639915E0,-1.790836240E0,-1.920301049E1,1.944178632E1
1.280412596E1,2.423181768E0,-6.145588835E-1,-2.341921901E1,2.355226766E1
1.281407196E1,2.742555518E0,1.250956240E0,-2.721305391E1,2.737949608E1
1.282401796E1,2.935839617E0,3.247609647E0,-3.131823433E1,3.162274378E1
1.283396396E1,2.635409384E0,4.368567080E0,-3.495700341E1,3.532735270E1
1.284390996E1,1.972473562E0,3.862964190E0,-3.525689307E1,3.552269209E1
1.285385596E1,6.111245213E-1,2.416536700E0,-3.167888124E1,3.177679404E1
1.286380196E1,-1.248288448E0,-7.982439738E-2,-2.690230948E1,2.693137300E1
1.287374796E1,-3.133951761E0,-2.128446431E0,-2.311203905E1,2.342046726E1
1.288369296E1,-5.531456652E0,-3.613227563E0,-1.928063696E1,2.038125089E1
1.289363896E1,-6.063935684E0,-3.807736069E0,-1.511214523E1,1.672265240E1
1.290358496E1,-4.972507859E0,-3.217978589E0,-1.178050232E1,1.318565340E1
1.291353096E1,-3.088420370E0,-2.312552741E0,-9.673082183E0,1.041416149E1
1.292347696E1,-1.737810911E0,-1.249509054E0,-8.841070173E0,9.096470824E0
1.293342296E1,-9.436698550E-1,-2.310485604E-1,-8.633717966E0,8.688209375E0
1.294336896E1,-1.268030841E0,3.064533032E-2,-7.358594599E0,7.467111612E0
1.295331496E1,-1.152829144E0,-1.123945215E-1,-4.868783516E0,5.004667870E0
1.296326096E1,-5.659521492E-1,-1.136647560E-1,-2.040353158E0,2.120439228E0
1.297320696E1,-1.007254671E0,-4.225059159E-1,5.988127702E-1,1.245652421E0
1.298315296E1,-1.445699658E0,-2.274619514E-1,2.632260366E0,3.011740539E0
1.299309896E1,-6.519790171E-1,1.151195432E-1,3.127982631E0,3.197280796E0
1.300304496E1,-3.348013356E-2,6.655971824E-1,2.401773065E0,2.492519686E0
1.301299096E1,9.790047254E-1,1.496326459E0,6.475867349E-1,1.901791709E0
1.302293696E1,1.486000569E0,2.225440045E0,-2.046965774E0,3.369102249E0
1.303288296E1,-2.447226396E-1,2.194844489E0,-5.364007598E0,5.800845543E0
1.304282796E1,-2.170847077E0,1.994448568E0,-7.886368377E0,8.419335383E0
1.305277396E1,-2.475936225E0,1.840979768E0,-8.777906796E0,9.304359968E0
1.306271996E1,-2.107943462E0,1.336608448E0,-8.727613724E0,9.077510072E0
1.307266596E1,-2.034014630E0,9.555389719E-1,-8.458449431E0,8.751893339E0
1.308261196E1,-2.157981887E0,6.308850405E-1,-8.374036102E0,8.670604500E0
1.309255796E1,-1.944946771E0,9.538927614E-1,-8.631608291E0,8.899291602E0
1.310250396E1,-1.955355984E0,1.958114993E0,-9.189228011E0,9.596850671E0
1.311244996E1,-1.844709707E0,3.188755082E0,-9.278544230E0,9.983110533E0
1.312239596E1,-1.439867791E0,3.824952611E0,-7.618852998E0,8.645831524E0
1.313234196E1,-6.749039762E-1,3.151158655E0,-1.576967164E0,3.587773918E0
1.314228796E1,8.874620327E-1,8.788470376E-1,8.360625513E0,8.453402862E0
1.315223396E1,1.200857954E0,-2.485860119E0,1.896430727E1,1.916419867E1
1.316217996E1,-8.715812874E-1,-5.836657335E0,2.789180806E1,2.850928234E1
1.317212596E1,-2.902494115E0,-7.551762630E0,3.461252757E1,3.554547307E1
1.318207196E1,-3.138621055E0,-1.018762254E1,3.854152436E1,3.998859457E1
1.319201796E1,-2.583468567E0,-1.268617638E1,4.301697855E1,4.492297657E1
1.320196296E1,8.363462582E-2,-1.497970813E1,4.782125207E1,5.011258125E1
1.321190896E1,3.046561323E0,-1.602198952E1,5.071024438E1,5.326832613E1
1.322185496E1,4.883158311E0,-1.436854312E1,4.897095968E1,5.126846163E1
1.323180096E1,6.061706141E0,-1.201149657E1,4.106479906E1,4.321270708E1
1.324174696E1,6.378526411E0,-8.252839109E0,3.221264315E1,3.385925769E1
1.325169296E1,6.721576706E0,-5.212377602E0,2.372525293E1,2.520389057E1
1.326163896E1,5.866797978E0,-2.876994408E0,1.495221218E1,1.631763048E1
1.327158496E1,3.761984530E0,-1.561522914E0,6.466736337E0,7.642614753E0
1.328153096E1,9.512094010E-1,-1.313640146E0,-8.563878822E-1,1.834080141E0
1.329147696E1,-1.131586064E0,-1.227273263E0,-7.716062374E0,7.894574417E0
1.330142296E1,-1.436253920E0,-5.810349689E-1,-1.400808566E1,1.409350527E1
1.331136896E1,-1.794126029E0,2.050050618E-1,-1.935995093E1,1.944398661E1
1.332131496E1,-1.948630955E0,1.240247211E0,-2.363732250E1,2.374991349E1
1.333126096E1,-1.201782326E0,2.893068988E0,-2.657054315E1,2.675458637E1
1.334120696E1,1.989051734E-1,4.903563339E0,-2.846105322E1,2.888106727E1
1.335115196E1,7.885555029E-1,6.843232706E0,-3.003033363E1,3.081026763E1
1.336109796E1,1.927177960E-1,7.527733498E0,-3.122795332E1,3.212302882E1
1.337104396E1,-1.454529538E0,6.059229845E0,-2.865456097E1,2.932428664E1
1.338098996E1,-2.764068886E0,2.681642441E0,-2.164123042E1,2.198122238E1
1.339093596E1,-3.749864714E0,-9.905723452E-1,-1.167169733E1,1.229923727E1
1.340088196E1,-3.628092062E0,-3.310419268E0,-2.035736781E0,5.316592140E0
1.341082796E1,-3.035896879E0,-5.126307757E0,2.790762595E0,6.579062010E0
1.342077396E1,-3.142297785E0,-4.791768669E0,3.386841792E0,6.656258684E0
1.343071996E1,-3.120666887E0,-3.642273315E0,4.958134818E-1,4.821882177E0
1.344066596E1,-2.161561260E0,-2.009873669E0,-2.760226681E0,4.041137287E0
1.345061196E1,-1.236463039E0,-6.402536687E-1,-4.673450845E0,4.876464745E0
1.346055796E1,-8.622913773E-1,2.923195598E-1,-5.984948571E0,6.053809259E0
1.347050396E1,-6.285797757E-1,9.064070114E-1,-6.928127260E0,7.015385488E0
1.348044996E1,-2.924856207E-1,1.308141571E0,-7.491947368E0,7.610917000E0
1.349039496E1,-3.303349400E-1,1.372242403E0,-7.933206328E0,8.057787105E0
1.350034096E1,-7.233021842E-1,1.450095448E0,-8.521057323E0,8.673774309E0
1.351028696E1,-9.196008150E-1,1.549538314E0,-9.243278503E0,9.417267764E0
1.352023296E1,-9.306073214E-1,1.744278954E0,-9.776168010E0,9.974066373E0
1.353017979E1,-9.280890718E-1,1.854023737E0,-1.012851070E1,1.033854353E1
1.354012579E1,-1.109864096E0,2.150064319E0,-1.080164801E1,1.106933488E1
1.355007179E1,-1.279369615E0,2.363307303E0,-1.208426751E1,1.237948017E1
1.356001779E1,-1.364759283E0,2.300400618E0,-1.347373084E1,1.373666021E1
1.356996379E1,-1.766090238E0,2.319184945E0,-1.422010336E1,1.451582010E1
1.357990979E1,-2.178255938E0,2.056707235E0,-1.447726624E1,1.478398057E1
1.358985579E1,-3.006616946E0,1.686256156E0,-1.430948156E1,1.471884737E1
1.359980179E1,-3.904118648E0,9.901473257E-1,-1.337567771E1,1.396894013E1
1.360974779E1,-4.608071957E0,2.293494326E-1,-1.188796128E1,1.275188424E1
1.361969379E1,-4.676722362E0,-3.116798370E-1,-1.005044920E1,1.108965308E1
1.362963979E1,-3.831902904E0,-5.896164156E-1,-7.812624462E0,8.721710175E0
1.363958579E1,-2.914280933E0,-6.964796904E-1,-5.393916691E0,6.170288047E0
1.364953079E1,-1.734205664E0,-5.818719978E-1,-2.828278915E0,3.368264528E0
1.365947679E1,-6.837090790E-1,-2.681825459E-3,-6.380861789E-1,9.352108151E-1
1.366942279E1,-3.116691658E-1,1.168207979E0,5.891192561E-1,1.344956895E0
1.367936879E1,-6.800652404E-1,2.776927498E0,2.209923581E0,3.613526988E0
1.368931479E1,-5.022129670E-1,3.346624058E0,6.684884259E0,7.492648931E0
1.369926079E1,6.562189794E-1,1.482347667E0,1.606883858E1,1.615040406E1
1.370920679E1,1.769524747E0,-1.625046480E0,2.691094933E1,2.701797897E1
1.371915279E1,2.414502161E0,-4.131833492E0,3.494541189E1,3.527157044E1
1.372909879E1,3.130239657E0,-6.591441659E0,3.740258031E1,3.810772254E1
1.373904479E1,3.623491473E0,-8.415590510E0,3.759334923E1,3.869382070E1
1.374899079E1,4.637423810E0,-9.458791085E0,3.858116381E1,3.999350734E1
1.375893679E1,5.735463667E0,-1.018833590E1,3.935660284E1,4.105654538E1
1.376888279E1,5.278385065E0,-1.017267355E1,3.955514153E1,4.118196035E1
1.377882879E1,4.776764714E0,-8.946354554E0,3.841354986E1,3.972978170E1
1.378877379E1,5.510580338E0,-6.173349953E0,3.500675620E1,3.597151269E1
1.379871979E1,7.162481325E0,-2.596649946E0,2.986769917E1,3.082406825E1
1.380866579E1,8.436807716E0,1.000588699E-1,2.378964948E1,2.524157599E1
1.381861179E1,8.925463622E0,1.590302470E0,1.670019169E1,1.900235158E1
1.382855779E1,8.076360785E0,2.022478804E0,9.159624143E0,1.237807491E1
1.383850379E1,5.951445780E0,1.569904605E0,1.487581948E0,6.332235576E0
1.384844979E1,3.316164157E0,8.889065874E-1,-5.773839528E0,6.717463996E0
1.385839579E1,8.495562147E-1,1.007521486E-1,-1.244482554E1,1.247419655E1
1.386834179E1,-1.028988625E0,-5.027038042E-1,-1.818589903E1,1.822192229E1
1.387828779E1,-1.914471668E0,-6.423786199E-1,-2.245280291E1,2.254342943E1
1.388823379E1,-1.939494535E0,-1.401349550E-1,-2.576675682E1,2.584002774E1
1.389817979E1,-1.969493821E0,7.697408440E-1,-2.862509568E1,2.870309234E1
1.390812579E1,-2.537977522E0,1.400076612E0,-3.089057834E1,3.102626910E1
1.391807179E1,-2.899645936E0,1.064348492E0,-3.138825825E1,3.153987223E1
1.392801779E1,-3.289763394E0,-2.610661190E-1,-2.865626602E1,2.884566312E1
1.393796279E1,-4.073934362E0,-2.010542152E0,-2.432383005E1,2.474445250E1
1.394790879E1,-5.335118845E0,-3.995411519E0,-1.992248114E1,2.100790473E1
1.395785479E1,-6.101428031E0,-4.921858692E0,-1.565694785E1,1.750977250E1
1.396780079E1,-5.292121344E0,-5.012144380E0,-1.233865180E1,1.433075252E1
1.397774679E1,-3.300752651E0,-4.611323886E0,-9.443600603E0,1.101548312E1
1.398769279E1,-1.777675911E0,-3.901108794E0,-6.455367596E0,7.749229140E0
1.399763879E1,-1.048640240E0,-3.122712536E0,-4.286269274E0,5.405837976E0
1.400758479E1,-7.072746737E-1,-2.150059787E0,-3.067629426E0,3.812262431E0
1.401753079E1,-4.281109107E-1,-1.032135816E0,-2.288582665E0,2.546800720E0
1.402747679E1,-7.605034858E-3,1.679537413E-1,-1.856490970E0,1.864088253E0
1.403742279E1,1.563299882E-1,1.025426648E0,-1.898597939E0,2.163472442E0
1.404736879E1,4.581629679E-2,1.684552132E0,-2.148057116E0,2.730194936E0
1.405731479E1,-7.536037713E-3,2.258744323E0,-2.464459895E0,3.342984487E0
1.406726079E1,4.804569393E-2,2.621111772E0,-3.009005241E0,3.990820449E0
1.407720579E1,-4.788723439E-3,2.891138238E0,-3.635634971E0,4.645055961E0
1.408715179E1,-5.077530576E-1,3.099082183E0,-4.461221475E0,5.455696160E0
1.409709779E1,-6.943096425E-1,3.251894487E0,-5.340549154E0,6.291132561E0
1.410704379E1,-6.425842957E-1,3.351088115E0,-6.071284465E0,6.964423966E0
1.411698979E1,-8.422729960E-1,3.010448627E0,-6.945021036E0,7.616136942E0
1.412693579E1,-1.820403563E0,2.515972988E0,-7.759434096E0,8.357799153E0
1.413688179E1,-2.787644860E0,2.129281414E0,-8.417518921E0,9.119179130E0
1.414682779E1,-3.002069859E0,1.985794250E0,-8.980046795E0,9.674556459E0
1.415677379E1,-3.325721431E0,1.630523859E0,-9.372976179E0,1.007827929E1
1.416671979E1,-3.424041778E0,1.282939194E0,-9.190617310E0,9.891281090E0
1.417666579E1,-2.701767388E0,1.148422098E0,-8.150693514E0,8.663268731E0
1.418661179E1,-2.048030113E0,1.010309841E0,-6.667273030E0,7.047530275E0
1.419655779E1,-1.397642708E0,1.346672675E0,-5.522298743E0,5.853436242E0
1.420650379E1,-1.465929708E0,2.433246581E0,-4.659051492E0,5.456775571E0
1.421644979E1,-2.486399233E0,3.862853386E0,-3.430853199E0,5.733635068E0
1.422639479E1,-2.932918348E0,5.045644248E0,-1.222389668E-1,5.837420515E0
1.423634079E1,-2.845858862E0,5.499561260E0,6.381616665E0,8.892081756E0
1.424628679E1,-2.721060276E0,4.518576229E0,1.440717918E1,1.534237635E1
1.425623279E1,-1.942952432E0,2.326064194E0,2.155581196E1,2.176783563E1
1.426617879E1,-1.341193688E0,-1.435868880E0,2.750061062E1,2.757071099E1
1.427612479E1,-5.132739986E-1,-6.753175060E0,3.432387392E1,3.498567056E1
1.428607079E1,3.114000111E-1,-1.227495808E1,4.214787648E1,4.390005760E1
1.429601679E1,2.227281552E-1,-1.645171076E1,4.765329197E1,5.041373454E1
1.430596279E1,-1.936299762E0,-1.852354883E1,4.857870506E1,5.202654807E1
1.431590879E1,-3.099835305E0,-1.719314355E1,4.464270096E1,4.793937748E1
1.432585479E1,-3.007898546E-1,-1.251365312E1,3.815254653E1,4.015344064E1
1.433580079E1,4.257349823E0,-6.423478636E0,3.072024193E1,3.167205976E1
1.434574679E1,8.473771475E0,-1.429735151E0,2.109806385E1,2.278107205E1
1.435569279E1,1.086203338E1,2.245433429E0,1.048208598E1,1.526105720E1
1.436563879E1,1.039659735E1,4.089882643E0,6.825589317E-1,1.119295596E1
1.437558479E1,7.442402741E0,3.801066150E0,-6.285221221E0,1.045664708E1
1.438553079E1,3.823341703E0,2.288399501E0,-1.057549642E1,1.147588074E1
1.439547679E1,1.237477823E0,8.453701200E-1,-1.415982909E1,1.423891716E1
1.440542179E1,-5.279768955E-2,-3.401407572E-1,-1.769319977E1,1.769654773E1
1.441536779E1,-5.879387398E-1,-6.977694400E-1,-2.094073867E1,2.096060805E1
1.442531379E1,-2.618774202E-1,-3.455732956E-1,-2.390243993E1,2.390637228E1
1.443525979E1,1.083302388E0,8.915190502E-1,-2.664966767E1,2.668657222E1
1.444520579E1,2.553604791E0,2.194856768E0,-2.912747910E1,2.932146538E1
1.445515179E1,3.486578042E0,2.950023792E0,-3.061283793E1,3.095165122E1
1.446509779E1,3.496799852E0,2.488634623E0,-3.029200823E1,3.059455301E1
1.447504379E1,2.431111762E0,1.162376186E0,-2.742893779E1,2.756098785E1
1.448498979E1,1.184032226E0,-5.287535519E-1,-2.317492001E1,2.321117037E1
1.449493579E1,3.946247106E-1,-1.701699238E0,-1.906323280E1,1.914310199E1
1.450488179E1,1.117235352E-1,-2.226920560E0,-1.537879229E1,1.553959168E1
1.451482779E1,5.410298908E-1,-2.257120844E0,-1.209697702E1,1.231763617E1
1.452477317E1,1.938944750E-1,-2.245010675E0,-9.168699022E0,9.441541704E0
1.453471917E1,-1.138309485E0,-2.062222621E0,-6.831562833E0,7.226255002E0
1.454466517E1,-1.794600239E0,-1.648813803E0,-4.847041814E0,5.425218089E0
1.455461117E1,-1.312219858E0,-7.679117619E-1,-2.780239361E0,3.168807399E0
1.456455717E1,-1.294015429E0,1.525503480E-1,-7.994067657E-1,1.528659123E0
1.457450217E1,-2.194900330E0,8.804140913E-1,6.346515244E-1,2.448570805E0
1.458444817E1,-2.854484089E0,1.633091371E0,1.373185852E0,3.563805021E0
1.459439417E1,-2.865592045E0,2.536013150E0,1.680503812E0,4.179362813E0
1.460434017E1,-2.917346920E0,3.294535891E0,1.475783436E0,4.641423978E0
1.461428617E1,-2.838288471E0,3.913339707E0,9.775696725E-1,4.932114311E0
1.462423217E1,-2.176680990E0,4.441381288E0,5.116734695E-1,4.972486060E0
1.463417817E1,-1.303082998E0,4.954320095E0,-3.132347578E-1,5.132390176E0
1.464412417E1,-4.603029026E-1,5.458828386E0,-1.858442186E0,5.784850341E0
1.465407017E1,2.247608301E-1,5.606141968E0,-3.137389632E0,6.428262510E0
1.466401617E1,3.184925741E-1,5.056564507E0,-3.226790636E0,6.006867732E0
1.467396217E1,4.672895944E-1,4.306207695E0,-2.919197856E0,5.223361025E0
1.468390817E1,5.940759408E-1,3.881636104E0,-3.208505223E0,5.070949697E0
1.469385417E1,-3.237106293E-1,3.508681686E0,-4.174110323E0,5.462493271E0
1.470380017E1,-1.441801027E0,3.021658324E0,-5.316421788E0,6.282797932E0
1.471374617E1,-1.615014997E0,2.707368728E0,-5.195397872E0,6.077028708E0
1.472369217E1,-7.440245703E-1,2.338778965E0,-3.725232441E0,4.461033103E0
1.473363817E1,3.728301644E-1,2.103395790E0,-1.342269868E0,2.522888143E0
1.474358417E1,9.459128469E-1,1.417276781E0,2.759094075E0,3.242842072E0
1.475353017E1,1.231114737E0,3.869924131E-1,8.289350293E0,8.389203473E0
1.476347517E1,1.496285090E0,-1.226210824E0,1.392734263E1,1.406105738E1
1.477342117E1,2.394764446E0,-3.247682152E0,1.966867924E1,2.007832859E1
1.478336717E1,2.516554201E0,-5.628538558E0,2.473590205E1,2.549271154E1
1.479331317E1,1.378566459E0,-7.560817629E0,2.754775088E1,2.859973753E1
1.480325917E1,2.667799450E-1,-8.904783189E0,2.867716631E1,3.002908927E1
1.481320517E1,4.472893395E-2,-1.089926845E1,3.014002272E1,3.205022657E1
1.482315117E1,1.324109440E0,-1.327363795E1,3.221854650E1,3.487086848E1
1.483309717E1,2.802378966E0,-1.477981755E1,3.371265511E1,3.691665545E1
1.484304317E1,4.152902471E0,-1.495638943E1,3.346117806E1,3.688618469E1
1.485298917E1,5.183857223E0,-1.353346717E1,3.068771971E1,3.393763767E1
1.486293517E1,6.178144670E0,-1.092987394E1,2.663535135E1,2.944611277E1
1.487288117E1,7.165487378E0,-7.929513811E0,2.228358215E1,2.471395217E1
1.488282717E1,8.042400742E0,-5.243208801E0,1.740374856E1,1.987616442E1
1.489277317E1,7.764349265E0,-3.184842710E0,1.157292266E1,1.429548465E1
1.490271917E1,6.621430859E0,-1.583868048E0,5.071610563E0,8.489594709E0
1.491266517E1,5.235758863E0,-6.509566315E-1,-1.185027130E0,5.407513727E0
1.492261117E1,4.257815846E0,-1.133244480E-1,-6.408085256E0,7.694504198E0
1.493255717E1,3.679772386E0,3.395660855E-1,-1.091336492E1,1.152204685E1
1.494250317E1,2.607265858E0,6.933806661E-1,-1.492155640E1,1.516349094E1
1.495244817E1,1.469544750E0,1.350593380E0,-1.846546727E1,1.857302199E1
1.496239417E1,9.156289476E-1,2.628517563E0,-2.188847643E1,2.206474295E1
1.497234017E1,4.842680449E-1,4.422954957E0,-2.498659791E1,2.537965960E1
1.498228617E1,-1.972714613E-1,5.605709859E0,-2.787399276E1,2.843276933E1
1.499223217E1,-1.417762831E0,5.639096875E0,-2.959330104E1,3.015912683E1
1.500217817E1,-2.899172604E0,4.752592032E0,-2.851808930E1,2.905638914E1
1.501212417E1,-4.610444173E0,2.687430600E0,-2.513703040E1,2.569725231E1
1.502207017E1,-6.258596510E0,4.705781416E-1,-2.085510970E1,2.177905128E1
1.503201617E1,-6.934559782E0,-7.696246306E-1,-1.676586177E1,1.815969610E1
1.504196217E1,-6.053685515E0,-1.314029278E0,-1.356593559E1,1.491336279E1
1.505190817E1,-4.212863914E0,-9.133751383E-1,-1.167655403E1,1.244686268E1
1.506185417E1,-3.459448130E0,-1.233896989E-1,-1.106149477E1,1.159049925E1
1.507180017E1,-3.778597639E0,4.722822395E-1,-1.122205580E1,1.185054375E1
1.508174617E1,-3.459788731E0,9.099549557E-1,-1.078485013E1,1.136270868E1
1.509169217E1,-2.314180021E0,1.189006306E0,-9.398196389E0,9.751679883E0
1.510163817E1,-1.469274023E0,1.338574136E0,-7.839552060E0,8.087590702E0
1.511158417E1,-1.081077669E0,1.275794920E0,-6.593112209E0,6.801875492E0
1.512153017E1,-7.176770166E-1,1.141783023E0,-5.132253206E0,5.306482049E0
1.513147617E1,-4.601701708E-1,1.049391169E0,-3.742760054E0,3.914234438E0
1.514142117E1,-5.161196923E-1,9.797009826E-1,-2.886869186E0,3.091958481E0
1.515136717E1,-3.883276248E-1,1.054436585E0,-2.526206492E0,2.764842508E0
1.516131317E1,8.998484820E-2,1.301832133E0,-2.545598783E0,2.860583391E0
1.517125917E1,3.018399963E-1,1.418434968E0,-2.797344806E0,3.150905125E0
1.518120517E1,6.256576297E-1,1.577927423E0,-3.292182972E0,3.704020943E0
1.519115117E1,7.775557208E-1,1.622841495E0,-4.153877202E0,4.526908794E0
1.520109717E1,4.904572861E-1,1.403604529E0,-4.598979537E0,4.833349440E0
1.521104317E1,6.507905705E-1,1.145462822E0,-4.447619097E0,4.638634398E0
1.522098917E1,1.106872368E0,8.370556717E-1,-4.149902265E0,4.375787637E0
1.523093517E1,1.623479426E0,4.919100268E-1,-3.626103424E0,4.003284522E0
1.524088117E1,2.184596805E0,4.797538117E-2,-2.856490561E0,3.596429224E0
1.525082717E1,2.602779874E0,-1.153613256E-1,-1.719308859E0,3.121505127E0
1.526077317E1,2.724148483E0,4.809115604E-2,-2.683638096E-1,2.737757632E0
1.527071917E1,2.841863751E0,4.236907080E-2,2.508319860E0,3.790732546E0
1.528066517E1,3.926919281E0,-5.291518204E-1,6.742210945E0,7.820364769E0
1.529061117E1,5.313994024E0,-2.437454822E0,1.348509432E1,1.469787357E1
1.530055717E1,4.495904235E0,-5.502293664E0,2.116379123E1,2.232474971E1
1.531050317E1,1.075705393E0,-7.451987497E0,2.471192847E1,2.583347960E1
1.532044817E1,-2.946013480E0,-6.931306976E0,2.244548687E1,2.367534356E1
1.533039417E1,-4.716962315E0,-4.736494939E0,1.876833316E1,1.992321378E1
1.534034017E1,-3.744413062E0,-3.484294119E0,1.795350495E1,1.866786744E1
1.535028617E1,-9.090810893E-1,-4.226790227E0,2.080534522E1,2.124981350E1
1.536023217E1,2.102557446E0,-5.839900201E0,2.434653596E1,2.512526608E1
1.537017817E1,4.390480691E0,-7.441641433E0,2.748907991E1,2.881499371E1
1.538012417E1,4.815601335E0,-8.577392907E0,2.979647775E1,3.137820536E1
1.539007017E1,3.625033384E0,-9.623793079E0,3.062681278E1,3.230727350E1
1.540001617E1,2.016363201E0,-9.640075820E0,3.056828683E1,3.211568062E1
1.540996217E1,1.897953283E0,-8.320237041E0,2.782145670E1,2.910089387E1
1.541990817E1,1.848572378E0,-6.241304539E0,2.177795236E1,2.272994305E1
1.542985417E1,1.369214277E0,-4.179732420E0,1.398613989E1,1.466141262E1
1.543980017E1,1.388098590E0,-2.306959002E0,6.459920238E0,6.998531775E0
1.544974617E1,1.639106694E0,-1.154078329E0,-1.798714632E-1,2.012690063E0
1.545969217E1,1.423495003E0,-7.503296229E-1,-5.247122927E0,5.488317736E0
1.546963817E1,8.844673081E-1,-4.084204850E-1,-9.097696282E0,9.149708594E0
1.547958417E1,5.910052025E-1,-2.405481296E-1,-1.252955052E1,1.254578762E1
1.548952917E1,2.206241443E-1,-2.393035863E-1,-1.535174775E1,1.535519782E1
1.549947517E1,1.038659920E-1,6.920246968E-1,-1.726498244E1,1.727915811E1
1.550942117E1,6.828468340E-1,2.368564973E0,-1.943627113E1,1.959196303E1
1.551936717E1,1.342430082E0,4.256371876E0,-2.214297064E1,2.258827061E1
1.552931354E1,1.271653337E0,6.015217853E0,-2.515186596E1,2.589239867E1
1.553925954E1,9.510288683E-1,6.978396358E0,-2.782970829E1,2.870705724E1
1.554920554E1,8.041669840E-1,6.874329953E0,-2.876081424E1,2.958187844E1
1.555915154E1,-3.120805174E-2,5.572870141E0,-2.666461783E1,2.724077274E1
1.556909754E1,-1.366664598E0,3.586357561E0,-2.211581617E1,2.244635956E1
1.557904354E1,-2.588182885E0,1.419073923E0,-1.719046435E1,1.744203332E1
1.558898954E1,-4.561916376E0,-3.764668402E-1,-1.219569205E1,1.302642364E1
1.559893554E1,-5.986741912E0,-1.441005075E0,-7.902963944E0,1.001870318E1
1.560888154E1,-6.146052811E0,-1.706698022E0,-5.088019019E0,8.159333357E0
1.561882754E1,-5.763245543E0,-1.317488637E0,-3.983817367E0,7.128925326E0
1.562877354E1,-5.455476177E0,-5.759033793E-1,-4.367530954E0,7.012076130E0
1.563871954E1,-5.199127811E0,1.955871709E-1,-5.322501723E0,7.442997308E0
1.564866554E1,-4.659614578E0,6.224195878E-1,-5.926895075E0,7.564885947E0
1.565861054E1,-3.667554336E0,7.399727422E-1,-5.547866278E0,6.691586860E0
1.566855654E1,-2.849523019E0,6.291304372E-1,-4.632746038E0,5.475209804E0
1.567850254E1,-2.790981866E0,1.230483676E-1,-4.042633924E0,4.914021746E0
1.568844854E1,-2.749839979E0,-1.758170038E-1,-3.935579592E0,4.804302057E0
1.569839454E1,-2.660696545E0,-3.610759453E-1,-3.939291404E0,4.767357624E0
1.570834054E1,-2.249733325E0,-5.126581407E-1,-3.696195753E0,4.357290608E0
1.571828654E1,-1.825704064E0,-6.683478588E-1,-3.576429573E0,4.070716483E0
1.572823254E1,-1.386557849E0,-5.464277114E-1,-3.898764353E0,4.173905772E0
1.573817854E1,-9.928740285E-1,-4.213184926E-1,-4.540155378E0,4.666510363E0
1.574812454E1,-5.304557495E-1,-1.513263796E-1,-4.943598640E0,4.974278891E0
1.575807054E1,6.214433952E-1,1.677478462E-1,-5.332971162E0,5.371676894E0
1.576801654E1,1.437760893E0,1.509711613E-1,-5.334137097E0,5.526569211E0
1.577796254E1,2.414173256E0,-1.925486653E-1,-4.481792564E0,5.094288183E0
1.578790854E1,3.683079863E0,-7.160867932E-1,-3.190364236E0,4.925066653E0
1.579785454E1,4.712400318E0,-6.638664065E-1,-1.624847090E0,5.028674122E0
1.580780054E1,4.997035759E0,-3.933359843E-1,7.660437226E-2,5.013077678E0
1.581774654E1,4.845608369E0,-3.059808482E-1,2.584103867E0,5.500103412E0
1.582769154E1,4.299502985E0,-5.341525054E-1,6.436754154E0,7.759049482E0
1.583763754E1,3.918251368E0,-1.603933061E0,1.016250992E1,1.100917358E1
1.584758354E1,3.032921230E0,-1.647733676E0,1.357992446E1,1.401170889E1
1.585752954E1,1.817164936E0,2.490855396E-1,1.470653791E1,1.482047197E1
1.586747554E1,7.449398057E-1,3.127200566E0,1.267129522E1,1.307272126E1
1.587742154E1,1.063994443E-1,5.498933269E0,1.073545753E1,1.206232301E1
1.588736754E1,-3.388354028E-1,5.661134446E0,1.122931454E1,1.258017319E1
1.589731354E1,-1.361557786E0,4.408745638E0,1.307652597E1,1.386673751E1
1.590725954E1,-1.484759205E0,2.069518484E0,1.405970722E1,1.428855429E1
1.591720554E1,-1.353828498E-1,-2.750627891E0,1.806272743E1,1.827146421E1
1.592715154E1,-3.969081214E-1,-8.208438277E0,2.726292832E1,2.847460721E1
1.593709754E1,-1.422273373E0,-1.155078159E1,3.496709571E1,3.685296730E1
1.594704354E1,8.161543608E-2,-1.113364824E1,3.559791438E1,3.729847574E1
1.595698954E1,3.328127561E0,-8.974169759E0,2.812464653E1,2.970871755E1
1.596693554E1,5.225468933E0,-5.673160415E0,1.951674753E1,2.098555953E1
1.597688154E1,7.535050119E0,-2.598820724E0,1.178803002E1,1.422984544E1
1.598682754E1,7.989557115E0,-6.305966265E-1,6.933339468E0,1.059725772E1
1.599677254E1,6.073304678E0,1.899691661E-1,5.475449097E0,8.179343543E0
1.600671854E1,3.872347217E0,2.436352037E-1,4.549392809E0,5.979247947E0
1.601666454E1,1.537709982E0,3.070463571E-1,2.243036948E0,2.736794512E0
1.602661054E1,-2.976185258E-1,1.030982964E0,-1.331559523E0,1.710132575E0
1.603655654E1,-7.405817297E-1,2.643590808E0,-6.216837450E0,6.796035722E0
1.604650254E1,6.987005360E-1,5.236597939E0,-1.220689298E1,1.330106675E1
1.605644854E1,1.839716477E0,7.282284341E0,-1.795017554E1,1.945828934E1
1.606639454E1,1.403699108E0,7.211830071E0,-2.143861738E1,2.266263841E1
1.607634054E1,4.771097738E-1,5.662272899E0,-2.029730404E1,2.107770195E1
1.608628654E1,-8.928776508E-1,3.708371702E0,-1.679479964E1,1.722250116E1
1.609623254E1,-3.387964457E0,1.460964838E0,-1.492758956E1,1.537678937E1
1.610617854E1,-6.088944225E0,-6.980897943E-1,-1.355186017E1,1.487331453E1
1.611612454E1,-6.382031817E0,-1.633573474E0,-1.089783939E1,1.273427641E1
1.612607054E1,-5.182452722E0,-1.618082446E0,-8.657793877E0,1.021926621E1
1.613601654E1,-3.907563828E0,-1.129854045E0,-8.341723804E0,9.280623969E0
1.614596254E1,-3.438348745E0,-4.691581453E-1,-8.450720581E0,9.135481914E0
1.615590754E1,-3.172221496E0,-2.807533287E-2,-8.722317901E0,9.281304165E0
1.616585354E1,-2.670075479E0,8.267253958E-2,-8.635689062E0,9.039428267E0
1.617579954E1,-2.376914651E0,3.634241872E-2,-7.916877978E0,8.266075306E0
1.618574554E1,-2.717225087E0,-4.120983106E-1,-7.583237607E0,8.065892995E0
1.619569154E1,-3.145083691E0,-9.933301844E-1,-7.217609459E0,7.935498886E0
1.620563754E1,-2.581572023E0,-1.372482139E0,-6.917564265E0,7.510054374E0
1.621558354E1,-2.338683947E0,-1.646305202E0,-7.852187893E0,8.356830627E0
1.622552954E1,-2.270835196E0,-1.569428641E0,-9.641748124E0,1.002911290E1
1.623547554E1,-1.940418102E0,-1.547773771E0,-1.106547204E1,1.134043640E1
1.624542154E1,-1.212446697E0,-1.509725938E0,-1.168430861E1,1.184366358E1
1.625536754E1,-6.187337954E-1,-1.165061812E0,-1.269255219E1,1.276092009E1
1.626531354E1,-8.466594676E-2,-6.562672920E-1,-1.448565349E1,1.450075902E1
1.627525954E1,7.598406308E-1,-9.174332522E-2,-1.548110687E1,1.550001434E1
1.628520554E1,1.578057524E0,1.179599744E-1,-1.556680600E1,1.564703260E1
1.629515154E1,1.889665148E0,2.661155917E-1,-1.508990476E1,1.521009130E1
1.630509754E1,1.524103511E0,-2.695641699E-1,-1.375542513E1,1.384222803E1
1.631504254E1,1.448729977E0,-6.420748571E-1,-1.162150015E1,1.172903852E1
1.632498854E1,2.167149737E0,-7.595574063E-1,-9.540035223E0,9.812529617E0
1.633493454E1,3.101686825E0,-3.425220357E-1,-7.339712185E0,7.975534933E0
1.634488054E1,3.557222639E0,9.447957364E-1,-5.731010427E0,6.811090398E0
1.635482654E1,3.631120628E0,2.746797965E0,-4.210074792E0,6.201182615E0
1.636477254E1,2.120637767E0,3.579002056E0,-6.441450638E-1,4.209665440E0
1.637471854E1,-2.788859472E-1,2.332272475E0,7.015692823E0,7.398460519E0
1.638466454E1,-1.912524106E0,3.114027520E-1,1.972053936E1,1.981550890E1
1.639461054E1,-3.331697578E0,-1.450071183E0,3.126920660E1,3.147961557E1
1.640455654E1,-6.039645765E0,-2.903422068E0,3.681696529E1,3.742186679E1
1.641450254E1,-9.426756529E0,-5.014045894E0,3.869872559E1,4.014468529E1
1.642444854E1,-1.181594580E1,-7.903239933E0,4.140645889E1,4.377867762E1
1.643439454E1,-1.214437455E1,-1.005984568E1,4.507636790E1,4.775526433E1
1.644434054E1,-1.013258621E1,-1.053725680E1,4.620876775E1,4.846600150E1
1.645428654E1,-7.018029370E0,-9.580382765E0,4.364255110E1,4.522951179E1
1.646423254E1,-2.787224445E0,-6.898871301E0,3.945367597E1,4.014916678E1
1.647417754E1,1.870333814E0,-3.528735589E0,3.457423532E1,3.480413584E1
