"Time (s)","Linear Acceleration x (m/s^2)","Linear Acceleration y (m/s^2)","Linear Acceleration z (m/s^2)","Absolute acceleration (m/s^2)"
8.038916625E-3,4.258752643E-1,2.254891008E-2,8.530760193E-1,9.537383754E-1
1.798391662E-2,4.704150043E-1,1.521088833E-1,4.136753047E-1,6.446352816E-1
2.792891668E-2,4.424148812E-1,2.682416028E-1,2.546579361E-2,5.180086787E-1
3.787391668E-2,3.987047150E-1,3.830847189E-1,-2.378898758E-1,6.019227065E-1
4.781891668E-2,3.705071753E-1,4.709291938E-1,-4.408122325E-1,7.438852713E-1
5.776391667E-2,3.786559281E-1,5.253802201E-1,-5.493874258E-1,8.492533375E-1
6.770891667E-2,3.410140388E-1,5.036908507E-1,-6.348550075E-1,8.792246177E-1
7.765391667E-2,2.772506272E-1,4.284079492E-1,-7.060957289E-1,8.711902545E-1
8.759891667E-2,2.363822078E-1,3.293362355E-1,-7.150320286E-1,8.219548078E-1
9.754391667E-2,1.743263293E-1,1.614053714E-1,-6.717146856E-1,7.124899872E-1
1.074889167E-1,9.999703556E-2,1.213501900E-2,-6.151194853E-1,6.233126398E-1
1.174339167E-1,2.151442800E-2,-1.665468282E-1,-5.859804708E-1,6.095685595E-1
1.273789167E-1,-2.863706756E-2,-3.300352702E-1,-5.271539730E-1,6.226031420E-1
1.373249167E-1,-4.722266179E-2,-4.635766125E-1,-5.435659379E-1,7.159589264E-1
1.472699167E-1,-6.703657329E-2,-5.486126697E-1,-5.389495611E-1,7.719691658E-1
1.572149167E-1,-5.486544773E-2,-6.551188257E-1,-5.600650263E-1,8.636340237E-1
1.671599167E-1,-2.317858212E-2,-7.801062763E-1,-5.784673834E-1,9.714564131E-1
1.771049167E-1,-1.380856521E-2,-9.070855808E-1,-5.432279688E-1,1.057398484E0
1.870499167E-1,9.447748326E-3,-9.563545123E-1,-5.114881128E-1,1.084584392E0
1.969949167E-1,8.274139054E-2,-1.003883020E0,-4.822537887E-1,1.116779285E0
2.069399167E-1,1.472401991E-1,-1.056149527E0,-4.425488555E-1,1.154547958E0
2.168849166E-1,2.260823739E-1,-1.135245397E0,-4.468518215E-1,1.240794867E0
2.268299166E-1,2.894862914E-1,-1.116428473E0,-5.746555835E-1,1.288582123E0
2.367749166E-1,4.022782043E-1,-1.004669178E0,-9.125059497E-1,1.415575861E0
2.467199166E-1,5.264610779E-1,-8.776068431E-1,-1.460933263E0,1.783726727E0
2.566649166E-1,5.879853348E-1,-7.697178206E-1,-2.073123293E0,2.288237851E0
2.666099166E-1,5.891912500E-1,-6.859392071E-1,-2.561388604E0,2.716315612E0
2.765559166E-1,6.112632465E-1,-6.018138537E-1,-2.807055861E0,2.935197656E0
2.865009166E-1,6.926014515E-1,-5.062428680E-1,-2.783313242E0,2.912526604E0
2.964459166E-1,8.421551746E-1,-4.440922281E-1,-2.396984780E0,2.579143130E0
3.063909166E-1,7.390292209E-1,-2.571494347E-1,-1.990429630E0,2.138714599E0
3.163359166E-1,5.971189781E-1,-1.640980142E-1,-1.489790441E0,1.613367531E0
3.262809166E-1,5.587851804E-1,-1.108196470E-1,-5.181328887E-1,7.700542593E-1
3.362259166E-1,5.151321341E-1,2.028592068E-1,8.671233702E-1,1.028793426E0
3.461709166E-1,2.398283008E-1,6.066673350E-1,2.716203579E0,2.793443171E0
3.561159166E-1,-1.762820768E-1,1.205845849E0,5.174039163E0,5.315620457E0
3.660609166E-1,-7.168850112E-1,1.668671386E0,7.278747945E0,7.501903756E0
3.760059166E-1,-1.139015974E0,1.808887033E0,7.748341343E0,8.037799652E0
3.859509167E-1,-1.530631781E0,2.161806259E0,6.131028391E0,6.678753557E0
3.958959167E-1,-1.671215802E0,3.348436110E0,3.888093184E0,5.396503984E0
4.058409167E-1,9.466843139E-3,4.236207753E0,1.953559427E0,4.664969473E0
4.157869166E-1,1.596690992E0,4.881606752E0,1.098794147E0,5.252319029E0
4.257319167E-1,1.893970745E0,4.809087829E0,1.509786165E0,5.384598889E0
4.356769167E-1,2.778077061E0,3.357054029E0,3.591017207E0,5.646497010E0
4.456219167E-1,5.044285355E0,5.886459240E-1,6.854593846E0,8.530930521E0
4.555669167E-1,6.192341709E0,-1.705422014E0,8.226569908E0,1.043695418E1
4.655119167E-1,6.358105595E0,-3.200691296E0,7.508058202E0,1.034605575E1
4.754569167E-1,5.024502470E0,-3.997856239E0,5.516165013E0,8.465019553E0
4.854019167E-1,4.143563883E0,-4.225372862E0,2.331881297E0,6.360862195E0
4.953469167E-1,4.659466059E0,-4.150060140E0,1.891521639E-1,6.242547690E0
5.052919167E-1,4.073814787E0,-2.000581566E0,3.712952703E-1,4.553696707E0
5.152369167E-1,4.758762891E0,-1.577414476E0,2.295991087E-1,5.018642887E0
5.251819167E-1,3.375813358E0,-1.391903374E0,2.780766195E-1,3.662081026E0
5.351269167E-1,1.042757649E0,-1.195265604E0,9.363298452E-1,1.841932940E0
5.450719167E-1,-9.494162062E-1,-1.729399983E0,9.456362736E-1,2.187794185E0
5.550179167E-1,-2.933716785E0,-1.664728316E0,8.643307400E-1,3.482108868E0
5.649629167E-1,-4.008485893E0,-1.698098376E0,5.007444388E-1,4.382036312E0
5.749079167E-1,-4.342542585E0,-1.983859114E0,-1.636454397E0,5.046915502E0
5.848529167E-1,-7.287935091E0,-2.252902955E0,-3.705822608E0,8.480724663E0
5.947979167E-1,-8.739042692E0,-2.815535201E0,-5.472092795E0,1.068840050E1
6.047429167E-1,-8.579057025E0,-3.668414169E0,-7.816834458E0,1.217211497E1
6.146879166E-1,-1.107551288E1,-4.389036428E0,-9.194023313E0,1.504861094E1
6.246329166E-1,-1.035803029E1,-5.077862406E0,-1.036896809E1,1.551093090E1
6.345779166E-1,-9.878234668E0,-5.617399027E0,-9.806361278E0,1.500997713E1
6.445229166E-1,-8.809550173E0,-5.279638124E0,-9.190673443E0,1.378227961E1
6.544679166E-1,-8.653863378E0,-5.397296966E0,-8.043882426E0,1.298938838E1
6.644129166E-1,-8.998745021E0,-5.490965268E0,-7.294380476E0,1.281936418E1
6.743579166E-1,-7.557732638E0,-6.190175316E0,-6.367918392E0,1.166138833E1
6.843040000E-1,-8.848194421E0,-4.241446566E0,-4.691358235E0,1.087608641E1
6.942490000E-1,-1.007858951E1,-3.090699615E0,-2.476092638E0,1.082873148E1
7.041940000E-1,-8.148876784E0,-3.994418369E0,-1.041672698E-1,9.075815213E0
7.141390000E-1,-7.200078921E0,-3.230374686E0,2.408720142E0,8.250962963E0
7.240840000E-1,-5.059584010E0,-3.178537950E0,4.780037400E0,7.651878946E0
7.340290000E-1,-5.026492277E0,-1.667273317E0,6.439033983E0,8.337060847E0
7.439740000E-1,-6.073134524E0,-2.911200035E-1,8.176694913E0,1.018950703E1
7.539190000E-1,-5.293866153E0,-6.502542347E-2,8.024700635E0,9.613795683E0
7.638640000E-1,-4.821139233E0,5.319583377E-1,6.429170900E0,8.053607989E0
7.738090000E-1,-4.191172498E0,8.511382520E-1,5.059057176E0,6.624531888E0
7.837540000E-1,-4.022304325E0,1.282946942E0,4.055507739E0,5.854231629E0
7.936990000E-1,-5.029413546E0,1.917138290E0,2.623350087E0,5.987686158E0
8.036440000E-1,-4.446158463E0,1.188121769E0,1.320286092E0,4.787808870E0
8.135900000E-1,-3.864820096E0,6.942711970E-1,7.482617551E-1,3.997341933E0
8.235350000E-1,-3.192943443E0,2.766083837E-1,1.002494014E0,3.358034288E0
8.334800000E-1,-2.056313133E0,-2.382129344E-1,1.398831155E0,2.498379015E0
8.434250000E-1,-8.780126399E-1,-4.814948201E-1,1.123516175E0,1.505002343E0
8.533700000E-1,1.525913955E0,-6.294203129E-1,4.548970056E-1,1.712166643E0
8.633150000E-1,2.929610578E0,1.202636604E0,2.483721793E-2,3.166949609E0
8.732600000E-1,4.570049268E0,3.680716126E0,2.146507019E-1,5.871890363E0
8.832050000E-1,1.003490379E1,3.980557837E0,1.366993650E0,1.088176486E1
8.931500000E-1,1.434370648E1,5.072587048E0,4.288152078E0,1.580700172E1
9.030950000E-1,1.674733896E1,5.334522429E0,7.607280189E0,1.915205482E1
9.130400000E-1,1.651080623E1,5.062625731E0,9.770646484E0,1.984193625E1
9.229850000E-1,1.457796232E1,4.593502450E0,1.005689517E1,1.829640376E1
9.329300000E-1,1.350332126E1,4.357276984E0,9.527107029E0,1.709067922E1
9.428750000E-1,1.540657826E1,4.918739787E0,1.049783955E1,1.928111226E1
9.528210000E-1,1.943582440E1,4.858810212E0,1.394904165E1,2.441178137E1
9.627660000E-1,2.145291032E1,3.604964278E0,1.725406218E1,2.776555042E1
9.727110000E-1,2.058582437E1,1.781558170E0,1.790344460E1,2.734014343E1
9.826560000E-1,1.847569288E1,5.959119666E-1,1.554245118E1,2.415106886E1
9.926010000E-1,1.577447805E1,5.007514554E-1,1.146926906E1,1.950971662E1
1.002546000E0,1.253757174E1,8.431092940E-1,6.570940737E0,1.418022568E1
1.012491000E0,9.734430000E0,1.138151025E0,1.782053576E0,9.961437152E0
1.022436000E0,8.392186444E0,3.530057060E0,-1.696120555E0,9.261043197E0
1.032381000E0,1.016788936E1,7.865237709E0,-5.588588626E0,1.401714169E1
1.042326000E0,9.594157051E0,6.852701687E0,-1.095769032E1,1.609591088E1
1.052271000E0,5.224217629E0,5.111160545E0,-1.179759724E1,1.387802985E1
1.062216000E0,4.534515738E-3,2.836299833E0,-1.044601802E1,1.082422791E1
1.072161000E0,-3.336769161E0,1.941502615E0,-9.140869199E0,9.922648364E0
1.082107000E0,-5.979621758E0,3.242430183E-1,-8.858169771E0,1.069243572E1
1.092052000E0,-7.989629036E0,-6.652714925E-1,-9.202872489E0,1.220531115E1
1.101997000E0,-8.374797410E0,-4.683327377E-3,-1.009444365E1,1.311621311E1
1.111942000E0,-8.639935895E0,2.158547898E-1,-1.242291018E1,1.513353174E1
1.121887000E0,-9.102974564E0,-1.924026310E-2,-1.334306311E1,1.615245645E1
1.131832000E0,-1.113657302E1,-1.604429490E0,-1.334626973E1,1.745624153E1
1.141777000E0,-1.099275139E1,-1.509032020E0,-1.313079749E1,1.719114899E1
1.151722000E0,-1.051925206E1,-1.536900288E0,-1.128596119E1,1.550450407E1
1.161667000E0,-9.595278547E0,-1.772044750E0,-9.713998659E0,1.376848877E1
1.171612000E0,-8.940793267E0,-1.845184209E0,-8.170023240E0,1.225119458E1
1.181557000E0,-8.413111875E0,-1.853672027E0,-7.189447514E0,1.122072667E1
1.191502000E0,-8.344346280E0,-1.823646282E0,-6.284165799E0,1.060398700E1
1.201448000E0,-8.732962173E0,-2.058516510E0,-5.233410037E0,1.038704477E1
1.211393000E0,-8.951160380E0,-2.356705505E0,-4.184176304E0,1.015798525E1
1.221338000E0,-8.936079826E0,-2.360104052E0,-3.147453275E0,9.763712200E0
1.231283000E0,-8.815350611E0,-2.275008792E0,-1.944162952E0,9.309449016E0
1.241228000E0,-8.754622014E0,-2.030025074E0,-4.139828682E-1,8.996432083E0
1.251173000E0,-8.443420917E0,-1.330186012E0,1.670926365E0,8.709348227E0
1.261118000E0,-7.529281840E0,-4.890714960E-1,3.630897264E0,8.373332127E0
1.271063000E0,-6.516135369E0,3.436731698E-1,4.906068871E0,8.163800779E0
1.281008000E0,-5.742130077E0,1.285597046E0,5.676653541E0,8.176136803E0
1.290953000E0,-5.277960557E0,2.099422899E0,5.831920506E0,8.140991398E0
1.300898000E0,-5.286025037E0,2.642746763E0,5.076020533E0,7.790517030E0
1.310843000E0,-5.266512879E0,3.034428935E0,4.002594531E0,7.277683686E0
1.320788000E0,-4.854519233E0,3.688568060E0,3.571351851E0,7.065864799E0
1.330734000E0,-3.691368876E0,4.473497412E0,3.391478926E0,6.718668959E0
1.340679000E0,-1.805922495E0,5.266307641E0,3.572434171E0,6.614955641E0
1.350624000E0,7.444329983E-1,6.260022646E0,4.534727408E0,7.765681984E0
1.360569000E0,3.830280009E0,7.081438916E0,5.477682148E0,9.737701155E0
1.370514000E0,6.642038786E0,7.518264517E0,5.990854844E0,1.168466184E1
1.380459000E0,8.710297195E0,7.874765747E0,6.206710072E0,1.328173418E1
1.390404000E0,1.001468412E1,8.365413798E0,6.567068710E0,1.460823184E1
1.400349000E0,1.124971547E1,8.587735462E0,7.268194306E0,1.591012090E1
1.410294000E0,1.289843616E1,9.049854949E0,9.214209656E0,1.825297755E1
1.420239000E0,1.397840052E1,9.234832785E0,1.153666173E1,2.034139576E1
1.430184000E0,1.420334758E1,9.305037965E0,1.434445142E1,2.222795763E1
1.440129000E0,1.531444018E1,8.596646619E0,1.899378893E1,2.586886988E1
1.450074000E0,1.655519478E1,6.618134199E0,2.551026285E1,3.112310533E1
1.460020000E0,1.733145125E1,3.935718756E0,3.205612722E1,3.665329967E1
1.469965000E0,1.797809951E1,6.872413820E-1,3.580063501E1,4.006706665E1
1.479910000E0,1.691224916E1,-1.585176655E0,3.682518647E1,4.055405424E1
1.489855000E0,1.567537710E1,-3.889248886E0,3.313459469E1,3.686115937E1
1.499800000E0,1.306172901E1,-4.363834929E0,2.482285717E1,2.838707554E1
1.509745000E0,1.095013806E1,-4.413520474E0,1.464711149E1,1.881282970E1
1.519690000E0,1.174395605E1,-2.601422151E0,4.458955679E0,1.282849121E1
1.529635000E0,1.225361457E1,-1.568812053E0,-5.683741536E0,1.359842488E1
1.539580000E0,9.716161544E0,-2.268982213E0,-1.373771860E1,1.697872161E1
1.549525000E0,5.656312832E0,-4.884303195E0,-1.831152295E1,1.977782003E1
1.559470000E0,9.549467951E-1,-7.984287019E0,-1.966676837E1,2.124717724E1
1.569415000E0,-3.028789880E0,-1.098557569E1,-2.004767939E1,2.306004966E1
1.579361000E0,-5.870267715E0,-1.322334839E1,-2.029850155E1,2.492681590E1
1.589306000E0,-7.966418513E0,-1.405130828E1,-2.108028364E1,2.655713551E1
1.599251000E0,-9.233865656E0,-1.397019804E1,-2.266929256E1,2.818381687E1
1.609196000E0,-9.397511095E0,-1.380611465E1,-2.450285075E1,2.965319057E1
1.619141000E0,-1.044138585E1,-1.420688632E1,-2.606265633E1,3.146617569E1
1.629086000E0,-9.349606027E0,-1.395647346E1,-2.593020287E1,3.089617622E1
1.639031000E0,-9.435014552E0,-1.403641191E1,-2.567251139E1,3.074277476E1
1.648976000E0,-9.117131258E0,-1.385057337E1,-2.433169573E1,2.944472588E1
1.658921000E0,-7.816359079E0,-1.340991433E1,-2.091695687E1,2.604688765E1
1.668866000E0,-7.481090843E0,-1.321833382E1,-1.608484124E1,2.212268490E1
1.678811000E0,-6.117866893E0,-1.316074693E1,-1.263936007E1,1.924544045E1
1.688756542E0,-4.165051816E0,-1.259074865E1,-9.651174420E0,1.640182234E1
1.698701542E0,-2.691638256E0,-1.137197140E1,-7.895555522E0,1.410341969E1
1.708647542E0,-1.374402657E0,-1.009540610E1,-7.284790458E0,1.252495026E1
1.718592542E0,-4.390346789E-1,-8.850425134E0,-7.137189778E0,1.137814811E1
1.728537542E0,-7.980279922E-3,-7.370066836E0,-6.629064399E0,9.912741480E0
1.738482542E0,7.389126420E-2,-6.305497026E0,-6.154639447E0,8.811602544E0
1.748427542E0,-2.648712677E-1,-5.893256629E0,-5.707477723E0,8.208284379E0
1.758372542E0,-7.945617628E-1,-5.386913481E0,-4.870354663E0,7.305512972E0
1.768317542E0,-1.671359936E0,-4.712842660E0,-3.501137901E0,6.104285099E0
1.778262542E0,-2.068572405E0,-3.770262141E0,-1.588858647E0,4.584576339E0
1.788207542E0,-2.310182279E0,-2.127812447E0,5.629523814E-1,3.190837407E0
1.798152542E0,-2.804529279E0,-9.223627473E-1,1.804237327E0,3.459972521E0
1.808097542E0,-2.710269824E0,6.153583440E-1,1.704717132E0,3.260412384E0
1.818042542E0,-2.625150737E0,2.251638056E0,-1.229318619E-2,3.458531689E0
1.827988542E0,-2.515468081E0,3.489420081E0,-1.738163790E0,4.639487636E0
1.837933542E0,-2.368812895E0,4.721219673E0,-2.787696900E0,5.972641270E0
1.847878542E0,-2.394622505E0,5.948007617E0,-3.156060376E0,7.146588602E0
1.857823542E0,-1.784539227E0,7.090075253E0,-3.398573645E0,8.062508925E0
1.867768542E0,-9.614448059E-1,8.103310018E0,-3.841137704E0,9.018999291E0
1.877713542E0,-7.173200440E-1,8.413969662E0,-3.699705836E0,9.219395684E0
1.887658542E0,-3.652574354E-1,8.297864424E0,-1.408262275E0,8.424438832E0
1.897603542E0,9.875093544E-1,8.690899057E0,1.952492895E0,8.962094044E0
1.907548542E0,4.872743835E0,9.284818293E0,5.709186864E0,1.193927543E1
1.917493542E0,1.182693389E1,9.816330196E0,1.036331383E1,1.853739403E1
1.927438542E0,2.021699136E1,1.000762887E1,1.635257005E1,2.786190809E1
1.937383542E0,2.552040894E1,9.416168976E0,2.159579288E1,3.473231609E1
1.947329542E0,2.676441343E1,7.229600928E0,2.335355946E1,3.624899578E1
1.957274542E0,2.703187911E1,4.537187624E0,2.339810589E1,3.603858930E1
1.967219542E0,2.930493507E1,2.470552109E0,2.414116304E1,3.804837185E1
1.977164542E0,3.198048764E1,7.830602896E-1,2.572961062E1,4.105335109E1
1.987109542E0,3.325419598E1,-8.889735380E-1,2.672806714E1,4.267342730E1
1.997054542E0,3.483045095E1,-2.517999048E0,2.759891167E1,4.451067915E1
2.006999542E0,3.454847950E1,-3.240012360E0,3.023489730E1,4.602438626E1
2.016944542E0,3.223374224E1,-2.931947710E0,3.280853524E1,4.608698776E1
2.026889542E0,3.130869168E1,-1.751294298E0,3.171709162E1,4.460129042E1
2.036834542E0,3.011034927E1,-3.074313962E-1,2.653012953E1,4.013197503E1
2.046779542E0,2.680855991E1,2.683339888E-1,1.847739091E1,3.256048007E1
2.056724542E0,2.277548033E1,2.208654150E-1,8.422397254E0,2.428390540E1
2.066670542E0,1.751537191E1,-1.186948232E0,-2.848285456E0,1.778510133E1
2.076615542E0,1.007145123E1,-3.673008619E0,-1.221224669E1,1.625004897E1
2.086560542E0,3.002800176E0,-6.373326482E0,-1.626704399E1,1.772717743E1
2.096505542E0,-1.700835165E0,-8.163300111E0,-1.519160889E1,1.732966502E1
2.106450542E0,-4.105445884E0,-9.993754599E0,-1.250311175E1,1.652445522E1
2.116395542E0,-5.538631770E0,-1.168053832E1,-1.130557743E1,1.717345330E1
2.126340542E0,-6.868032501E0,-1.242920880E1,-1.268865326E1,1.904355595E1
2.136285542E0,-9.186065252E0,-1.256183300E1,-1.551844018E1,2.197738448E1
2.146230542E0,-9.823832173E0,-1.225285326E1,-1.711253617E1,2.322668693E1
2.156175542E0,-8.897235603E0,-1.162024885E1,-1.725944981E1,2.262917569E1
2.166120542E0,-9.732567662E0,-1.162484125E1,-1.631772298E1,2.227392850E1
2.176065542E0,-1.018003520E1,-1.158014864E1,-1.456076215E1,2.120728067E1
2.186011542E0,-9.844682175E0,-1.145838856E1,-1.272579244E1,1.975242337E1
2.195956542E0,-1.005912179E1,-1.145239166E1,-1.135419820E1,1.900686778E1
2.205901542E0,-9.972966578E0,-1.083444855E1,-1.066535643E1,1.818227614E1
2.215846542E0,-8.909303672E0,-1.025380835E1,-9.894728494E0,1.680541370E1
2.225791542E0,-7.161997175E0,-9.727895152E0,-8.472932984E0,1.475522758E1
2.235736542E0,-6.352705691E0,-9.578191229E0,-7.195615157E0,1.356006985E1
2.245681542E0,-6.561924330E0,-9.741111029E0,-6.065787497E0,1.321899667E1
2.255626542E0,-6.725802489E0,-1.007373048E1,-4.950644535E0,1.308531032E1
2.265571542E0,-6.575121496E0,-1.055160938E1,-4.441295334E0,1.320203724E1
2.275516542E0,-6.536566125E0,-1.069060939E1,-3.852570764E0,1.310946709E1
2.285461542E0,-6.466453332E0,-1.067183515E1,-3.372171713E0,1.292573503E1
2.295407542E0,-5.797839425E0,-1.063916559E1,-3.181442555E0,1.252710514E1
2.305352542E0,-5.435867540E0,-1.054430737E1,-3.352572430E0,1.232764437E1
2.315297542E0,-5.413542870E0,-1.061510312E1,-4.187612128E0,1.263023975E1
2.325242542E0,-5.748335143E0,-1.053558567E1,-5.024299572E0,1.301097646E1
2.335187542E0,-6.180373628E0,-1.045764813E1,-5.175080552E0,1.320382071E1
2.345132542E0,-6.360436295E0,-1.043309801E1,-5.810557119E0,1.353023496E1
2.355077542E0,-6.538323213E0,-1.042016982E1,-6.821358857E0,1.406629113E1
2.365022542E0,-5.825190945E0,-1.001490047E1,-7.583426473E0,1.384700105E1
2.374967542E0,-4.826707537E0,-9.552943536E0,-8.268780958E0,1.352510903E1
2.384912542E0,-4.291077440E0,-9.233168083E0,-8.506846835E0,1.326767431E1
2.394858542E0,-3.777702430E0,-8.881363336E0,-7.713036439E0,1.235477970E1
2.404803542E0,-3.087763728E0,-8.373393493E0,-5.715476714E0,1.059786193E1
2.414748542E0,-3.408416263E0,-7.845854774E0,-3.030669760E0,9.075224391E0
2.424693542E0,-3.477014043E0,-6.634907522E0,-1.207653808E0,7.587493143E0
2.434638542E0,-3.169612468E0,-4.571483590E0,-8.083354640E-1,5.621237553E0
2.444583542E0,-3.794656432E0,-1.630093796E0,-1.866879133E0,4.532312977E0
2.454528542E0,-5.367674972E0,1.770632794E0,-2.047603120E0,6.011634855E0
2.464473542E0,-7.570633934E0,6.189982942E0,8.707287633E-1,9.817767341E0
2.474418542E0,-6.764369554E0,1.150540720E1,5.757813479E0,1.453559446E1
2.484363542E0,2.013768207E0,1.733376441E1,1.279894461E1,2.164087878E1
2.494309542E0,1.799375367E1,2.241154963E1,2.047517634E1,3.528860403E1
2.504254542E0,3.230681373E1,2.905607524E1,3.090407605E1,5.332023666E1
2.514199542E0,3.928282501E1,3.091232062E1,3.725866396E1,6.234516779E1
2.524144542E0,3.852751911E1,2.901405715E1,3.742449100E1,6.104734038E1
2.534089542E0,3.321309239E1,2.505459635E1,3.435826724E1,5.395676818E1
2.544034542E0,2.874637629E1,2.072293222E1,2.922763956E1,4.593526950E1
2.553979542E0,2.731253844E1,1.761920092E1,2.137678191E1,3.890215678E1
2.563924542E0,2.384408940E1,1.420832473E1,1.263859759E1,3.049838094E1
2.573869542E0,1.689810123E1,9.005054167E0,3.817331935E0,1.952457039E1
2.583814542E0,1.037306816E1,3.754407123E0,-4.654867224E0,1.197346669E1
2.593760542E0,4.543644412E0,-7.141186935E-1,-1.028832563E1,1.126961908E1
2.603705542E0,-1.141823223E0,-4.957012737E0,-1.265477800E1,1.363888345E1
2.613650542E0,-5.444072353E0,-8.935058903E0,-1.353499446E1,1.710757950E1
2.623595542E0,-8.617799506E0,-1.185212954E1,-1.357802178E1,1.997754035E1
2.633540542E0,-1.132932648E1,-1.375967255E1,-1.394590520E1,2.263118422E1
2.643485542E0,-1.412706948E1,-1.478754757E1,-1.552400906E1,2.567567940E1
2.653430542E0,-1.647087208E1,-1.501434937E1,-1.772145352E1,2.847402727E1
2.663375542E0,-1.723853315E1,-1.464132157E1,-1.887811229E1,2.946045564E1
2.673320542E0,-1.560198402E1,-1.403102078E1,-1.791068462E1,2.758775223E1
2.683265250E0,-1.263516644E1,-1.272308167E1,-1.547048716E1,2.368248744E1
2.693211250E0,-1.035581419E1,-1.130841099E1,-1.230384449E1,1.965979746E1
2.703156250E0,-9.073905716E0,-1.039134889E1,-8.757573688E0,1.634047103E1
2.713101250E0,-7.900340298E0,-9.805562548E0,-5.480818595E0,1.373331010E1
2.723046250E0,-6.105746199E0,-8.739918020E0,-2.612530399E0,1.097686744E1
2.732991250E0,-4.401793883E0,-7.325653140E0,-5.152575204E-1,8.561919973E0
2.742936250E0,-3.991603519E0,-6.219975650E0,1.165162969E-1,7.391520263E0
2.752881250E0,-4.529453219E0,-5.791994548E0,-2.587495252E-1,7.357315993E0
2.762826250E0,-5.103160384E0,-5.590219415E0,-8.927841684E-1,7.621670590E0
2.772771250E0,-5.214091421E0,-5.326038703E0,-1.274513503E0,7.561601833E0
2.782717250E0,-5.037045917E0,-5.240682219E0,-1.181437524E0,7.364263460E0
2.792662250E0,-4.591795063E0,-5.228096087E0,-4.814737701E-1,6.974911296E0
2.802607250E0,-3.981114199E0,-4.750305478E0,5.990077749E-1,6.226835690E0
2.812552250E0,-3.889956107E0,-4.280680506E0,1.505099475E0,5.976730589E0
2.822497250E0,-4.411314320E0,-4.407369204E0,1.918761477E0,6.524281028E0
2.832442250E0,-5.072152600E0,-4.378487467E0,2.058677747E0,7.009710305E0
2.842387250E0,-5.957215227E0,-4.117559561E0,2.035106451E0,7.522258190E0
2.852332250E0,-6.628210706E0,-3.871083634E0,1.750382424E0,7.872884115E0
2.862277250E0,-6.680214672E0,-3.722074360E0,1.352232939E0,7.765799349E0
2.872223250E0,-5.844749297E0,-3.112696840E0,7.996954720E-1,6.670044139E0
2.882168250E0,-4.517355915E0,-2.150370274E0,-9.001715407E-2,5.003868490E0
2.892113250E0,-3.900592192E0,-1.451004106E0,-1.017259403E0,4.284255952E0
2.902058250E0,-3.944257445E0,-1.246400090E0,-1.850064880E0,4.531381691E0
2.912003250E0,-4.624548241E0,-1.269852102E0,-2.108866591E0,5.238920604E0
2.921948250E0,-5.396242713E0,-1.340209894E0,-1.837533712E0,5.855948098E0
2.931893250E0,-5.024280276E0,-1.200302396E0,-1.665703778E0,5.427585762E0
2.941838250E0,-3.576551780E0,-4.330371898E-1,-1.613045800E0,3.947297886E0
2.951783250E0,-1.256461394E0,7.844045645E-1,-1.691467926E0,2.248343724E0
2.961728250E0,5.590943885E-1,2.303204212E0,-2.120736001E0,3.180386354E0
2.971674250E0,2.166877549E0,4.455843791E0,-2.513582938E0,5.555897892E0
2.981619250E0,5.198078236E0,7.581746567E0,-1.234819095E0,9.275110595E0
2.991564250E0,9.405855072E0,1.116960043E1,1.733493327E0,1.470493395E1
3.001509250E0,1.445359204E1,1.360965405E1,5.051226584E0,2.048521164E1
3.011454250E0,1.963712533E1,1.528717929E1,8.696470284E0,2.636177416E1
3.021399250E0,2.271876468E1,1.727245401E1,1.162543884E1,3.081607964E1
3.031344250E0,2.526688069E1,1.800290106E1,1.354823723E1,3.385372119E1
3.041289250E0,2.985028851E1,1.846729862E1,1.646273276E1,3.876986474E1
3.051234250E0,3.473462912E1,1.819543233E1,1.820070184E1,4.323001001E1
3.061180250E0,3.421490755E1,1.591229459E1,1.699732381E1,4.138562593E1
3.071125250E0,2.859767692E1,1.245320577E1,1.444708993E1,3.437481442E1
3.081070250E0,2.261715410E1,8.648382198E0,1.239746075E1,2.720344110E1
3.091015250E0,1.699648181E1,5.570649953E0,1.063202613E1,2.080751101E1
3.100960250E0,1.232514941E1,3.129759308E0,8.310341213E0,1.519099971E1
3.110905250E0,9.007533386E0,1.081367398E0,4.553575030E0,1.015086492E1
3.120850250E0,5.848343580E0,-5.255766866E-1,-8.171814242E-1,5.928502253E0
3.130795250E0,1.555662834E0,-2.166134075E0,-6.287656002E0,6.829849316E0
3.140740250E0,-3.069888205E0,-4.110158156E0,-1.055853131E1,1.173883287E1
3.150686250E0,-7.244618917E0,-5.960275075E0,-1.313822112E1,1.614379870E1
3.160631250E0,-1.069829731E1,-7.380114691E0,-1.434194764E1,1.935487330E1
3.170576250E0,-1.351930755E1,-8.178266644E0,-1.469419093E1,2.157718631E1
3.180521250E0,-1.550082836E1,-8.277330757E0,-1.458373703E1,2.283583303E1
3.190466250E0,-1.626383153E1,-8.172915273E0,-1.395333701E1,2.293478524E1
3.200411250E0,-1.591750563E1,-7.775948972E0,-1.255018535E1,2.171035513E1
3.210356250E0,-1.469715781E1,-6.922220403E0,-1.048727363E1,1.933666184E1
3.220301250E0,-1.319865560E1,-6.028250712E0,-8.325680214E0,1.672905458E1
3.230246250E0,-1.179043089E1,-5.358633422E0,-6.575582256E0,1.452472013E1
3.240192250E0,-1.065854560E1,-4.648161637E0,-5.062550887E0,1.268224831E1
3.250137250E0,-9.482342500E0,-3.750945864E0,-3.867709206E0,1.090612620E1
3.260082250E0,-8.338941699E0,-2.870266601E0,-3.265622287E0,9.404289869E0
3.270027250E0,-7.534440254E0,-2.088503224E0,-3.031976613E0,8.385852243E0
3.279972250E0,-6.932663530E0,-1.314645283E0,-2.802060585E0,7.592210440E0
3.289917250E0,-6.291947858E0,-5.705920610E-1,-2.482649413E0,6.788057989E0
3.299862250E0,-5.653702050E0,2.499655455E-2,-2.021115526E0,6.004155200E0
3.309807250E0,-5.074564576E0,3.679512477E-1,-1.474080142E0,5.297122429E0
3.319752250E0,-4.331516199E0,9.080354610E-1,-9.239550903E-1,4.521089911E0
3.329697250E0,-3.387475045E0,1.603877513E0,-4.308573478E-1,3.772671244E0
3.339643250E0,-2.710772685E0,1.945970618E0,2.357550573E-1,3.345245977E0
3.349588250E0,-2.514809684E0,1.985396639E0,1.057871824E0,3.374190326E0
3.359533250E0,-2.873896553E0,1.994165709E0,1.751454804E0,3.911978042E0
3.369478250E0,-3.559448090E0,1.599257920E0,1.647007452E0,4.235555471E0
3.379423250E0,-4.201464767E0,8.331896389E-1,8.672900158E-1,4.370206303E0
3.389368250E0,-4.798889408E0,4.467272758E-3,-1.442826775E-1,4.801059987E0
3.399313250E0,-5.184449546E0,-7.219586402E-1,-9.907279542E-1,5.327408681E0
3.409258250E0,-5.505825382E0,-1.257180017E0,-1.790879948E0,5.924682752E0
3.419203250E0,-5.648702681E0,-1.712272904E0,-2.552344716E0,6.430721890E0
3.429149250E0,-5.619247332E0,-2.026711603E0,-3.232381743E0,6.792038887E0
3.439094250E0,-5.146052050E0,-2.023241866E0,-3.504674297E0,6.546609907E0
3.449039250E0,-3.916732846E0,-1.910026322E0,-3.177212971E0,5.392928611E0
3.458984250E0,-2.611470591E0,-1.842814625E0,-2.628074344E0,4.137936581E0
3.468929250E0,-1.516167231E0,-1.911561801E0,-2.028677437E0,3.173068505E0
3.478874250E0,-4.950609452E-1,-2.253171342E0,-1.243855966E0,2.620886129E0
3.488819250E0,2.086473656E-1,-2.682880881E0,-3.393434528E-1,2.712293776E0
3.498764250E0,1.518720710E-1,-2.256468587E0,3.131482190E-1,2.283150765E0
3.508709250E0,-1.948344880E-1,-1.095693369E0,1.206812978E0,1.641615668E0
3.518655250E0,2.874994075E-1,1.438164790E0,3.181030034E0,3.502845407E0
3.528600250E0,2.498915198E0,5.226365311E0,5.975891234E0,8.322904996E0
3.538545250E0,8.051956261E0,9.060184055E0,9.126395001E0,1.517273939E1
3.548490250E0,1.724924291E1,1.339121610E1,1.285495509E1,2.533990766E1
3.558435250E0,2.673076153E1,1.785545299E1,1.626318717E1,3.602557523E1
3.568380250E0,3.309095341E1,2.040229664E1,1.903030830E1,4.328299366E1
3.578325250E0,3.798718493E1,2.156271869E1,2.205487181E1,4.893254977E1
3.588270250E0,4.189987501E1,2.204752537E1,2.468309000E1,5.339426779E1
3.598215250E0,4.179546713E1,2.130876944E1,2.489720100E1,5.311116027E1
3.608161250E0,3.657391992E1,1.911081511E1,2.117520500E1,4.638172247E1
3.618106250E0,2.744983574E1,1.445363648E1,1.434491569E1,3.417861460E1
3.628051250E0,1.660829568E1,8.417451679E0,6.695188807E0,1.978672614E1
3.637996250E0,7.048430799E0,2.735447350E0,-1.136558390E-1,7.561479126E0
3.647941250E0,6.766631842E-1,-2.238124117E0,-5.503421007E0,5.979524681E0
3.657886250E0,-2.392024003E0,-6.238603710E0,-9.496336641E0,1.161130332E1
3.667831250E0,-4.616457449E0,-9.508093053E0,-1.263874143E1,1.647583982E1
3.677776250E0,-7.412234032E0,-1.219466996E1,-1.522686292E1,2.086884144E1
3.687720917E0,-1.062188589E1,-1.454323921E1,-1.712526322E1,2.485165803E1
3.697666917E0,-1.391611364E1,-1.583878690E1,-1.850565050E1,2.805324384E1
3.707611917E0,-1.622674381E1,-1.593137288E1,-1.873728328E1,2.946526160E1
3.717556917E0,-1.678499620E1,-1.527351902E1,-1.653420912E1,2.807840010E1
3.727501917E0,-1.545944879E1,-1.456693681E1,-1.207582647E1,2.443390656E1
3.737446917E0,-1.361222682E1,-1.400816986E1,-7.633970389E0,2.097138636E1
3.747391917E0,-1.251909336E1,-1.344200502E1,-4.200052372E0,1.884292009E1
3.757336917E0,-1.262130971E1,-1.327863147E1,-2.198482334E0,1.845136410E1
3.767281917E0,-1.332568636E1,-1.295025652E1,-1.344294759E0,1.863035666E1
3.777226917E0,-1.391906297E1,-1.221134856E1,-1.168501729E0,1.855324079E1
3.787172917E0,-1.339629733E1,-1.128370417E1,-1.369429600E0,1.756866812E1
3.797117917E0,-1.152746640E1,-1.013624891E1,-1.612455670E0,1.543457278E1
3.807062917E0,-8.990091727E0,-8.896854950E0,-1.857902780E0,1.278387969E1
3.817007917E0,-6.967429320E0,-7.603954877E0,-1.966948382E0,1.049924221E1
3.826952917E0,-5.915251515E0,-6.682531924E0,-2.186507236E0,9.188430078E0
3.836897917E0,-5.681138940E0,-6.368380907E0,-2.618408897E0,8.926795628E0
3.846842917E0,-6.093934239E0,-6.147446203E0,-2.941584506E0,9.142212464E0
3.856787917E0,-6.279835936E0,-6.114666712E0,-2.897145082E0,9.231410402E0
3.866732917E0,-6.306413870E0,-6.055113990E0,-2.436048274E0,9.075769528E0
3.876678917E0,-6.442500213E0,-6.055302855E0,-1.642449548E0,8.992782782E0
3.886623917E0,-6.328075465E0,-6.181287548E0,-7.923509306E-1,8.881479316E0
3.896568917E0,-6.008901106E0,-6.150859807E0,-3.456303790E-1,8.605778827E0
3.906513917E0,-5.511886021E0,-6.201198487E0,-4.335611004E-1,8.308051842E0
3.916458917E0,-4.647457048E0,-5.987158234E0,-6.757612512E-1,7.609308379E0
3.926403917E0,-4.093584808E0,-5.546274081E0,-1.236592847E0,7.003410214E0
3.936348917E0,-3.976496068E0,-5.388928431E0,-2.186063433E0,7.044994248E0
3.946293917E0,-4.405803319E0,-5.369256059E0,-2.999544154E0,7.565532278E0
3.956238917E0,-5.255202609E0,-5.429912735E0,-3.571181405E0,8.357897068E0
3.966184917E0,-5.694369435E0,-5.498358487E0,-3.746509874E0,8.757518231E0
3.976129917E0,-5.632289547E0,-5.271595278E0,-3.183180347E0,8.345360354E0
3.986074917E0,-5.320600793E0,-4.903145263E0,-2.449897404E0,7.638823441E0
3.996019917E0,-4.499914840E0,-4.069838680E0,-2.033239435E0,6.398975156E0
4.005964917E0,-2.899246572E0,-2.930629163E0,-1.576840864E0,4.413688376E0
4.015909917E0,-1.130582535E0,-1.580050986E0,-1.088185252E0,2.226864416E0
4.025854917E0,-7.859195781E-1,1.199889582E0,-2.430301630E-1,1.454808666E0
4.035799917E0,4.577475232E-1,4.981127239E0,1.064116650E0,5.114049825E0
4.045744917E0,5.783387446E0,1.102603141E1,3.726337565E0,1.299640452E1
4.055689917E0,1.571528786E1,1.836061032E1,9.034023027E0,2.580108246E1
4.065635917E0,2.999802192E1,2.397310938E1,1.756665901E1,4.222770182E1
4.075580917E0,4.368260686E1,2.842869239E1,2.614018574E1,5.830668918E1
4.085525917E0,4.974463986E1,3.144016281E1,3.155053720E1,6.677162144E1
4.095470917E0,4.978098616E1,3.111047575E1,3.264837532E1,6.717086195E1
4.105415917E0,4.794714496E1,2.832962886E1,3.121418898E1,6.384216612E1
4.115360917E0,4.319061746E1,2.496055208E1,2.855299951E1,5.747810346E1
4.125305917E0,3.643074032E1,2.042026397E1,2.430721694E1,4.832211519E1
4.135250917E0,2.812260936E1,1.501217304E1,1.826830384E1,3.674203889E1
4.145195917E0,1.987382061E1,9.607378775E0,1.075420721E1,2.455449950E1
4.155141917E0,1.323796643E1,4.553443176E0,3.431322438E0,1.441358989E1
4.165086917E0,8.075427570E0,-5.648831320E-1,-3.840451241E0,8.959949169E0
4.175031917E0,3.206728839E0,-5.761481438E0,-1.010146031E1,1.206305428E1
4.184976917E0,-1.513826591E0,-1.089565253E1,-1.504658858E1,1.863885037E1
4.194921917E0,-6.009667091E0,-1.552920256E1,-1.804324217E1,2.455261327E1
4.204866917E0,-9.896652228E0,-1.918783229E1,-1.933156270E1,2.897975068E1
4.214811917E0,-1.359366308E1,-2.150410386E1,-2.041781749E1,3.262056759E1
4.224756917E0,-1.728848825E1,-2.235139348E1,-2.169367059E1,3.562431698E1
4.234701917E0,-1.942249041E1,-2.189424880E1,-2.257863265E1,3.696465767E1
4.244647917E0,-1.886003153E1,-2.084238382E1,-2.161406894E1,3.545805591E1
4.254592917E0,-1.627392967E1,-1.975539345E1,-1.804210781E1,3.131507642E1
4.264537917E0,-1.381342250E1,-1.883721453E1,-1.354831559E1,2.700385431E1
4.274482917E0,-1.252046980E1,-1.768082706E1,-9.579562401E0,2.368843231E1
4.284427917E0,-1.140862174E1,-1.636249043E1,-6.771930588E0,2.106529817E1
4.294372917E0,-9.525331814E0,-1.491153193E1,-5.246504291E0,1.845566412E1
4.304317917E0,-7.477536905E0,-1.301927706E1,-4.623000776E0,1.570946433E1
4.314262917E0,-5.890100302E0,-1.126919255E1,-4.782140644E0,1.358517027E1
4.324207917E0,-4.578041242E0,-9.632618866E0,-4.932935073E0,1.175073003E1
4.334153917E0,-3.935132280E0,-8.168761995E0,-4.733645006E0,1.022845705E1
4.344098917E0,-4.008025424E0,-7.386356009E0,-4.381626837E0,9.477403475E0
4.354043917E0,-3.767994298E0,-6.604311381E0,-3.736902314E0,8.472257595E0
4.363988917E0,-3.233102705E0,-5.748121135E0,-2.923914220E0,7.214092046E0
4.373933917E0,-2.904972750E0,-5.081236249E0,-2.127961405E0,6.227844590E0
4.383878917E0,-2.897553218E0,-4.271124986E0,-1.605855918E0,5.405284130E0
4.393823917E0,-2.910122977E0,-3.726603613E0,-1.293280141E0,4.901934695E0
4.403768917E0,-2.740184764E0,-3.019851242E0,-8.683270195E-1,4.169185277E0
4.413713917E0,-2.955435390E0,-2.373920438E0,-8.400668415E-1,3.882757898E0
4.423658917E0,-3.429632885E0,-1.975332704E0,-1.341823141E0,4.179092050E0
4.433604917E0,-3.880480109E0,-1.616987262E0,-2.135185640E0,4.715060064E0
4.443549917E0,-4.376740319E0,-1.301313046E0,-2.730686547E0,5.320330862E0
4.453494917E0,-4.710987046E0,-1.248171796E0,-3.316143107E0,5.894755032E0
4.463439917E0,-4.376708159E0,-9.320853513E-1,-3.907442206E0,5.940745913E0
4.473384917E0,-4.261578822E0,-7.527570945E-1,-4.521625259E0,6.258817163E0
4.483329917E0,-4.634984352E0,-8.665801638E-1,-5.064159456E0,6.919519645E0
4.493274917E0,-5.147553615E0,-7.099326718E-1,-4.944885612E0,7.173089037E0
4.503219917E0,-5.085883031E0,-6.854626590E-1,-4.078388186E0,6.555098433E0
4.513164917E0,-4.300652255E0,-6.973067790E-1,-2.948023460E0,5.260483712E0
4.523110917E0,-3.384260246E0,-3.179072678E-1,-1.636377214E0,3.772534007E0
4.533055917E0,-2.127445680E0,8.157064641E-1,-5.807317176E-1,2.351308463E0
4.543000917E0,-2.497556305E-1,2.807591466E0,3.219552952E-1,2.837005980E0
4.552945917E0,1.791931277E0,5.556586230E0,7.712342960E-1,5.889097603E0
4.562890917E0,3.235206533E0,8.745807336E0,1.420671090E0,9.432603756E0
4.572835917E0,4.194952138E0,1.203999239E1,4.393601350E0,1.348565064E1
4.582780917E0,6.071247042E0,1.552358572E1,9.766271598E0,1.931894964E1
4.592725917E0,1.054864718E1,1.916745708E1,1.615328758E1,2.719547882E1
4.602670917E0,1.720772650E1,2.231500976E1,2.214170764E1,3.583742080E1
4.612616917E0,2.321765614E1,2.536343459E1,2.544367944E1,4.277550928E1
4.622561917E0,2.861664762E1,2.682063558E1,2.641851554E1,4.728844444E1
4.632506917E0,3.324166891E1,2.621165976E1,2.794352551E1,5.072376442E1
4.642451917E0,3.632255280E1,2.425673442E1,3.025618818E1,5.313335986E1
4.652396917E0,3.698930612E1,2.119305772E1,3.136919165E1,5.292807051E1
4.662341917E0,3.407330669E1,1.720819077E1,2.951515417E1,4.825200912E1
4.672286917E0,2.773416713E1,1.269122019E1,2.355472941E1,3.853668867E1
4.682232292E0,2.073317654E1,8.132930843E0,1.551867640E1,2.714476913E1
4.692177292E0,1.470665836E1,3.678155923E0,6.798216162E0,1.661416186E1
4.702123292E0,9.448273698E0,-8.526211059E-1,-1.547753305E0,9.612095449E0
4.712068292E0,4.885573795E0,-5.024548078E0,-8.068124982E0,1.068688708E1
4.722013292E0,1.426377095E0,-8.905550929E0,-1.286783417E1,1.571383292E1
4.731958292E0,-1.588517169E0,-1.223688101E1,-1.640256491E1,2.052580764E1
4.741903292E0,-4.432192388E0,-1.481712513E1,-1.868035011E1,2.425174234E1
4.751848292E0,-7.000716934E0,-1.658113537E1,-2.007712596E1,2.696358794E1
4.761793292E0,-8.915357294E0,-1.750360731E1,-2.091040331E1,2.868980361E1
4.771738292E0,-9.766621846E0,-1.776995266E1,-2.117801868E1,2.932007154E1
4.781683292E0,-1.011778574E1,-1.774200297E1,-2.055540949E1,2.897711368E1
4.791628292E0,-1.013535779E1,-1.792030797E1,-1.829549690E1,2.754247850E1
4.801574292E0,-9.891075153E0,-1.796289207E1,-1.525032897E1,2.555526155E1
4.811519292E0,-9.517765517E0,-1.793390625E1,-1.203573562E1,2.360236822E1
4.821464292E0,-9.447129983E0,-1.797134012E1,-9.519948868E0,2.242424485E1
4.831409292E0,-9.680856641E0,-1.770440304E1,-7.872545559E0,2.165968249E1
4.841354292E0,-9.750297589E0,-1.718437974E1,-6.704937869E0,2.086450100E1
4.851299292E0,-9.207747313E0,-1.637882521E1,-6.053168036E0,1.974055139E1
4.861244292E0,-7.977563306E0,-1.535449360E1,-5.706015919E0,1.821978616E1
4.871189292E0,-6.706532990E0,-1.416360639E1,-5.376343469E0,1.656775181E1
4.881134292E0,-5.968603849E0,-1.293465381E1,-5.004661113E0,1.509887857E1
4.891080292E0,-5.691310172E0,-1.191015146E1,-4.724048556E0,1.401996270E1
4.901025292E0,-5.456028739E0,-1.096196931E1,-4.464037202E0,1.303305984E1
4.910970292E0,-5.147721430E0,-1.005834762E1,-4.100834185E0,1.202024267E1
4.920915292E0,-4.792491969E0,-9.074139020E0,-3.414241552E0,1.081503692E1
4.930860292E0,-4.567524440E0,-8.174392864E0,-2.597460662E0,9.717498655E0
4.940805292E0,-4.600765861E0,-7.446649573E0,-1.913435249E0,8.959959310E0
4.950750292E0,-4.389412989E0,-6.683307264E0,-1.690022494E0,8.172497685E0
4.960695292E0,-3.792411101E0,-5.768256606E0,-1.481024588E0,7.060354104E0
4.970640292E0,-3.328665504E0,-4.799232055E0,-1.346634230E0,5.993835676E0
4.980586292E0,-2.822633429E0,-3.911892521E0,-1.840105902E0,5.162959646E0
4.990531292E0,-2.572571989E0,-2.553108947E0,-2.590692510E0,4.455129584E0
5.000476292E0,-2.722568858E0,-1.473787782E0,-3.643356804E0,4.781054320E0
5.010421292E0,-2.705572756E0,-7.860786223E-1,-4.750582928E0,5.523231092E0
5.020366292E0,-2.375277577E0,3.306413341E-1,-5.400554450E0,5.909082469E0
5.030311292E0,-2.027441336E0,1.422792460E0,-5.595135169E0,6.118855638E0
5.040256292E0,-1.747778367E0,2.262228971E0,-5.038922873E0,5.793371459E0
5.050201292E0,-1.344594136E0,3.233276367E0,-3.722364089E0,5.110577646E0
5.060146292E0,-7.337308395E-1,4.472337909E0,-1.986585086E0,4.948402532E0
5.070092292E0,1.649300730E-1,5.773089330E0,5.591166079E-1,5.802445495E0
5.080037292E0,7.608858937E-1,7.151461077E0,3.190491413E0,7.867755610E0
5.089982292E0,6.786155695E-1,9.326836385E0,6.229807159E0,1.123658726E1
5.099927292E0,2.020681955E0,1.291654732E1,1.000372761E1,1.646192323E1
5.109872292E0,6.007505960E0,1.758069232E1,1.447401052E1,2.355138745E1
5.119817292E0,1.410069620E1,2.265763087E1,2.015255972E1,3.344134467E1
5.129762292E0,2.597594914E1,2.688021169E1,2.420079996E1,4.453060108E1
5.139707292E0,3.770592684E1,2.955920943E1,2.462588786E1,5.386945455E1
5.149652292E0,4.639657564E1,3.018825523E1,2.461880103E1,6.058100650E1
5.159598292E0,5.046753815E1,2.744280271E1,2.622881315E1,6.315085484E1
5.169543292E0,4.833600819E1,2.264200477E1,2.758164134E1,6.008141981E1
5.179488292E0,4.107901013E1,1.690011852E1,2.732159695E1,5.214948456E1
5.189433292E0,3.144416465E1,1.067663337E1,2.495876751E1,4.154113703E1
5.199378292E0,2.171320965E1,5.173385444E0,2.017270221E1,3.008596525E1
5.209323292E0,1.425840262E1,6.536228156E-1,1.273525908E1,1.912893337E1
5.219268292E0,9.336297764E0,-3.280582681E0,4.188978623E0,1.074598625E1
5.229213292E0,6.423716617E0,-6.855728205E0,-4.627085933E0,1.047258653E1
5.239158292E0,4.269174939E0,-1.049963699E1,-1.303459676E1,1.727335938E1
5.249104292E0,4.510419363E-1,-1.381713665E1,-2.010486749E1,2.439922951E1
5.259049292E0,-5.330258639E0,-1.683143947E1,-2.509356454E1,3.068217712E1
5.268994292E0,-1.122983494E1,-1.881207150E1,-2.782009781E1,3.541131273E1
5.278939292E0,-1.561569574E1,-1.961444515E1,-2.806893192E1,3.763563937E1
5.288884292E0,-1.754386071E1,-1.972536215E1,-2.522564612E1,3.651315082E1
5.298829292E0,-1.648441657E1,-1.936999996E1,-1.964310820E1,3.213696606E1
5.308774292E0,-1.405261338E1,-1.843984945E1,-1.377690079E1,2.696862966E1
5.318719292E0,-1.221041066E1,-1.736209066E1,-9.276052732E0,2.316422835E1
5.328664292E0,-1.157684614E1,-1.646917639E1,-6.134698103E0,2.104499129E1
5.338610292E0,-1.208325010E1,-1.563486759E1,-4.008793749E0,2.016245136E1
5.348555292E0,-1.257043075E1,-1.455599199E1,-3.368396165E0,1.952533546E1
5.358500292E0,-1.201298527E1,-1.311985852E1,-3.842778432E0,1.819916066E1
5.368445292E0,-1.058981742E1,-1.162128965E1,-4.695607114E0,1.640875780E1
5.378390292E0,-8.739877090E0,-1.019652434E1,-5.635449967E0,1.456409477E1
5.388335292E0,-7.301560857E0,-8.984337482E0,-6.201936405E0,1.313373999E1
5.398280292E0,-6.427520816E0,-8.128275874E0,-6.279372836E0,1.211661734E1
5.408225292E0,-6.091014140E0,-7.653122944E0,-6.007842175E0,1.147888983E1
5.418170292E0,-5.848213772E0,-7.360300232E0,-5.498239204E0,1.089065003E1
5.428116292E0,-5.470144503E0,-7.034560034E0,-4.511149680E0,9.987892029E0
5.438061292E0,-4.919097637E0,-6.691436648E0,-3.397478462E0,8.973054434E0
5.448006292E0,-4.426507725E0,-6.285946276E0,-2.478378315E0,8.077713185E0
5.457951292E0,-4.191774761E0,-6.050197066E0,-1.749819045E0,7.565561901E0
5.467896292E0,-3.791076767E0,-5.676572265E0,-1.176152810E0,6.926692657E0
5.477841292E0,-3.549027182E0,-5.222359384E0,-8.942217064E-1,6.377167391E0
5.487786292E0,-4.155451273E0,-5.125060546E0,-7.984823209E-1,6.646171446E0
5.497731292E0,-4.943682840E0,-4.940534114E0,-1.136974419E0,7.081072531E0
5.507676292E0,-5.562773754E0,-4.743323318E0,-1.713520115E0,7.508642961E0
5.517622292E0,-5.653052425E0,-4.272725369E0,-2.136012729E0,7.401063043E0
5.527567292E0,-5.547310207E0,-3.823943966E0,-2.371745859E0,7.142854920E0
5.537512292E0,-5.379215037E0,-3.267077951E0,-1.970366079E0,6.594853693E0
5.547457292E0,-4.906292819E0,-2.613365381E0,-1.733414682E0,5.822895697E0
5.557402292E0,-4.103481220E0,-1.856212935E0,-1.884655253E0,4.882213638E0
5.567347292E0,-3.084389300E0,-7.749139488E-1,-2.007535075E0,3.760870386E0
5.577292292E0,-1.973384412E0,4.796435916E-1,-2.150993880E0,2.958222217E0
5.587237292E0,-2.774591535E-1,1.548213481E0,-2.106055981E0,2.628577631E0
5.597182292E0,1.554489883E0,3.153160742E0,-1.799508684E0,3.949315506E0
5.607128292E0,2.174035125E0,5.127974213E0,-1.639679722E0,5.806125890E0
5.617073292E0,3.393307058E0,7.613631434E0,-3.804724753E-1,8.344260046E0
5.627018292E0,7.086559907E0,1.090733293E1,3.756838980E0,1.353894686E1
5.636963292E0,1.396864736E1,1.450221164E1,1.253068722E1,2.371614163E1
5.646908292E0,2.460189322E1,1.779721472E1,2.328648254E1,3.826557554E1
5.656853292E0,3.500534117E1,1.979195960E1,3.071730429E1,5.060284931E1
5.666798292E0,3.881685805E1,2.091521908E1,3.229720091E1,5.465623518E1
5.676743292E0,3.671280533E1,2.085989974E1,2.949677988E1,5.150752873E1
5.686687292E0,3.405300048E1,1.990225446E1,2.688934738E1,4.773618729E1
5.696632292E0,3.277506344E1,1.832253676E1,2.722617740E1,4.638086753E1
5.706578292E0,3.120468608E1,1.610097137E1,2.879360308E1,4.540974886E1
5.716523292E0,2.834115255E1,1.276005127E1,2.729591598E1,4.136552750E1
5.726468292E0,2.303037683E1,8.619799839E0,2.186078402E1,3.290278232E1
5.736413292E0,1.588045767E1,4.682919241E0,1.318368906E1,2.116431728E1
5.746358292E0,9.627614234E0,1.384725916E0,3.213177733E0,1.024367770E1
5.756303292E0,5.678574936E0,-1.220288764E0,-5.757390726E0,8.178194540E0
5.766248292E0,3.415736393E0,-4.007527242E0,-1.276100788E1,1.380474019E1
5.776193292E0,1.069318918E0,-7.358939584E0,-1.775058668E1,1.924527896E1
5.786138292E0,-2.291288756E0,-1.029090776E1,-2.138542643E1,2.384301261E1
5.796084292E0,-5.849265686E0,-1.269221539E1,-2.416852567E1,2.791816386E1
5.806029292E0,-9.451605442E0,-1.406625376E1,-2.567134429E1,3.076053085E1
5.815974292E0,-1.209054742E1,-1.472880995E1,-2.617284828E1,3.237494659E1
5.825919292E0,-1.338590917E1,-1.491784459E1,-2.487423782E1,3.194452001E1
5.835864292E0,-1.309324667E1,-1.546850261E1,-2.140292130E1,2.947529002E1
5.845809292E0,-1.219786020E1,-1.594355146E1,-1.783236818E1,2.685103316E1
5.855754292E0,-1.191822179E1,-1.583069903E1,-1.474499271E1,2.469959215E1
5.865699292E0,-1.214735663E1,-1.544880919E1,-1.211073201E1,2.308449281E1
5.875644292E0,-1.215053050E1,-1.494447749E1,-1.023114103E1,2.180937976E1
5.885590292E0,-1.156345601E1,-1.452255644E1,-8.902051370E0,2.058797414E1
5.895535292E0,-9.847536786E0,-1.358976884E1,-7.602516462E0,1.842427894E1
5.905480292E0,-7.514895351E0,-1.224916601E1,-6.838321044E0,1.591472132E1
5.915425292E0,-5.633563070E0,-1.098051668E1,-6.612435502E0,1.400118147E1
5.925370292E0,-5.046942914E0,-1.003429451E1,-6.646221299E0,1.305109025E1
5.935315292E0,-4.990734800E0,-9.130549448E0,-6.697572716E0,1.237464534E1
5.945260292E0,-4.684461737E0,-8.341602182E0,-6.716957406E0,1.168948354E1
5.955205292E0,-4.641035051E0,-7.716733634E0,-6.106551946E0,1.088012688E1
5.965151292E0,-4.641574749E0,-7.076505035E0,-4.886283063E0,9.772251625E0
5.975096292E0,-4.493241413E0,-6.420197178E0,-3.731287817E0,8.679323647E0
5.985041292E0,-4.150606855E0,-5.771084905E0,-2.913327252E0,7.682475767E0
5.994986292E0,-3.519692870E0,-4.985219121E0,-2.427896963E0,6.567749329E0
6.004931292E0,-3.112931314E0,-4.233689942E0,-2.322359106E0,5.745243572E0
6.014876292E0,-2.775301972E0,-3.623220455E0,-2.518872914E0,5.212940462E0
6.024821292E0,-2.620425017E0,-2.948554972E0,-2.674629875E0,4.765946775E0
6.034766292E0,-3.229978538E0,-2.482423126E0,-2.520047620E0,4.790180157E0
6.044711292E0,-4.009340463E0,-2.134698274E0,-2.161357192E0,5.030229874E0
6.054656292E0,-3.796693017E0,-1.575832220E0,-1.810294458E0,4.491691338E0
6.064602292E0,-3.160457482E0,-5.941218415E-1,-1.690646977E0,3.633147322E0
6.074547292E0,-2.505298603E0,2.110119796E-1,-1.843746671E0,3.117763450E0
6.084492292E0,-2.058952566E0,9.708944911E-1,-1.661373184E0,2.818170087E0
6.094437292E0,-1.641702858E0,1.733677806E0,-1.180278606E0,2.663434737E0
6.104382292E0,-6.356397039E-1,2.923340316E0,-9.948938030E-1,3.152740097E0
6.114327292E0,1.006716873E0,4.475320866E0,-1.226761047E0,4.748359546E0
6.124272292E0,2.946782681E0,6.882986171E0,-1.080220467E0,7.564780436E0
6.134217292E0,5.526121067E0,9.511254058E0,1.915559542E-1,1.100175720E1
6.144163292E0,9.621605635E0,1.250359123E1,4.668874814E0,1.645337292E1
6.154108292E0,1.774880913E1,1.628241164E1,1.371363274E1,2.771643696E1
6.164053292E0,3.044531053E1,1.974897321E1,2.265693154E1,4.278171832E1
6.173998292E0,4.128689502E1,2.228633735E1,2.609706369E1,5.368747774E1
6.183943292E0,4.465540112E1,2.376888953E1,2.296325080E1,5.555516039E1
6.193888292E0,4.175354961E1,2.311141223E1,1.803275928E1,5.101643546E1
6.203833292E0,3.845040369E1,2.083046486E1,1.494233390E1,4.621271635E1
6.213778292E0,3.588153241E1,1.816219324E1,1.681049942E1,4.358833011E1
6.223723292E0,3.254571927E1,1.498622310E1,2.112996860E1,4.159671019E1
6.233669292E0,2.693345877E1,1.082788330E1,2.142948871E1,3.608153606E1
6.243614292E0,1.894806254E1,5.668248754E0,1.721289778E1,2.621911455E1
6.253559292E0,9.891006156E0,6.217894042E-1,1.082038600E1,1.467308345E1
6.263504292E0,2.611323826E0,-3.418442192E0,3.216053978E0,5.371011295E0
6.273449292E0,-1.236046425E0,-6.539943477E0,-4.895108850E0,8.262007147E0
6.283394292E0,-3.753163421E0,-9.185635482E0,-1.260404522E1,1.604132447E1
6.293339292E0,-6.451677418E0,-1.230255577E1,-1.821379726E1,2.290675513E1
6.303284292E0,-9.704933136E0,-1.515269216E1,-2.125942127E1,2.785233922E1
6.313230292E0,-1.345872806E1,-1.698851439E1,-2.259652045E1,3.131053686E1
6.323175292E0,-1.729938863E1,-1.785375963E1,-2.205546589E1,3.323355466E1
6.333120292E0,-1.897980122E1,-1.766539275E1,-1.926401800E1,3.230172356E1
6.343065292E0,-1.779541027E1,-1.687440130E1,-1.459515196E1,2.853840406E1
6.353010292E0,-1.502026910E1,-1.559442942E1,-9.743058736E0,2.374282852E1
6.362955292E0,-1.247031472E1,-1.433382001E1,-6.107119710E0,1.995655423E1
6.372900292E0,-1.186895900E1,-1.336651279E1,-3.860722075E0,1.828772886E1
6.382845292E0,-1.221430491E1,-1.241478722E1,-2.587735281E0,1.760717354E1
6.392791292E0,-1.210306748E1,-1.132688235E1,-2.364329835E0,1.674432924E1
6.402736292E0,-1.065119682E1,-9.868963323E0,-2.645151722E0,1.475944641E1
6.412681292E0,-8.223986024E0,-8.064384518E0,-2.854923508E0,1.186671109E1
6.422626292E0,-6.077595949E0,-6.573975441E0,-2.893466014E0,9.408850684E0
6.432571292E0,-5.030946102E0,-5.611619055E0,-2.526904065E0,7.948957872E0
6.442516292E0,-5.178355578E0,-5.282149503E0,-1.986400899E0,7.659129088E0
6.452461292E0,-5.459420709E0,-5.176333026E0,-1.786272342E0,7.732429563E0
6.462407292E0,-4.880310132E0,-4.763085737E0,-2.099673160E0,7.135337420E0
6.472352292E0,-4.027824097E0,-4.312253716E0,-2.067964587E0,6.252629575E0
6.482297292E0,-3.569215863E0,-4.047210540E0,-1.781326182E0,5.682634776E0
6.492242292E0,-3.488289229E0,-3.786631714E0,-1.651621490E0,5.406902535E0
6.502187292E0,-3.576117917E0,-3.634516398E0,-1.778780889E0,5.400221315E0
6.512132292E0,-3.475684971E0,-3.585837743E0,-2.111002725E0,5.421711063E0
6.522077292E0,-3.437718415E0,-3.447602549E0,-2.444341965E0,5.447814137E0
6.532022292E0,-3.720504967E0,-3.330937148E0,-2.683333164E0,5.669001355E0
6.541968292E0,-4.245808296E0,-3.391775088E0,-2.892246577E0,6.155982180E0
6.551913292E0,-4.694538243E0,-3.408404569E0,-3.075839209E0,6.566330624E0
6.561858292E0,-5.005567431E0,-3.405922426E0,-3.180382454E0,6.838921365E0
6.571803292E0,-4.993263136E0,-3.223271196E0,-3.300888306E0,6.798383452E0
6.581748292E0,-4.600798021E0,-2.812065171E0,-3.459926140E0,6.406726298E0
6.591693292E0,-4.643118414E0,-2.499133299E0,-3.790853988E0,6.494212024E0
6.601638292E0,-4.751577247E0,-2.024614207E0,-4.028141600E0,6.549997998E0
6.611583292E0,-4.290986223E0,-1.371064482E0,-4.024350266E0,6.040511207E0
6.621529292E0,-3.081882014E0,-4.245996577E-1,-4.124065173E0,5.165868288E0
6.631474292E0,-2.632901221E0,7.105606627E-1,-4.477221796E0,5.242383075E0
6.641419292E0,-3.395143084E0,2.276695860E0,-4.343410020E0,5.964524390E0
6.651364292E0,-4.182831445E0,4.596510842E0,-1.920496639E0,6.504790401E0
6.661309292E0,-2.133663025E0,7.822026200E0,3.607158446E0,8.874018472E0
6.671254292E0,4.646709189E0,1.194435066E1,1.100093983E1,1.689023671E1
6.681199292E0,1.554517131E1,1.578960246E1,1.739864979E1,2.817227203E1
6.691146375E0,2.622277649E1,1.942408085E1,1.995948466E1,3.825323453E1
6.701091375E0,3.193549916E1,2.258899625E1,1.914431380E1,4.355047198E1
6.711036375E0,3.396481512E1,2.408852640E1,1.854628515E1,4.558322567E1
6.720981375E0,3.619936366E1,2.355616548E1,2.080327998E1,4.793811969E1
6.730926375E0,3.888493134E1,2.217984552E1,2.486686097E1,5.120882939E1
6.740871375E0,3.988332002E1,2.000214127E1,2.789521816E1,5.262041493E1
6.750816375E0,3.660930259E1,1.689864619E1,2.755713683E1,4.883852035E1
6.760761375E0,2.872338972E1,1.332405265E1,2.280382296E1,3.902022344E1
6.770707375E0,2.010942364E1,9.788802674E0,1.444612982E1,2.662518064E1
6.780652375E0,1.230135826E1,6.040355033E0,4.881456771E0,1.454778073E1
6.790597375E0,5.394585612E0,2.348000901E0,-3.676097703E0,6.937460377E0
6.800542375E0,2.470852071E-1,-1.061673099E0,-9.898405223E0,9.958244164E0
6.810487375E0,-3.559028260E0,-4.593370303E0,-1.378272461E1,1.495758104E1
6.820432375E0,-6.795181457E0,-8.085628037E0,-1.571581996E1,1.893512262E1
6.830377375E0,-9.901008403E0,-1.121158578E1,-1.589740524E1,2.182789766E1
6.840322375E0,-1.251764442E1,-1.383500808E1,-1.570737541E1,2.438894243E1
6.850268375E0,-1.465409072E1,-1.505150492E1,-1.663511452E1,2.679584316E1
6.860213375E0,-1.670388363E1,-1.537653527E1,-1.847498069E1,2.927084687E1
6.870158375E0,-1.814913173E1,-1.508660810E1,-1.938103131E1,3.053884578E1
6.880103375E0,-1.726175595E1,-1.497170095E1,-1.789478604E1,2.902315309E1
6.890048375E0,-1.491662018E1,-1.460015718E1,-1.453490693E1,2.543489073E1
6.899993375E0,-1.256593775E1,-1.395283883E1,-1.061352204E1,2.156922235E1
6.909938375E0,-1.038475440E1,-1.325941986E1,-6.630076552E0,1.810008989E1
6.919884375E0,-8.411827826E0,-1.239215382E1,-3.511407366E0,1.538357258E1
6.929829375E0,-6.938073374E0,-1.138105095E1,-1.588068688E0,1.342338054E1
6.939774375E0,-6.187452852E0,-1.024759159E1,-1.276561782E0,1.203857617E1
6.949719375E0,-6.119916927E0,-9.259730229E0,-2.220451785E0,1.131929297E1
6.959664375E0,-6.082015859E0,-8.263259432E0,-3.057379841E0,1.070607047E1
6.969609375E0,-5.571764433E0,-7.341360515E0,-3.338487657E0,9.802327935E0
6.979554375E0,-4.416914198E0,-6.489163333E0,-3.029702631E0,8.414123236E0
6.989499375E0,-2.596688245E0,-5.324132511E0,-2.081601171E0,6.278713266E0
6.999445375E0,-1.737496623E0,-4.227445115E0,-1.027431219E0,4.684634631E0
7.009390375E0,-1.912167572E0,-3.624038773E0,-2.674288398E-1,4.106282995E0
7.019335375E0,-2.162263511E0,-2.814995795E0,2.944365442E-3,3.549590609E0
7.029280375E0,-2.879936727E0,-2.333133186E0,-4.845207542E-2,3.706736248E0
7.039225375E0,-3.655937088E0,-2.074272271E0,-6.257263345E-1,4.249707624E0
7.049170375E0,-4.194186153E0,-1.706946090E0,-1.419810964E0,4.745600659E0
7.059115375E0,-4.188743564E0,-1.436467343E0,-2.109330422E0,4.904924658E0
7.069061375E0,-3.743435993E0,-9.771001410E-1,-2.782852189E0,4.765742757E0
7.079006375E0,-3.697863379E0,-6.346293050E-1,-3.297072121E0,4.994760504E0
7.088951375E0,-4.333843390E0,-6.934172112E-1,-3.577209007E0,5.662106520E0
7.098896375E0,-4.948287522E0,-1.000448658E0,-3.588243288E0,6.193701382E0
7.108841375E0,-5.066156280E0,-1.188886877E0,-3.375943459E0,6.202933636E0
7.118786375E0,-4.982631728E0,-1.140309379E0,-2.875250768E0,5.864639068E0
7.128731375E0,-4.831144404E0,-1.059723637E0,-2.397672121E0,5.496526361E0
7.138677375E0,-4.214768352E0,-5.784065723E-1,-2.043539598E0,4.719627158E0
7.148622375E0,-3.287675353E0,-2.334910154E-2,-1.955242256E0,3.825222436E0
7.158567375E0,-2.278103285E0,6.254287112E-1,-1.277235089E0,2.685562348E0
7.168512375E0,-1.523794924E0,1.528565083E0,5.197996375E-1,2.220057172E0
7.178457375E0,-9.354738128E-1,2.620026237E0,2.018032874E0,3.436874367E0
7.188402375E0,-6.072403622E-1,4.189155208E0,2.680311030E0,5.010172595E0
7.198347375E0,-1.881768483E-1,6.149941210E0,3.829307617E0,7.247122479E0
7.208292375E0,6.161643827E-1,8.581909881E0,5.918095601E0,1.044282966E1
7.218238375E0,1.966437920E0,1.147767736E1,8.435917186E0,1.437945251E1
7.228183375E0,5.099892960E0,1.438968899E1,1.135222652E1,1.902485491E1
7.238128375E0,8.289067873E0,1.651699726E1,1.439293770E1,2.342384470E1
7.248073375E0,9.655703673E0,1.828922985E1,1.766357076E1,2.719798290E1
7.258018375E0,1.135726214E1,1.970503957E1,2.025459130E1,3.045528618E1
7.267963375E0,1.475633981E1,2.042738120E1,2.149332393E1,3.312084602E1
7.277908375E0,1.798985943E1,2.050995324E1,2.105376067E1,3.446090629E1
7.287853375E0,1.975020580E1,2.022000151E1,1.963125004E1,3.441373372E1
7.297799375E0,2.078026066E1,1.925052497E1,1.918988116E1,3.421481380E1
7.307744375E0,2.133597302E1,1.733092500E1,1.985232625E1,3.390721993E1
7.317689375E0,2.054378523E1,1.449283387E1,2.023262682E1,3.227148173E1
7.327634375E0,1.768614920E1,1.081755010E1,1.931622428E1,2.833612154E1
7.337579375E0,1.361228296E1,6.927815604E0,1.580347790E1,2.197814347E1
7.347524375E0,9.341569029E0,3.291987090E0,9.373135808E0,1.363663323E1
7.357469375E0,5.338318441E0,-1.013100278E-1,1.632304628E0,5.583218238E0
7.367415375E0,2.287833636E0,-3.267089061E0,-5.514384536E0,6.805621977E0
7.377360375E0,1.817136285E-1,-6.152536789E0,-1.120037900E1,1.278026677E1
7.387305375E0,-1.845789103E0,-8.577917402E0,-1.528407676E1,1.762358098E1
7.397250375E0,-3.804888475E0,-1.052441983E1,-1.761073883E1,2.086573054E1
7.407195375E0,-5.600725107E0,-1.198133547E1,-1.863654978E1,2.285260399E1
7.417140375E0,-6.961095031E0,-1.258918511E1,-1.948526027E1,2.422023521E1
7.427085375E0,-7.687498725E0,-1.237791000E1,-2.049377984E1,2.514568163E1
7.437030375E0,-8.025585904E0,-1.156436350E1,-2.120343068E1,2.545054036E1
7.446976375E0,-7.324398327E0,-1.062419671E1,-2.148967527E1,2.506644191E1
7.456921375E0,-6.407098246E0,-1.034266965E1,-2.039179504E1,2.374546333E1
7.466866375E0,-7.382077602E0,-1.096639448E1,-1.623264950E1,2.093455964E1
7.476811375E0,-8.060014894E0,-1.189503056E1,-1.144597376E1,1.837024516E1
7.486756375E0,-6.986502938E0,-1.265244847E1,-7.726135372E0,1.638868034E1
7.496701375E0,-4.647854074E0,-1.297900611E1,-4.469709878E0,1.449259996E1
7.506646375E0,-2.730460552E0,-1.317559067E1,-2.118336303E0,1.362126841E1
7.516592375E0,-1.427248769E0,-1.349759333E1,-1.275361934E0,1.363263044E1
7.526537375E0,-1.869185275E-1,-1.356146714E1,-1.423529794E0,1.363725657E1
7.536482375E0,6.451253495E-1,-1.313581323E1,-2.057262136E0,1.331157780E1
7.546427375E0,5.814424467E-1,-1.306302358E1,-3.011145907E0,1.341818394E1
7.556372375E0,8.930130869E-2,-1.319635647E1,-3.472738559E0,1.364594123E1
7.566317375E0,-5.395731667E-1,-1.316590300E1,-3.103440113E0,1.353748432E1
7.576262375E0,-1.512287019E0,-1.309982713E1,-2.109729202E0,1.335452882E1
7.586207375E0,-2.593328142E0,-1.292774240E1,-1.420606186E0,1.326159856E1
7.596153375E0,-3.649600753E0,-1.251254799E1,-9.658711481E-1,1.306967291E1
7.606098375E0,-4.774530492E0,-1.183831842E1,-1.273214251E0,1.282821106E1
7.616043375E0,-5.377014145E0,-1.079757718E1,-2.499667150E0,1.231861559E1
7.625988375E0,-5.300833111E0,-9.679426997E0,-4.292881891E0,1.184140927E1
7.635933375E0,-5.158408971E0,-8.122065547E0,-5.939643760E0,1.130736485E1
7.645878375E0,-5.691801338E0,-6.626899760E0,-7.408083093E0,1.145391191E1
7.655823375E0,-6.173327149E0,-5.351169451E0,-8.576333392E0,1.184476581E1
7.665769375E0,-5.403664584E0,-4.002890984E0,-8.929816289E0,1.117874528E1
7.675714375E0,-3.984564056E0,-1.917056429E0,-8.626163363E0,9.693428209E0
7.685658500E0,-2.728805498E0,-1.557183695E-1,-8.764869844E0,9.181153034E0
7.695603500E0,-1.807809976E0,1.485786853E0,-8.069525390E0,8.401962836E0
7.705548500E0,-1.749177021E0,2.708170089E0,-5.660401790E0,6.514134932E0
7.715493500E0,-1.795988660E0,3.894471912E0,-2.479353338E0,4.953754103E0
7.725438500E0,-6.592858440E-1,5.533504931E0,9.954194677E-1,5.660847513E0
7.735383500E0,-5.019086194E-1,7.335340222E0,4.604950714E0,8.675523011E0
7.745329500E0,-1.685305545E0,9.510720207E0,7.299457614E0,1.210686314E1
7.755274500E0,-1.740030806E0,1.234958609E1,8.169826773E0,1.490926066E1
7.765219500E0,1.410018048E0,1.526366763E1,9.511187400E0,1.803968920E1
7.775164500E0,6.274155366E0,1.833286177E1,1.412813601E1,2.398047276E1
7.785109500E0,1.380787232E1,2.050281730E1,2.063912291E1,3.220242614E1
7.795054500E0,2.380815475E1,2.203294476E1,2.731594152E1,4.240801278E1
7.804999500E0,3.155213933E1,2.343264188E1,3.230508061E1,5.087479175E1
7.814945500E0,3.356429722E1,2.396278320E1,3.390547523E1,5.338874673E1
7.824890500E0,3.107444754E1,2.363105428E1,3.254727229E1,5.082689199E1
7.834835500E0,2.761152295E1,2.225340116E1,2.900218496E1,4.581197218E1
7.844780500E0,2.478170212E1,2.092467753E1,2.402031746E1,4.036025943E1
7.854725500E0,2.182798581E1,1.919984949E1,1.753870230E1,3.395145451E1
7.864670500E0,1.846775002E1,1.654035572E1,9.467008177E0,2.653799921E1
7.874615500E0,1.425380905E1,1.253392775E1,9.939620492E-1,1.900679820E1
7.884560500E0,8.848950466E0,7.078048700E0,-6.570945999E0,1.309885602E1
7.894506500E0,3.011217828E0,8.752825749E-1,-1.166080046E1,1.207509088E1
7.904451500E0,-2.731618593E0,-5.135659794E0,-1.451493635E1,1.563713909E1
7.914396500E0,-7.971724277E0,-1.059402274E1,-1.602021314E1,2.079492570E1
7.924341500E0,-1.241421887E1,-1.515404871E1,-1.648715541E1,2.560438080E1
7.934286500E0,-1.590333899E1,-1.847271548E1,-1.675472634E1,2.957834111E1
7.944231500E0,-1.811517812E1,-2.045128929E1,-1.745191208E1,3.241888566E1
7.954176500E0,-1.862950038E1,-2.123678319E1,-1.762188947E1,3.329549869E1
7.964121500E0,-1.707256461E1,-2.137713040E1,-1.647856234E1,3.193739475E1
7.974067500E0,-1.496189634E1,-2.118186615E1,-1.415386961E1,2.954423498E1
7.984012500E0,-1.247484982E1,-2.047987516E1,-1.150239471E1,2.659609462E1
7.993957500E0,-1.022637438E1,-1.945113007E1,-8.581791767E0,2.359178552E1
8.003902500E0,-8.789574915E0,-1.870893247E1,-5.839183917E0,2.147968459E1
8.013847500E0,-7.784843756E0,-1.771245699E1,-3.466687568E0,1.965586039E1
8.023792500E0,-6.761559382E0,-1.643021756E1,-1.579121863E0,1.783716234E1
8.033737500E0,-5.752152205E0,-1.501413888E1,-8.934545517E-3,1.607829907E1
8.043683500E0,-4.859906858E0,-1.337081751E1,8.462257138E-1,1.425179124E1
8.053628500E0,-4.103272474E0,-1.177909899E1,9.776258057E-1,1.251158544E1
8.063573500E0,-3.118153462E0,-9.953128145E0,8.975882408E-1,1.046868213E1
8.073518500E0,-2.362745824E0,-8.140948545E0,6.927836654E-1,8.505149043E0
8.083463500E0,-1.757905744E0,-6.363664543E0,5.648881021E-1,6.626126892E0
8.093408500E0,-1.099306948E0,-4.466537179E0,2.533320799E-1,4.606800113E0
8.103353500E0,-4.904977781E-1,-2.436313738E0,-4.457513756E-1,2.524857815E0
8.113298500E0,-5.766898298E-1,-8.282923034E-1,-1.175233043E0,1.549132663E0
8.123244500E0,-1.120736409E0,4.206329066E-1,-1.560707227E0,1.966923788E0
8.133189500E0,-1.258499733E0,1.717393311E0,-1.443116504E0,2.572128808E0
8.143134500E0,-1.328542360E0,2.860635945E0,-1.373437867E0,3.440144530E0
8.153079500E0,-1.737080886E0,3.445962989E0,-1.162908282E0,4.030442482E0
8.163024500E0,-1.836771820E0,4.072793570E0,-8.302560908E-1,4.544304497E0
8.172969500E0,-2.014983843E0,4.497375979E0,-1.216086662E0,5.075964672E0
8.182914500E0,-2.561051804E0,4.714910820E0,-2.175545461E0,5.789850468E0
8.192859500E0,-3.067945175E0,4.775571004E0,-3.080816066E0,6.458311982E0
8.202805500E0,-3.135661195E0,4.659544412E0,-3.653766017E0,6.700278454E0
8.212750500E0,-2.565530187E0,4.572997727E0,-3.507144453E0,6.308273580E0
8.222695500E0,-1.234681100E0,4.507718242E0,-2.149235037E0,5.144236815E0
8.232640500E0,1.633811456E-1,4.211068819E0,-8.804675934E-1,4.305231373E0
8.242585500E0,1.184436561E0,3.991276952E0,-9.895476937E-1,4.279297409E0
8.252530500E0,1.572804531E0,3.852763430E0,-1.947954871E0,4.594782729E0
8.262475500E0,1.824086285E0,4.021847658E0,-2.208122931E0,4.937444302E0
8.272421500E0,2.545078381E0,5.080287831E0,-1.101543508E0,5.787931108E0
8.282366500E0,4.755580251E0,7.126509839E0,1.944988286E0,8.785537288E0
8.292311500E0,1.056352600E1,1.030378333E1,6.407685306E0,1.608771157E1
8.302256500E0,1.895092767E1,1.327470916E1,1.027499866E1,2.531661826E1
8.312201500E0,2.577744319E1,1.533330329E1,1.295765559E1,3.267242883E1
8.322146500E0,2.825836533E1,1.688594604E1,1.489254252E1,3.613112519E1
8.332091500E0,2.941632219E1,1.734946886E1,1.534441417E1,3.744028749E1
8.342036500E0,3.116223530E1,1.729694332E1,1.482256655E1,3.860022845E1
8.351981500E0,3.195870559E1,1.703138734E1,1.424890908E1,3.891604333E1
8.361927500E0,3.162294444E1,1.659526692E1,1.278920549E1,3.793385396E1
8.371872500E0,2.996941968E1,1.573509355E1,9.705148898E0,3.521291240E1
8.381817500E0,2.605232313E1,1.409313224E1,5.612007895E0,3.014688292E1
8.391762500E0,2.045172199E1,1.121934620E1,1.823348659E0,2.339810381E1
8.401707500E0,1.403353274E1,6.755559554E0,-1.657402632E0,1.566284168E1
8.411652500E0,7.043151932E0,1.611639984E0,-4.754339472E0,8.649110729E0
8.421597500E0,5.887777787E-1,-3.295541028E0,-7.363478778E0,8.088761936E0
8.431543500E0,-4.422814039E0,-7.725058315E0,-9.424698894E0,1.296390216E1
8.441488500E0,-8.196281916E0,-1.158304419E1,-1.125875644E1,1.811368395E1
8.451433500E0,-1.153546539E1,-1.454425663E1,-1.316870265E1,2.275998884E1
8.461378500E0,-1.506520378E1,-1.643019066E1,-1.508484575E1,2.691587081E1
8.471323500E0,-1.852403532E1,-1.734809476E1,-1.654436691E1,3.029541802E1
8.481268500E0,-2.097825908E1,-1.754377885E1,-1.643535960E1,3.190599592E1
8.491213500E0,-2.088278808E1,-1.757976145E1,-1.409973960E1,3.072363109E1
8.501158500E0,-1.892403633E1,-1.699517788E1,-1.018740152E1,2.739960532E1
8.511104500E0,-1.704744497E1,-1.598576836E1,-5.960085626E0,2.411810089E1
8.521049500E0,-1.580018943E1,-1.467706794E1,-2.119861842E0,2.166924373E1
8.530994500E0,-1.510776917E1,-1.347125630E1,1.168468984E0,2.027522516E1
8.540939500E0,-1.389259146E1,-1.227576616E1,3.416264981E0,1.885124396E1
8.550884500E0,-1.214893538E1,-1.071515015E1,4.600243997E0,1.683963534E1
8.560829500E0,-1.051059701E1,-9.084588579E0,4.978507687E0,1.475763998E1
8.570774500E0,-9.583331516E0,-7.801380267E0,4.496644200E0,1.314996525E1
8.580720500E0,-8.735394030E0,-6.839285250E0,3.452551924E0,1.161908113E1
8.590665500E0,-7.543120446E0,-5.999155551E0,2.687265416E0,1.000549493E1
8.600610500E0,-6.228446512E0,-5.134345924E0,2.139614029E0,8.350628851E0
8.610555500E0,-5.038458604E0,-4.365885547E0,1.663200585E0,6.871190429E0
8.620500500E0,-3.655775705E0,-3.586273361E0,1.191842059E0,5.257997729E0
8.630445500E0,-2.290275434E0,-2.969924791E0,6.281728095E-1,3.802685354E0
8.640390500E0,-1.644362172E0,-2.651609972E0,4.428236747E-1,3.151357676E0
8.650335500E0,-1.458804876E0,-2.581743346E0,2.777152616E-1,2.978361318E0
8.660281500E0,-1.394414168E0,-2.294183128E0,3.404190481E-1,2.706206242E0
8.670226500E0,-1.792102600E0,-2.186367488E0,3.265265022E-1,2.845778291E0
8.680171500E0,-2.503649104E0,-2.433787156E0,2.392265493E-1,3.499829724E0
8.690116667E0,-2.900813041E0,-2.593212075E0,1.679890439E-2,3.890982828E0
8.700061667E0,-3.026251019E0,-2.770970939E0,-3.825799580E-1,4.121024460E0
8.710006667E0,-3.239482602E0,-3.053710713E0,-6.489279400E-1,4.498944779E0
8.719951667E0,-3.691769995E0,-3.305337453E0,-1.017830237E0,5.058695461E0
8.729896667E0,-3.915329515E0,-3.392765021E0,-1.383293495E0,5.362290611E0
8.739842667E0,-3.376464154E0,-3.325737219E0,-1.611857208E0,5.005908697E0
8.749787667E0,-1.809198689E0,-2.992386870E0,-1.855490219E0,3.958588515E0
8.759732667E0,-1.240036565E-1,-2.377735162E0,-1.908766539E0,3.051621062E0
8.769677667E0,1.347738769E0,-1.239230234E0,-2.237108456E0,2.890803626E0
8.779622667E0,2.058252654E0,-2.473775679E-1,-3.338651087E0,3.929909761E0
8.789567667E0,1.836274222E0,1.274791245E0,-3.716913899E0,4.337331515E0
8.799512667E0,3.576239539E0,3.539326066E0,-1.868628912E0,5.367317044E0
8.809457667E0,9.068048560E0,6.603243095E0,2.463405934E0,1.148480269E1
8.819403667E0,1.814346578E1,9.838845484E0,8.032399079E0,2.214740766E1
8.829348667E0,2.664416427E1,1.278849096E1,1.262910639E1,3.213956003E1
8.839293667E0,3.057629050E1,1.489977669E1,1.520694613E1,3.725807425E1
8.849238667E0,3.045555017E1,1.655306756E1,1.561894913E1,3.801968114E1
8.859183667E0,2.951817133E1,1.812092476E1,1.481865125E1,3.767336962E1
8.869128667E0,3.003468864E1,1.940180296E1,1.385761224E1,3.834769741E1
8.879073667E0,3.243233006E1,2.067815658E1,1.394139232E1,4.091215727E1
8.889018667E0,3.505895079E1,2.165173670E1,1.433090108E1,4.362685478E1
8.898964667E0,3.487472607E1,2.104466708E1,1.301134355E1,4.276002329E1
8.908909667E0,2.995787026E1,1.803315572E1,1.045841061E1,3.649721973E1
8.918854667E0,2.164799214E1,1.359549443E1,7.258379170E0,2.657361663E1
8.928799667E0,1.359639490E1,8.699164681E0,3.955432351E0,1.661875042E1
8.938744667E0,6.940019912E0,3.965184045E0,1.001753756E0,8.055437386E0
8.948689667E0,1.178780549E0,-1.854421055E-1,-1.750471594E0,2.118504935E0
8.958634667E0,-3.382590866E0,-3.464582278E0,-4.312316866E0,6.483928445E0
8.968579667E0,-6.234722328E0,-6.013682958E0,-7.036632872E0,1.116021270E1
8.978525667E0,-8.096566424E0,-7.696789366E0,-9.675787690E0,1.477889786E1
8.988470667E0,-1.056017438E1,-9.012513460E0,-1.255582674E1,1.871874641E1
8.998415667E0,-1.367641522E1,-1.019317506E1,-1.510230319E1,2.278211388E1
9.008360667E0,-1.561443976E1,-1.091876891E1,-1.518471385E1,2.436402632E1
9.018305667E0,-1.502751380E1,-1.122027357E1,-1.168090436E1,2.209443904E1
9.028250667E0,-1.330462820E1,-1.150963590E1,-6.232822568E0,1.866367936E1
9.038195667E0,-1.217573200E1,-1.156744615E1,-1.374660519E0,1.685063654E1
9.048140667E0,-1.234529307E1,-1.191849895E1,1.792878233E0,1.725315306E1
9.058086667E0,-1.326429176E1,-1.211215405E1,3.511582782E0,1.830237486E1
9.068031667E0,-1.444366464E1,-1.192785215E1,3.439772542E0,1.904534432E1
9.077976667E0,-1.522306223E1,-1.177148357E1,1.623892239E0,1.931182216E1
9.087921667E0,-1.451070764E1,-1.115419770E1,-3.879346919E-1,1.830648125E1
9.097866667E0,-1.292734011E1,-1.054502658E1,-2.480704045E0,1.686616734E1
9.107811667E0,-1.125243326E1,-1.014474959E1,-4.662280616E0,1.585150021E1
9.117756667E0,-9.676790487E0,-1.004307703E1,-6.024646488E0,1.519210439E1
9.127702667E0,-8.464842192E0,-1.030965627E1,-6.438533462E0,1.481206532E1
9.137647667E0,-7.883932427E0,-1.109742591E1,-6.398680009E0,1.504168734E1
9.147592667E0,-7.791786155E0,-1.205823571E1,-6.173734115E0,1.562779488E1
9.157537667E0,-8.791844804E0,-1.343771082E1,-4.953852317E0,1.680503675E1
9.167482667E0,-9.439067842E0,-1.490840952E1,-3.757866336E0,1.804101537E1
9.177427667E0,-8.682011290E0,-1.584527029E1,-2.427678570E0,1.823029166E1
9.187372667E0,-7.211817791E0,-1.617780613E1,-1.306219737E0,1.776057254E1
9.197317667E0,-5.673547500E0,-1.651900402E1,-1.621487280E0,1.754126153E1
9.207263667E0,-4.774467050E0,-1.701167404E1,-2.482080479E0,1.784245815E1
9.217208667E0,-3.966920668E0,-1.754003079E1,-3.011966856E0,1.823351540E1
9.227153667E0,-2.454153300E0,-1.789209749E1,-2.782974688E0,1.827279314E1
9.237098667E0,-8.016368937E-1,-1.819303848E1,-1.807102463E0,1.830013361E1
9.247043667E0,1.333408413E0,-1.828422463E1,-1.315026813E0,1.837988422E1
9.256988667E0,4.160884506E0,-1.745590339E1,-1.619990392E0,1.801793251E1
9.266933667E0,7.210284652E0,-1.589141301E1,-2.747581784E0,1.766562815E1
9.276878667E0,8.925309840E0,-1.412320330E1,-4.356249921E0,1.726565784E1
9.286824667E0,8.922428917E0,-1.180204346E1,-5.066091961E0,1.563851833E1
9.296769667E0,7.298748931E0,-9.468308598E0,-4.925033730E0,1.292967753E1
9.306714667E0,4.608146217E0,-6.658813278E0,-4.711089080E0,9.368519955E0
9.316659667E0,3.175251523E0,-1.915252563E0,-3.879601273E0,5.366723456E0
9.326604667E0,5.711401205E0,5.257688845E0,-1.623104619E0,7.930817381E0
9.336549667E0,1.349151222E1,1.328350338E1,1.843552251E0,1.902290853E1
9.346494667E0,2.271893074E1,2.101485797E1,6.042724909E0,3.153234203E1
9.356439667E0,2.843206272E1,2.669595891E1,1.060090258E1,4.041578340E1
9.366385667E0,2.798638794E1,3.012083450E1,1.494374775E1,4.374720766E1
9.376330667E0,2.497932632E1,3.323631987E1,1.770164198E1,4.518813816E1
9.386275667E0,2.503555548E1,3.502279862E1,1.844189363E1,4.683459087E1
9.396220667E0,2.780833789E1,3.572904638E1,1.753877013E1,4.855385534E1
9.406165667E0,3.003778766E1,3.576234510E1,1.611674482E1,4.940610770E1
9.416110667E0,2.987705238E1,3.369449600E1,1.486931738E1,4.742419128E1
9.426055667E0,2.674119063E1,2.958228956E1,1.360137907E1,4.213313001E1
9.436000667E0,2.186954548E1,2.424009793E1,1.088794356E1,3.441521004E1
9.445946667E0,1.558918213E1,1.792328537E1,5.882833382E0,2.447191219E1
9.455891667E0,9.004499266E0,1.094663674E1,-2.739391297E-1,1.417691453E1
9.465836667E0,3.197063391E0,4.330104681E0,-6.041123357E0,8.091118111E0
9.475781667E0,-1.625854565E0,-1.576451440E0,-1.034834262E1,1.059324300E1
9.485726667E0,-4.749573991E0,-6.669763359E0,-1.218435079E1,1.468000683E1
9.495671667E0,-6.355183741E0,-1.077100860E1,-1.176692859E1,1.717159268E1
9.505616667E0,-7.929091058E0,-1.406392891E1,-1.098094470E1,1.952551479E1
9.515561667E0,-1.197238104E1,-1.670359127E1,-1.140173138E1,2.350207113E1
9.525507667E0,-1.766292990E1,-1.869658198E1,-1.240602809E1,2.855609923E1
9.535452667E0,-2.118004181E1,-1.981557065E1,-1.223780136E1,3.148038744E1
9.545397667E0,-2.018315470E1,-1.991897281E1,-1.011210926E1,3.010614497E1
9.555342667E0,-1.633284622E1,-1.868461506E1,-6.507469795E0,2.565587396E1
9.565287667E0,-1.204561625E1,-1.718268288E1,-2.445653495E0,2.112635044E1
9.575232667E0,-8.904934632E0,-1.584407161E1,1.477932288E0,1.823504181E1
9.585177667E0,-7.619616644E0,-1.460178387E1,4.747082493E0,1.714075384E1
9.595122667E0,-7.269905786E0,-1.320783807E1,6.137157442E0,1.627769081E1
9.605068667E0,-7.427080112E0,-1.185373753E1,5.639897359E0,1.508247508E1
9.615013667E0,-8.423907589E0,-1.072514304E1,4.216276349E0,1.427472937E1
9.624958667E0,-8.666816715E0,-9.526909978E0,2.512393030E0,1.312203660E1
9.634903667E0,-7.884980832E0,-8.278307242E0,1.784014439E0,1.157091185E1
9.644848667E0,-6.811564186E0,-7.107741446E0,1.352453964E0,9.937128702E0
9.654793667E0,-5.396846731E0,-5.779881456E0,5.148116702E-1,7.924519880E0
9.664738667E0,-4.428481745E0,-4.675462872E0,-3.360833377E-1,6.448593307E0
9.674683667E0,-4.985075864E0,-4.402097354E0,-1.563676005E0,6.831875667E0
9.684629667E0,-5.993957376E0,-4.496832188E0,-2.342454963E0,7.850867469E0
9.694575042E0,-5.464030069E0,-4.197686296E0,-2.307003879E0,7.266255001E0
9.704520042E0,-4.299633086E0,-3.721504256E0,-2.069830287E0,6.051498659E0
9.714465042E0,-4.414806277E0,-3.617382887E0,-1.329558752E0,5.860349810E0
9.724410042E0,-5.272246073E0,-3.934932890E0,-8.715562905E-1,6.636255411E0
9.734355042E0,-5.138931311E0,-3.705502766E0,-8.222126609E-1,6.388693092E0
9.744300042E0,-4.852846345E0,-3.604104445E0,-5.734226981E-1,6.071943683E0
9.754245042E0,-4.662763889E0,-3.271520081E0,-3.206844029E-1,5.705002122E0
9.764191042E0,-4.907829468E0,-2.873247512E0,-9.157909155E-3,5.687040110E0
9.774136042E0,-4.736931142E0,-2.957433384E0,-1.251032254E-1,5.585747907E0
9.784081042E0,-3.785636517E0,-2.539689002E0,-2.238606513E-2,4.558680204E0
9.794026042E0,-3.085479221E0,-2.344052276E0,-9.412555397E-2,3.876031826E0
9.803971042E0,-2.984419454E0,-2.402665350E0,-1.046914142E0,3.971849630E0
9.813916042E0,-3.979437218E0,-2.038314233E0,-2.207182406E0,4.986210952E0
9.823861042E0,-5.160848429E0,-1.225323801E0,-2.644109749E0,5.926811224E0
9.833807042E0,-4.295510799E0,1.179582787E0,-1.197339904E0,4.612640396E0
9.843752042E0,-1.158988894E0,5.243745575E0,1.153819955E0,5.492852028E0
9.853697042E0,4.789909839E0,1.064460116E1,4.107611693E0,1.237429771E1
9.863642042E0,1.355580002E1,1.683611256E1,7.703248785E0,2.294677411E1
9.873587042E0,2.252526394E1,2.276505124E1,1.140515200E1,3.399577276E1
9.883532042E0,2.967935100E1,2.794733322E1,1.451827628E1,4.327467685E1
9.893477042E0,3.517469759E1,3.244619264E1,1.747152598E1,5.094378262E1
9.903422042E0,3.795498314E1,3.524325736E1,1.940503647E1,5.531024657E1
9.913367042E0,3.792335438E1,3.554372473E1,2.029797296E1,5.579914768E1
9.923313042E0,3.659022430E1,3.429864435E1,1.996894078E1,5.398147937E1
9.933258042E0,3.364422398E1,3.148702708E1,1.791270892E1,4.943917295E1
9.943203042E0,2.859055501E1,2.701002923E1,1.373664855E1,4.166121732E1
9.953148042E0,2.212493783E1,2.140344755E1,7.472288445E0,3.167736630E1
9.963093042E0,1.532646907E1,1.483305762E1,7.298272383E-1,2.134134252E1
9.973038042E0,9.704249012E0,7.419869910E0,-4.906883973E0,1.316451399E1
9.982983042E0,5.604698875E0,-2.555765337E-1,-8.759531336E0,1.040227658E1
9.992928042E0,1.571459087E0,-7.476393775E0,-1.084265454E1,1.326382693E1
1.000287404E1,-3.018148533E0,-1.402952506E1,-1.188277948E1,1.863161942E1
1.001281904E1,-7.510984733E0,-1.937139276E1,-1.215421074E1,2.407053360E1
1.002276404E1,-1.146131919E1,-2.320805033E1,-1.268987416E1,2.882721533E1
1.003270904E1,-1.515954509E1,-2.548061513E1,-1.372369346E1,3.267129194E1
1.004265404E1,-1.844967043E1,-2.644812584E1,-1.497627698E1,3.555534519E1
1.005259904E1,-1.966131409E1,-2.653871324E1,-1.547091167E1,3.647217679E1
1.006254404E1,-1.760556638E1,-2.568079573E1,-1.416139381E1,3.420532578E1
1.007249004E1,-1.413425454E1,-2.466384798E1,-1.196906333E1,3.084381665E1
1.008243504E1,-1.185276221E1,-2.338041455E1,-9.375143741E0,2.783927220E1
1.009238004E1,-1.054997216E1,-2.186066707E1,-6.591601288E0,2.515233359E1
1.010232504E1,-9.255061812E0,-2.027485541E1,-3.874364214E0,2.262159652E1
1.011227004E1,-7.554189225E0,-1.835243240E1,-1.397461444E0,1.989548814E1
1.012221504E1,-5.476046682E0,-1.618830188E1,3.612468302E-2,1.708945610E1
1.013216004E1,-3.604904052E0,-1.403417009E1,4.483682969E-1,1.449669954E1
1.014210504E1,-3.045283999E0,-1.212753808E1,3.831911382E-1,1.250990687E1
1.015205104E1,-3.753392047E0,-1.071921163E1,2.068864766E-1,1.135923641E1
1.016199604E1,-4.120270330E0,-9.549080865E0,7.872194141E-2,1.040037356E1
1.017194104E1,-3.583864308E0,-8.211993384E0,-6.431498677E-2,8.960192807E0
1.018188604E1,-3.059777200E0,-6.932467648E0,-4.731233615E-1,7.592442948E0
1.019183104E1,-2.746546535E0,-5.871243031E0,-1.030124447E0,6.563243784E0
1.020177604E1,-2.085545118E0,-4.869982780E0,-1.529181964E0,5.514039190E0
1.021172104E1,-1.239162991E0,-3.789793888E0,-1.554008949E0,4.279369865E0
1.022166604E1,-1.403222998E0,-3.119008909E0,-1.492335734E0,3.731530156E0
1.023161204E1,-2.097241888E0,-2.733889067E0,-1.751627589E0,3.865329505E0
1.024155704E1,-3.093884009E0,-2.339114887E0,-1.757132158E0,4.258061781E0
1.025150204E1,-4.081026742E0,-2.379788119E0,-1.325366737E0,4.906604503E0
1.026144704E1,-3.891890366E0,-2.164370263E0,-9.114449725E-1,4.545551803E0
1.027139204E1,-3.240954931E0,-1.707766455E0,-5.438799334E-1,3.703520016E0
1.028133704E1,-2.873788379E0,-1.498218618E0,-6.018702793E-1,3.296295877E0
1.029128204E1,-2.546807987E0,-1.011827340E0,-1.049127898E0,2.934398547E0
1.030122704E1,-2.222042520E0,-3.653451437E-1,-1.511224580E0,2.711964190E0
1.031117304E1,-1.908245260E0,2.812130660E-1,-1.596366472E0,2.503770491E0
1.032111804E1,-1.729086573E0,8.920974129E-1,-1.132006332E0,2.251003444E0
1.033106304E1,-1.742633986E0,1.334387822E0,6.373523533E-2,2.195774635E0
1.034100804E1,-1.300379246E0,2.014766911E0,1.417999205E0,2.785855997E0
1.035095304E1,-3.806303501E-2,2.996562951E0,2.304882948E0,3.780651229E0
1.036089804E1,1.262711483E0,4.082400253E0,2.947846582E0,5.191361246E0
1.037084304E1,1.051609456E0,5.170179416E0,3.882895010E0,6.550840503E0
1.038078804E1,-1.540512698E0,6.380091711E0,4.662294650E0,8.050822381E0
1.039073404E1,-3.969968821E0,8.708587469E0,5.652330294E0,1.111525915E1
1.040067904E1,-3.775422601E0,1.198633484E1,7.667042241E0,1.472105891E1
1.041062404E1,-1.270681822E-1,1.650257569E1,1.097843390E1,1.982112917E1
1.042056904E1,6.996920337E0,2.174751643E1,1.427830187E1,2.694032794E1
1.043051404E1,1.745772772E1,2.592546194E1,1.661788980E1,3.539853239E1
1.044045904E1,2.853647528E1,2.901513069E1,1.715022265E1,4.416263542E1
1.045040404E1,3.619982208E1,3.016248772E1,1.596537678E1,4.975033709E1
1.046034904E1,3.924878486E1,2.942153089E1,1.507661404E1,5.131664334E1
1.047029504E1,3.800977389E1,2.655704777E1,1.473169965E1,4.865226277E1
1.048024004E1,3.333985535E1,2.185048824E1,1.393097375E1,4.222631668E1
1.049018504E1,2.574829365E1,1.689583368E1,1.285094273E1,3.337050420E1
1.050013004E1,1.723809577E1,1.230722301E1,1.026440584E1,2.353673111E1
1.051007504E1,1.068267238E1,8.254553513E0,5.121509532E0,1.443907901E1
1.052002004E1,6.347085348E0,4.216104441E0,-6.846124738E-1,7.650472097E0
1.052996504E1,3.679352848E0,2.949335575E-1,-5.438593512E0,6.572893014E0
1.053991004E1,1.398932312E0,-3.580437840E0,-8.690856957E0,9.503028012E0
1.054985604E1,-2.020481980E0,-7.646414434E0,-1.061836821E1,1.324008099E1
1.055980104E1,-6.627565758E0,-1.176388453E1,-1.167815266E1,1.785197067E1
1.056974604E1,-1.109647866E1,-1.557134344E1,-1.252715667E1,2.285887639E1
1.057969104E1,-1.491324985E1,-1.827824644E1,-1.361700984E1,2.723825015E1
1.058963604E1,-1.843068218E1,-2.004832960E1,-1.506697432E1,3.112297030E1
1.059958104E1,-2.074281509E1,-2.079101018E1,-1.581835790E1,3.335792153E1
1.060952604E1,-2.003292101E1,-2.045112557E1,-1.440941282E1,3.204992417E1
1.061947104E1,-1.650171498E1,-2.008122603E1,-1.168294971E1,2.849655330E1
1.062941704E1,-1.234546497E1,-1.897067372E1,-7.944890234E0,2.398787710E1
1.063936204E1,-8.464802431E0,-1.752713417E1,-4.120229985E0,1.989546701E1
1.064930704E1,-5.700313130E0,-1.592700735E1,-1.109703882E0,1.695271588E1
1.065925204E1,-4.340443143E0,-1.436924011E1,1.072928404E0,1.504877680E1
1.066919704E1,-4.056966619E0,-1.277215267E1,1.977431855E0,1.354611010E1
1.067914204E1,-4.250266213E0,-1.113313369E1,1.489960303E0,1.200963822E1
1.068908650E1,-4.202821321E0,-9.844381628E0,5.887766093E-2,1.070415916E1
1.069903150E1,-3.057910184E0,-8.257354914E0,-1.426783769E0,8.920226275E0
1.070897750E1,-1.846830200E0,-6.472257278E0,-1.963371347E0,7.011114256E0
1.071892250E1,-1.247387685E0,-5.133813243E0,-2.126122748E0,5.694946215E0
1.072886750E1,-8.476474643E-1,-3.997438456E0,-2.142944310E0,4.614133803E0
1.073881250E1,-5.383899826E-1,-2.841650328E0,-1.836390581E0,3.425955447E0
1.074875750E1,-9.548041230E-1,-1.795948314E0,-1.705265308E0,2.654243966E0
1.075870250E1,-1.841182959E0,-1.191211730E0,-1.711905114E0,2.782006325E0
1.076864750E1,-2.603356410E0,-8.431989026E-1,-1.582858234E0,3.161311306E0
1.077859250E1,-2.888925651E0,-2.655179697E-1,-1.525209073E0,3.277598805E0
1.078853850E1,-3.001080510E0,2.818504125E-1,-1.360686551E0,3.307172776E0
1.079848350E1,-3.593337967E0,5.686779749E-1,-1.468790897E0,3.923368334E0
1.080842850E1,-4.881265567E0,4.457209700E-1,-1.810677158E0,5.225320324E0
1.081837350E1,-6.226192410E0,2.308164990E-1,-2.256968670E0,6.626662490E0
1.082831850E1,-7.062468209E0,-8.030156672E-2,-2.757642211E0,7.582182807E0
1.083826350E1,-7.394571347E0,-4.096951050E-1,-2.893072497E0,7.950937301E0
1.084820850E1,-7.828396157E0,-9.570707962E-1,-2.525687844E0,8.281236018E0
1.085815450E1,-8.268972162E0,-1.562980040E0,-1.805776314E0,8.606952731E0
1.086809950E1,-8.332824342E0,-2.139671624E0,-9.970679440E-1,8.660733263E0
1.087804450E1,-8.252367824E0,-2.796227110E0,-3.477324530E-1,8.720170790E0
1.088798950E1,-7.435196047E0,-3.380024815E0,-8.133652389E-2,8.167822454E0
1.089793450E1,-5.950870414E0,-3.393052997E0,1.876659478E-1,6.852801312E0
1.090787950E1,-5.050761146E0,-3.510074785E0,5.013725759E-1,6.171076698E0
1.091782450E1,-4.059716565E0,-3.994234474E0,6.893282533E-3,5.695195795E0
1.092776950E1,-3.666017688E0,-4.156780345E0,-7.491031694E-1,5.592822551E0
1.093771550E1,-4.518990796E0,-3.910095380E0,-1.817185840E0,6.245981754E0
1.094766050E1,-5.288906545E0,-1.603224963E0,-2.462409276E0,6.050315874E0
1.095760550E1,-1.673788869E0,3.736985052E0,-2.205852749E0,4.651065771E0
1.096755050E1,1.000826271E1,1.033638273E1,-1.647686899E0,1.448174722E1
1.097749550E1,2.882085345E1,1.764464800E1,1.747728081E0,3.383828822E1
1.098744050E1,4.652038224E1,2.440564196E1,8.133686303E0,5.315955395E1
1.099738550E1,5.346541029E1,2.862188439E1,1.475564400E1,6.241387181E1
1.100733050E1,5.187686213E1,2.878326287E1,1.864143689E1,6.218672057E1
1.101727650E1,4.913633297E1,2.708379536E1,2.045042157E1,5.971709078E1
1.102722150E1,4.639992024E1,2.503674130E1,1.961970881E1,5.625587958E1
1.103716650E1,4.264589085E1,2.174673992E1,1.757849845E1,5.099604212E1
1.104711150E1,3.588271588E1,1.698040547E1,1.490492692E1,4.240354131E1
1.105705650E1,2.618813290E1,1.096012627E1,1.160292472E1,3.066872242E1
1.106700150E1,1.624877612E1,5.416574067E0,7.228899263E0,1.859083066E1
1.107694650E1,8.949795055E0,4.216678637E-1,1.590783550E0,9.099847670E0
1.108689150E1,3.776804883E0,-4.238695451E0,-4.009565289E0,6.950353088E0
1.109683650E1,-1.024077841E0,-8.336608660E0,-8.893247802E0,1.223264631E1
1.110678250E1,-5.894282815E0,-1.181222346E1,-1.236658746E1,1.808877216E1
1.111672750E1,-1.053447937E1,-1.465591739E1,-1.361414471E1,2.260787709E1
1.112667250E1,-1.403112369E1,-1.638563722E1,-1.337364639E1,2.538140967E1
1.113661750E1,-1.620380285E1,-1.695304518E1,-1.288432449E1,2.675770515E1
1.114656250E1,-1.828169513E1,-1.717367583E1,-1.240949900E1,2.798483846E1
1.115650750E1,-2.009129728E1,-1.705251100E1,-1.141073259E1,2.871677516E1
1.116645250E1,-1.994524552E1,-1.654729285E1,-9.257182598E0,2.751946855E1
1.117639850E1,-1.801234899E1,-1.571154915E1,-6.348969905E0,2.473068765E1
1.118634350E1,-1.625626640E1,-1.492190490E1,-3.609266659E0,2.235970145E1
1.119628850E1,-1.487661470E1,-1.419818566E1,-1.729528037E0,2.063718508E1
1.120623350E1,-1.384366780E1,-1.352924080E1,-1.340575930E0,1.940321207E1
1.121617850E1,-1.287249557E1,-1.252880676E1,-2.066723223E0,1.808157863E1
1.122612350E1,-1.198544021E1,-1.151713203E1,-2.903109827E0,1.687374155E1
1.123606850E1,-1.046214464E1,-1.072769711E1,-3.695237979E0,1.543355887E1
1.124601350E1,-8.336758933E0,-9.560237353E0,-4.463901839E0,1.344715983E1
1.125595950E1,-7.058637114E0,-8.557918755E0,-4.870071073E0,1.211527645E1
1.126590450E1,-7.100029553E0,-8.086367710E0,-5.410656685E0,1.204470706E1
1.127584950E1,-7.299112043E0,-7.774821044E0,-6.167955312E0,1.231943796E1
1.128579450E1,-7.158585910E0,-7.517869830E0,-5.935896864E0,1.195820181E1
1.129573950E1,-6.542596943E0,-7.140304590E0,-5.050055387E0,1.092211444E1
1.130568450E1,-5.552306069E0,-6.636061762E0,-3.854926608E0,9.472374440E0
1.131562950E1,-4.837132537E0,-6.078273641E0,-2.549871051E0,8.175885519E0
1.132557450E1,-4.620572720E0,-5.467518518E0,-1.237171722E0,7.264574652E0
1.133552050E1,-5.182822850E0,-4.954437624E0,-8.373271286E-2,7.170433462E0
1.134546550E1,-5.692727537E0,-4.705774838E0,1.871620640E-1,7.388267271E0
1.135541050E1,-5.780230535E0,-4.080589955E0,-3.368686187E-1,7.083485010E0
1.136535550E1,-5.940075284E0,-3.521314888E0,-6.921471959E-1,6.939972670E0
1.137530050E1,-5.960735251E0,-3.123032379E0,-9.407342604E-1,6.794753632E0
1.138524550E1,-5.587920874E0,-2.460477356E0,-1.061039845E0,6.197145639E0
1.139519050E1,-5.045578759E0,-1.649890714E0,-7.137216675E-1,5.356248967E0
1.140513550E1,-4.332344749E0,-1.088884286E0,-2.927946460E-1,4.476673845E0
1.141508150E1,-3.700688753E0,-4.739741313E-1,6.524355385E-1,3.787534931E0
1.142502650E1,-3.369855630E0,7.717622995E-2,1.585223725E0,3.724891596E0
1.143497150E1,-2.579336048E0,1.011610408E0,2.464086843E0,3.707836840E0
1.144491650E1,-1.902719057E-1,2.532375305E0,3.585314417E0,4.393587094E0
1.145486150E1,2.841017075E0,4.175215446E0,4.438875756E0,6.723646333E0
1.146480650E1,5.037417215E0,5.521339799E0,3.705567670E0,8.342181797E0
1.147475150E1,6.291003533E0,7.115541632E0,2.570638607E0,9.839504104E0
1.148469650E1,8.206940805E0,1.003049149E1,2.910892179E0,1.328299402E1
1.149464250E1,1.208811030E1,1.403949690E1,5.176147084E0,1.923596586E1
1.150458750E1,2.090289549E1,1.854988469E1,8.502933294E0,2.921179790E1
1.151453250E1,3.289406363E1,2.219560494E1,1.116525595E1,4.122289705E1
1.152447750E1,4.130316432E1,2.460542728E1,1.195906225E1,4.954187728E1
1.153442250E1,4.290668602E1,2.493553067E1,1.210456671E1,5.108116023E1
1.154436750E1,4.072248902E1,2.275276507E1,1.284651405E1,4.838431930E1
1.155431250E1,3.707818614E1,1.979126495E1,1.439009595E1,4.442477819E1
1.156425750E1,3.311585320E1,1.700670859E1,1.606959404E1,4.054774621E1
1.157420350E1,2.955752777E1,1.400823535E1,1.635441426E1,3.656972753E1
1.158414850E1,2.443049028E1,1.040450162E1,1.419627713E1,3.011041006E1
1.159409350E1,1.770050879E1,6.514646083E0,1.002175341E1,2.135846826E1
1.160403850E1,1.149581542E1,2.125482770E0,4.842854623E0,1.265403849E1
1.161398350E1,5.820495631E0,-2.585151104E0,-8.019538128E-1,6.419057995E0
1.162392850E1,1.698791564E-1,-7.550237677E0,-6.405960962E0,9.903094655E0
1.163387350E1,-4.987793065E0,-1.194775491E1,-1.093496921E1,1.694699025E1
1.164381850E1,-1.025713658E1,-1.560229159E1,-1.488017916E1,2.387593109E1
1.165376450E1,-1.665563942E1,-1.856089032E1,-1.914426586E1,3.143914581E1
1.166370950E1,-2.292947728E1,-2.030290801E1,-2.341234737E1,3.855005851E1
1.167365450E1,-2.646762747E1,-2.072180254E1,-2.562626927E1,4.226859451E1
1.168359950E1,-2.523877663E1,-2.043158418E1,-2.337037138E1,4.000774595E1
1.169354487E1,-2.060682055E1,-1.939637207E1,-1.792895600E1,3.350086217E1
1.170348987E1,-1.613704402E1,-1.764947195E1,-1.249360184E1,2.698144060E1
1.171343488E1,-1.262550216E1,-1.577978031E1,-7.342411845E0,2.150152979E1
1.172337988E1,-8.625392116E0,-1.390299015E1,-2.927674565E0,1.662112519E1
1.173332587E1,-4.367660177E0,-1.165595896E1,6.463327995E-1,1.246417189E1
1.174327088E1,-2.319656523E0,-9.976419944E0,2.172689096E0,1.047045076E1
1.175321588E1,-3.128803580E0,-9.279691454E0,1.495099713E0,9.906432682E0
1.176316088E1,-4.800487452E0,-8.629469379E0,-5.619466603E-2,9.874997690E0
1.177310588E1,-4.988052097E0,-7.850185221E0,-1.628312734E0,9.442323554E0
1.178305088E1,-3.408044965E0,-6.913130906E0,-3.242355924E0,8.361759465E0
1.179299588E1,-1.354035051E0,-5.654672688E0,-4.615566918E0,7.423758624E0
1.180294088E1,-2.704682225E-1,-4.393154038E0,-5.387561937E0,6.956923105E0
1.181288688E1,-6.177057087E-2,-3.207084934E0,-5.782020367E0,6.612183369E0
1.182283188E1,-6.291633278E-1,-2.174611076E0,-6.383643894E0,6.773159469E0
1.183277688E1,-1.534046263E0,-1.696419348E0,-6.270385666E0,6.674494208E0
1.184272188E1,-2.457405814E0,-1.199642245E0,-4.191023394E0,5.004264375E0
1.185266687E1,-3.146110169E0,-9.637813532E-1,-2.114962606E0,3.911515118E0
1.186261187E1,-3.386047155E0,-6.778484148E-1,-4.733514029E-1,3.485520816E0
1.187255687E1,-3.986205955E0,-3.470228934E-1,7.835573030E-1,4.077281551E0
1.188250187E1,-5.256190789E0,-1.774659187E-1,1.495271621E0,5.467620413E0
1.189244787E1,-6.672541956E0,4.660581708E-2,1.923130809E0,6.944308487E0
1.190239287E1,-7.910224432E0,3.213293508E-1,1.894689368E0,8.140316389E0
1.191233787E1,-8.876756315E0,6.992176491E-1,2.060785668E0,9.139614082E0
1.192228287E1,-1.021372802E1,1.094103219E0,2.600077291E0,1.059611740E1
1.193222787E1,-1.172587529E1,1.490246232E0,2.831118908E0,1.215451437E1
1.194217287E1,-1.274995664E1,2.401891764E0,2.884069831E0,1.329091183E1
1.195211787E1,-1.250531615E1,3.537343860E0,3.323286651E0,1.341417041E1
1.196206287E1,-1.125758465E1,4.702663534E0,3.530017299E0,1.270075898E1
1.197200887E1,-1.016989846E1,5.612955143E0,3.282100618E0,1.207080298E1
1.198195387E1,-9.407021592E0,6.149560556E0,3.297334369E0,1.171245338E1
1.199189887E1,-8.115472226E0,7.031632918E0,2.882864428E0,1.111825788E1
1.200184387E1,-6.985472074E0,8.110862281E0,2.195373954E0,1.092714848E1
1.201178887E1,-6.687383358E0,9.572170935E0,2.273047051E0,1.189597812E1
1.202173387E1,-5.406466570E0,1.261116947E1,3.134903980E0,1.407476817E1
1.203167887E1,-1.194913602E-1,1.779104591E1,5.640966230E0,1.866429995E1
1.204162387E1,1.004529079E1,2.379355542E1,1.026606996E1,2.779268499E1
1.205156987E1,2.106809336E1,2.873364807E1,1.560833059E1,3.889867701E1
1.206151487E1,3.326324981E1,3.230527942E1,2.065815677E1,5.076252857E1
1.207145987E1,4.635032182E1,3.393267648E1,2.322025464E1,6.195933418E1
1.208140487E1,5.670807963E1,3.314414904E1,2.322545866E1,6.966895177E1
1.209134987E1,6.142369065E1,2.880038351E1,2.242260321E1,7.145001748E1
1.210129487E1,5.838064058E1,2.076716290E1,2.089075433E1,6.539111458E1
1.211123987E1,4.679032246E1,1.141947184E1,1.726427610E1,5.116438060E1
1.212118487E1,2.953659240E1,3.829158513E0,1.156286544E1,3.194953212E1
1.213113087E1,1.599933390E1,-9.433505970E-1,4.377445493E0,1.661416939E1
1.214107587E1,9.911398906E0,-3.409396257E0,-4.322182288E0,1.133759546E1
1.215102087E1,7.004218247E0,-5.304651927E0,-1.297266539E1,1.566807112E1
1.216096587E1,4.370153430E0,-7.466558758E0,-1.896176490E1,2.084217524E1
1.217091087E1,7.876500615E-1,-1.107574209E1,-2.083491342E1,2.360902524E1
1.218085587E1,-3.831350634E0,-1.526826355E1,-1.872535496E1,2.446299323E1
1.219080087E1,-8.574255876E0,-1.944336029E1,-1.522019242E1,2.613840815E1
1.220074687E1,-1.266749219E1,-2.255607409E1,-1.170403945E1,2.839412573E1
1.221069187E1,-1.582556167E1,-2.480402445E1,-1.051956897E1,3.124658962E1
1.222063687E1,-1.829617167E1,-2.607991030E1,-1.173411519E1,3.394997906E1
1.223058187E1,-1.980917848E1,-2.626854615E1,-1.365031675E1,3.561981494E1
1.224052687E1,-1.992848039E1,-2.621531544E1,-1.461224688E1,3.602644658E1
1.225047187E1,-1.809724939E1,-2.519797710E1,-1.321625689E1,3.372117927E1
1.226041688E1,-1.358569216E1,-2.323912711E1,-9.862279955E0,2.866866977E1
1.227036188E1,-7.949400777E0,-2.052736625E1,-5.256939817E0,2.263186148E1
1.228030787E1,-3.523683010E0,-1.757185017E1,-3.473409820E-1,1.792503573E1
1.229025288E1,-9.472822648E-1,-1.479997291E1,4.149559618E0,1.539985022E1
1.230019788E1,-2.142735565E-1,-1.205300830E1,6.302281058E0,1.360292868E1
1.231014288E1,-1.080657839E0,-9.926485891E0,4.871048435E0,1.110990803E1
1.232008788E1,-1.380688414E0,-8.302511791E0,1.686210110E0,8.583781630E0
1.233003288E1,-6.839809746E-1,-6.357779905E0,-1.717975401E0,6.621226078E0
1.233997788E1,-1.636197120E-1,-4.808986380E0,-5.272651870E0,7.138205598E0
1.234992288E1,2.002601194E-1,-3.584595795E0,-7.643047607E0,8.444264790E0
1.235986888E1,2.499953663E-1,-2.523875207E0,-8.328215566E0,8.705838171E0
1.236981388E1,1.488034523E-1,-1.727456954E0,-7.243741835E0,7.448358595E0
1.237975888E1,5.566730565E-1,-7.030809045E-1,-5.387954285E0,5.462074609E0
1.238970388E1,7.448598450E-1,-7.992968380E-2,-4.137162936E0,4.204440760E0
1.239964887E1,6.010978621E-1,2.194343090E-2,-2.337728074E0,2.413870896E0
1.240959387E1,1.123080558E-1,6.052990866E-1,6.878465688E-1,9.231104949E-1
1.241953887E1,-1.257763569E0,7.146133679E-1,2.962670735E0,3.296977304E0
1.242948387E1,-2.471357270E0,6.502478027E-1,3.658675924E0,4.462772510E0
1.243942987E1,-3.676605241E0,7.058577472E-1,3.530335972E0,5.145768488E0
1.244937487E1,-5.183491772E0,3.647738707E-1,2.908791566E0,5.955057960E0
1.245931987E1,-6.503096078E0,1.199912971E-1,2.317293224E0,6.904672650E0
1.246926487E1,-7.489925986E0,1.039517999E-2,2.418787147E0,7.870808764E0
1.247920987E1,-8.050902008E0,-2.269245923E-1,2.319987475E0,8.381578599E0
1.248915487E1,-8.067657790E0,-1.381235129E-1,1.866292803E0,8.281861454E0
1.249909987E1,-8.322594053E0,3.070045495E-1,1.682708212E0,8.496548152E0
1.250904487E1,-9.190762321E0,3.484835279E-1,1.219907525E0,9.277916101E0
1.251899087E1,-9.951020808E0,6.896574515E-1,3.769626841E-3,9.974891315E0
1.252893587E1,-9.694211097E0,1.311203027E0,-1.128889766E0,9.847404443E0
1.253888087E1,-8.360051317E0,1.899988407E0,-1.328868635E0,8.675615587E0
1.254882587E1,-7.018805296E0,2.708850120E0,1.351776856E-1,7.524610938E0
1.255877087E1,-5.592669983E0,3.825966518E0,1.821355051E0,7.016645321E0
1.256871587E1,-4.288823923E0,5.143421972E0,1.841954061E0,6.945616962E0
1.257866087E1,-4.262578111E0,7.116616350E0,9.093107387E-1,8.345216980E0
1.258860587E1,-3.813958091E0,1.112399098E1,1.045668100E0,1.180605241E1
1.259855187E1,-4.126730919E-2,1.728841106E1,2.174330848E0,1.742465422E1
1.260849687E1,8.404879580E0,2.496958018E1,5.394645254E0,2.689282678E1
1.261844187E1,2.204737101E1,3.221003295E1,1.108029708E1,4.057518668E1
1.262838687E1,3.683561557E1,3.755602996E1,1.782932763E1,5.554460266E1
1.263833187E1,5.036941252E1,4.112377174E1,2.055987911E1,6.819788082E1
1.264827687E1,5.723656969E1,4.146815403E1,1.763503401E1,7.284660001E1
1.265822187E1,5.471659750E1,3.723977044E1,1.248787040E1,6.735468396E1
1.266816687E1,4.724493178E1,3.064850127E1,9.339846439E0,5.708455957E1
1.267811287E1,3.899462043E1,2.382148172E1,8.915295898E0,4.655669570E1
1.268805737E1,3.101381191E1,1.766513430E1,8.869997519E0,3.677757952E1
1.269800237E1,2.377377780E1,1.234582048E1,7.517053558E0,2.782297411E1
1.270794737E1,1.817463144E1,7.324156253E0,4.342571529E0,2.007033683E1
1.271789237E1,1.369255119E1,1.704526513E0,-1.559765241E-1,1.379911945E1
1.272783737E1,9.251188617E0,-4.710710472E0,-5.555037303E0,1.177428229E1
1.273778237E1,4.365750184E0,-1.163669941E1,-1.153814809E1,1.695881509E1
1.274772738E1,-8.469449213E-1,-1.771261487E1,-1.635374417E1,2.412258256E1
1.275767337E1,-5.218788489E0,-2.234198180E1,-1.853899250E1,2.949735830E1
1.276761837E1,-8.075663213E0,-2.612070515E1,-1.704177551E1,3.221691615E1
1.277756337E1,-1.024888031E1,-2.898755289E1,-1.235278920E1,3.313471248E1
1.278750838E1,-1.301910164E1,-3.095530935E1,-7.080029152E0,3.431989215E1
1.279745338E1,-1.474156507E1,-3.175355486E1,-3.315488219E0,3.516524490E1
1.280739838E1,-1.539914294E1,-3.139753895E1,-5.388460654E-1,3.497469672E1
1.281734338E1,-1.517444029E1,-3.034879405E1,1.341701519E0,3.395751907E1
1.282728938E1,-1.359540789E1,-2.862232644E1,2.909097961E0,3.182036357E1
1.283723438E1,-1.125842665E1,-2.629280976E1,4.381687648E0,2.893550073E1
1.284717938E1,-8.925409827E0,-2.369008075E1,5.176739992E0,2.583953374E1
1.285712438E1,-6.959789933E0,-2.113950424E1,5.097637689E0,2.283206573E1
1.286706938E1,-5.261676646E0,-1.864248354E1,4.303514467E0,1.984307613E1
1.287701438E1,-4.096994319E0,-1.626948111E1,3.226282513E0,1.708479666E1
1.288695937E1,-3.360504471E0,-1.459251253E1,2.045232659E0,1.511348367E1
1.289690437E1,-2.978518444E0,-1.348780275E1,1.199421659E0,1.386473972E1
1.290685038E1,-2.984569142E0,-1.273246879E1,1.057935559E0,1.312031410E1
1.291679538E1,-3.173797905E0,-1.223381122E1,1.409991735E0,1.271720122E1
1.292674037E1,-3.219354439E0,-1.162671587E1,1.732740498E0,1.218799223E1
1.293668537E1,-3.003775199E0,-1.093015812E1,1.727426548E0,1.146625590E1
1.294663037E1,-2.584951714E0,-1.032927251E1,1.545582673E0,1.075939923E1
1.295657537E1,-2.449381388E0,-9.926066061E0,1.205671748E0,1.029465400E1
1.296652037E1,-2.531570143E0,-9.498837495E0,6.826443011E-1,9.854073493E0
1.297646537E1,-2.585684370E0,-8.970282530E0,6.745523393E-2,9.335752917E0
1.298641137E1,-2.535611739E0,-8.360667028E0,-3.858975220E-1,8.745227095E0
1.299635637E1,-2.513957745E0,-7.690518227E0,-4.704576889E-1,8.104652033E0
1.300630137E1,-2.359452088E0,-6.928047738E0,-4.231314949E-1,7.331023113E0
1.301624637E1,-2.226796891E0,-6.079491616E0,-2.042514288E-1,6.477697226E0
1.302619137E1,-2.220351505E0,-4.982532325E0,-1.669789374E-2,5.454893949E0
1.303613637E1,-2.320326029E0,-3.847568471E0,-4.542076919E-1,4.515971728E0
1.304608137E1,-2.418573285E0,-2.529102033E0,-1.043907650E0,3.651793671E0
1.305602637E1,-2.562450458E0,-1.132381139E0,-1.617730882E0,3.235041360E0
1.306597237E1,-2.544778419E0,1.012562335E-2,-2.404986549E0,3.501422572E0
1.307591737E1,-2.249932569E0,9.442148155E-1,-2.717837291E0,3.652448182E0
1.308586237E1,-1.890114799E0,1.649543390E0,-2.726129812E0,3.704768697E0
1.309580737E1,-1.897922001E0,2.410990031E0,-2.330636424E0,3.853160650E0
1.310575237E1,-2.219780817E0,3.713005328E0,-1.726085781E0,4.657596759E0
1.311569737E1,-1.004780275E0,5.216618003E0,-1.061233534E0,5.417462820E0
1.312564237E1,1.849998806E0,7.275236692E0,3.456183922E-1,7.514719994E0
1.313558737E1,3.722402973E0,1.036730982E1,1.272181048E0,1.108854550E1
1.314553337E1,4.082630049E0,1.434458941E1,2.120426975E-1,1.491576601E1
1.315547837E1,3.983771759E0,1.893190902E1,-3.074534695E-1,1.934895718E1
1.316542337E1,6.404979215E0,2.423577800E1,1.633585023E0,2.512101300E1
1.317536837E1,1.405590419E1,2.942150517E1,4.461019746E0,3.291039511E1
1.318531337E1,2.606710490E1,3.214672632E1,6.547018608E0,4.190190238E1
1.319525837E1,3.449634573E1,3.243261307E1,7.028899344E0,4.786729243E1
1.320520337E1,3.417038451E1,3.108110401E1,5.883718066E0,4.656466839E1
1.321514837E1,3.043849267E1,2.750996149E1,4.141705638E0,4.123655591E1
1.322509437E1,2.789419373E1,2.349034221E1,3.907290178E0,3.667627485E1
1.323503937E1,2.570356011E1,2.007925201E1,7.809841188E0,3.353867891E1
1.324498437E1,2.316680875E1,1.721390350E1,1.314590436E1,3.171489087E1
1.325492937E1,1.986982580E1,1.390993664E1,1.520564220E1,2.862704786E1
1.326487437E1,1.615966222E1,1.008961034E1,1.129184349E1,2.214589464E1
1.327481937E1,1.196660984E1,5.975654422E0,3.345786737E0,1.378776580E1
1.328476437E1,6.078362519E0,7.858640295E-1,-5.501017216E0,8.235609486E0
1.329470938E1,-6.941334951E-1,-5.227342381E0,-1.330091989E1,1.430808861E1
1.330465537E1,-6.714748328E0,-1.128651317E1,-1.781646726E1,2.213367864E1
1.331460037E1,-1.168998976E1,-1.630117419E1,-1.745387440E1,2.658988289E1
1.332454537E1,-1.585417560E1,-2.023715490E1,-1.380505162E1,2.918007493E1
1.333449038E1,-1.837745966E1,-2.270260064E1,-9.069478204E0,3.058422034E1
1.334443538E1,-1.929894576E1,-2.363135366E1,-4.687004398E0,3.086840121E1
1.335438038E1,-1.838402725E1,-2.288577753E1,-1.682942978E0,2.940346184E1
1.336432538E1,-1.521489016E1,-2.079050031E1,8.833973408E-2,2.576326046E1
1.337427138E1,-1.185260550E1,-1.846366750E1,1.111785491E0,2.196878107E1
1.338421638E1,-9.550591786E0,-1.569959861E1,2.276214927E0,1.851681275E1
1.339416138E1,-7.149381807E0,-1.273134846E1,2.740948411E0,1.485643605E1
1.340410638E1,-4.531826604E0,-9.912796390E0,2.081894701E0,1.109663328E1
1.341405138E1,-2.303918742E0,-7.210155428E0,1.078783221E0,7.645793360E0
1.342399638E1,-9.090373814E-1,-5.402431991E0,1.096148282E-1,5.479474043E0
1.343394137E1,-4.007693303E-1,-4.308261822E0,-2.192777498E-1,4.332414882E0
1.344388637E1,-9.395341194E-1,-3.818843440E0,-2.247652155E-1,3.939138101E0
1.345383238E1,-2.272339100E0,-4.144457923E0,-1.151119418E-1,4.727928427E0
1.346377738E1,-3.616998140E0,-4.810918885E0,5.318099646E-1,6.042386772E0
1.347372237E1,-4.691064413E0,-5.524818308E0,1.132929608E0,7.335750279E0
1.348366737E1,-5.422552260E0,-5.984618204E0,1.303711720E0,8.180427391E0
1.349361237E1,-6.097216866E0,-6.491530285E0,9.794350804E-1,8.959649102E0
1.350355737E1,-6.902222341E0,-6.934124749E0,4.554546838E-1,9.794396268E0
1.351350237E1,-7.283767195E0,-7.092041672E0,-4.827110410E-2,1.016625052E1
1.352344737E1,-7.186502856E0,-7.018253319E0,-4.195197429E-1,1.005374059E1
1.353339337E1,-6.908026287E0,-6.981350956E0,-8.378831989E-1,9.857085604E0
1.354333837E1,-6.893747386E0,-7.015791056E0,-1.146351160E0,9.902484443E0
1.355328337E1,-7.130291233E0,-7.026527129E0,-1.208008003E0,1.008327426E1
1.356322837E1,-7.338326980E0,-6.891267582E0,-1.218852687E0,1.014032611E1
1.357317337E1,-7.541930537E0,-7.020295751E0,-1.928907566E0,1.048265010E1
1.358311837E1,-7.610071065E0,-7.018731621E0,-2.522714535E0,1.065550861E1
1.359306337E1,-7.318570408E0,-6.810215818E0,-2.436839987E0,1.028973767E1
1.360300837E1,-7.093777125E0,-6.422467652E0,-2.266348481E0,9.833925975E0
1.361295437E1,-6.774184105E0,-5.956479063E0,-2.084901924E0,9.258295154E0
1.362289937E1,-5.933857940E0,-5.632929232E0,-1.887007003E0,8.396508632E0
1.363284437E1,-4.430940499E0,-4.854830890E0,-1.544035500E0,6.751789563E0
1.364278937E1,-2.521331084E0,-3.725874465E0,-9.319024797E-1,4.594310960E0
1.365273437E1,-8.866337746E-1,-2.866179398E0,-7.473566061E-1,3.091867670E0
1.366267937E1,-4.141495138E-1,-2.441806612E0,-1.935803918E0,3.143449723E0
1.367262437E1,-1.681149344E0,-1.671750530E0,-3.659667027E0,4.360524705E0
1.368256937E1,-2.586370248E0,4.242798150E-1,-4.414656588E0,5.134054657E0
1.369251617E1,7.974713373E-1,4.309599080E0,-3.652693638E0,5.705328700E0
1.370246117E1,9.612736579E0,9.396715874E0,-2.509022110E0,1.367472726E1
1.371240617E1,2.090809249E1,1.445625369E1,-5.414213254E-1,2.542488426E1
1.372235117E1,3.010180766E1,1.854674357E1,3.281346327E0,3.550869971E1
1.373229617E1,3.535169047E1,2.484606827E1,9.433072692E0,4.422727652E1
1.374224117E1,3.901111659E1,3.756666487E1,9.894374152E0,5.505470159E1
1.375218617E1,4.953133344E1,4.035169603E1,2.900135933E0,6.395328884E1
1.376213117E1,5.565046333E1,3.446019590E1,-5.226890391E-1,6.545801994E1
1.377207717E1,4.294446839E1,2.503860071E1,4.570521431E-1,4.971285335E1
1.378202217E1,3.221389212E1,1.200895654E1,8.817869006E0,3.549231884E1
1.379196717E1,1.731960011E1,9.756748238E0,7.829164481E0,2.136488944E1
1.380191217E1,1.346859348E1,3.446067362E0,3.174499863E0,1.426028891E1
1.381185717E1,1.065584652E1,-5.828387618E-1,2.331128614E0,1.092341186E1
1.382180217E1,5.509252435E0,-3.709756030E0,3.822010877E0,7.663022859E0
1.383174717E1,-1.068424879E0,-6.706371607E0,2.755467047E0,7.328679997E0
1.384169217E1,-7.166262134E0,-9.525281528E0,5.102490878E-1,1.193091175E1
1.385163817E1,-1.253319802E1,-1.168746025E1,-1.091174056E0,1.717173377E1
1.386158317E1,-1.587948937E1,-1.313791004E1,-2.982000168E0,2.082438926E1
1.387152817E1,-1.677416950E1,-1.296963302E1,-4.726912815E0,2.172390038E1
1.388147317E1,-1.891089412E1,-1.376156705E1,-5.649592627E0,2.406076767E1
1.389141817E1,-2.013183251E1,-1.289470797E1,-5.828533798E0,2.460764069E1
1.390136317E1,-1.875021732E1,-1.139955388E1,-5.513023889E0,2.262551459E1
1.391130817E1,-1.538123877E1,-9.652628038E0,-4.333229725E0,1.866902820E1
1.392125417E1,-1.204968240E1,-7.930281551E0,-2.976191544E0,1.472894862E1
1.393119917E1,-9.229791316E0,-6.534391546E0,-1.480091080E0,1.140517384E1
1.394114417E1,-6.820736128E0,-5.052625823E0,1.071724463E-1,8.488990221E0
1.395108917E1,-5.124425538E0,-3.945701999E0,1.425822779E0,6.622784306E0
1.396103417E1,-4.314540562E0,-3.268203248E0,2.289522312E0,5.876931610E0
1.397097917E1,-4.413752609E0,-2.614311461E0,2.759050806E0,5.824791657E0
1.398092417E1,-5.061541073E0,-2.058403805E0,2.550696970E0,6.030114368E0
1.399086917E1,-5.583286371E0,-1.677688377E0,1.644912395E0,6.057512838E0
1.400081517E1,-5.838094581E0,-1.434792700E0,7.521213560E-1,6.058685085E0
1.401076017E1,-5.963491044E0,-1.158467030E0,-2.663881816E-1,6.080808660E0
1.402070517E1,-5.859153913E0,-5.978570428E-1,-1.317554272E0,6.035152598E0
1.403065017E1,-5.723449978E0,-2.695972797E-1,-2.532128845E0,6.264362603E0
1.404059517E1,-6.152328043E0,-6.318840373E-1,-3.405656962E0,7.060376557E0
1.405054017E1,-6.449797538E0,-7.854880536E-1,-3.742041432E0,7.497983318E0
1.406048517E1,-6.636734192E0,-7.763003236E-1,-3.793536690E0,7.683736301E0
1.407043017E1,-7.145965279E0,-1.097793104E0,-3.932376195E0,8.230039612E0
1.408037617E1,-7.465986900E0,-1.377110210E0,-4.091820118E0,8.624406345E0
1.409032117E1,-7.893408424E0,-1.800272330E0,-4.074694208E0,9.063664265E0
1.410026617E1,-8.421718976E0,-2.190454692E0,-3.726388435E0,9.466224857E0
1.411021117E1,-8.893447777E0,-2.484996193E0,-3.154006834E0,9.757888017E0
1.412015617E1,-9.398225040E0,-2.995735278E0,-2.563377827E0,1.019175989E1
1.413010117E1,-9.655262793E0,-3.470325121E0,-2.105367179E0,1.047376852E1
1.414004617E1,-9.374214619E0,-3.959409335E0,-1.970718082E0,1.036516048E1
1.414999117E1,-8.777261848E0,-4.157159537E0,-1.988407371E0,9.913428510E0
1.415993717E1,-8.206323924E0,-4.161531500E0,-1.835449472E0,9.382482163E0
1.416988217E1,-7.912478533E0,-4.179353229E0,-1.535415096E0,9.079196521E0
1.417982717E1,-7.317235488E0,-4.443832440E0,-1.615143051E0,8.711961262E0
1.418977217E1,-6.567928836E0,-4.575235456E0,-1.650425735E0,8.172782499E0
1.419971717E1,-5.621018454E0,-4.679563816E0,-1.415589275E0,7.449701938E0
1.420966217E1,-4.457607896E0,-4.763598246E0,-7.201381096E-1,6.563591646E0
1.421960717E1,-2.008720306E0,-4.353239482E0,1.534005332E-1,4.796788819E0
1.422955317E1,6.473581088E-1,-2.716462903E0,8.743657315E-1,2.926219174E0
1.423949817E1,3.182573991E0,1.008647331E0,5.484746754E-1,3.383337275E0
1.424944317E1,9.519267667E0,6.498802468E0,-3.066823679E-1,1.153017539E1
1.425938817E1,2.150156149E1,1.117490853E1,1.494532533E0,2.427816622E1
1.426933317E1,3.443250349E1,1.447519282E1,6.624174957E0,3.793426153E1
1.427927817E1,4.339988229E1,1.726549583E1,1.479360061E1,4.899487471E1
1.428922317E1,4.611523101E1,1.930933392E1,2.349839967E1,5.524164819E1
1.429916817E1,4.480565117E1,1.873311772E1,2.856995410E1,5.634463908E1
1.430911417E1,4.090607288E1,1.721577929E1,3.091176865E1,5.408537044E1
1.431905917E1,3.589650596E1,1.598274652E1,2.958764327E1,4.918776231E1
1.432900417E1,3.162018455E1,1.428818366E1,2.277919916E1,4.150759181E1
1.433894917E1,2.600850176E1,1.177956326E1,1.313712184E1,3.142903506E1
1.434889417E1,1.803880647E1,8.531362456E0,2.692676722E0,2.013537166E1
1.435883917E1,9.457740925E0,4.946255615E0,-6.306286985E0,1.239691750E1
1.436878417E1,2.433838027E0,1.007241661E0,-1.268929763E1,1.295979851E1
1.437872917E1,-3.039601382E0,-3.097741709E0,-1.650158517E1,1.706275163E1
1.438867517E1,-8.033241663E0,-7.193149971E0,-1.782652798E1,2.083409412E1
1.439862017E1,-1.266033052E1,-1.090488879E1,-1.781283497E1,2.442330154E1
1.440856517E1,-1.699682913E1,-1.400831136E1,-1.701296745E1,2.783102673E1
1.441851017E1,-2.158169875E1,-1.586379661E1,-1.531591367E1,3.085461028E1
1.442845517E1,-2.446299613E1,-1.614523012E1,-1.305076314E1,3.208471682E1
1.443840017E1,-2.373301335E1,-1.556243813E1,-1.025545141E1,3.017647572E1
1.444834517E1,-2.046426310E1,-1.434302119E1,-6.830737206E0,2.590689660E1
1.445829117E1,-1.651918763E1,-1.272866576E1,-2.569288777E0,2.101199031E1
1.446823617E1,-1.246040252E1,-1.067352032E1,2.195847579E0,1.655316929E1
1.447818117E1,-8.962480590E0,-8.908417819E0,6.207670770E0,1.407910305E1
1.448812617E1,-7.148274345E0,-7.340267086E0,8.369684020E0,1.322985100E1
1.449807117E1,-7.044020829E0,-5.972781100E0,7.553175902E0,1.193075059E1
1.450801617E1,-7.775174215E0,-4.928188888E0,4.407368034E0,1.020613898E1
1.451796117E1,-8.029519910E0,-3.946233804E0,6.444035107E-1,8.970017118E0
1.452790617E1,-6.946423783E0,-2.880847723E0,-3.081118075E0,8.126830598E0
1.453785217E1,-5.229298859E0,-1.866842003E0,-5.959604400E0,8.145400557E0
1.454779717E1,-4.245148146E0,-1.110028110E0,-7.234310276E0,8.461010008E0
1.455774217E1,-3.965695676E0,-8.593772712E-1,-7.539274732E0,8.561888517E0
1.456768717E1,-3.853160748E0,-8.040099862E-1,-7.374236485E0,8.358985797E0
1.457763217E1,-3.709078923E0,-8.620471099E-1,-6.904278806E0,7.884761094E0
1.458757717E1,-4.003409048E0,-1.061975400E0,-5.690182829E0,7.037986671E0
1.459752217E1,-4.991590832E0,-1.461384083E0,-3.844116860E0,6.467523243E0
1.460746717E1,-6.134325051E0,-2.023830388E0,-2.371739134E0,6.881204821E0
1.461741317E1,-6.916237532E0,-2.400059831E0,-1.723886936E0,7.521064749E0
1.462735817E1,-7.030954056E0,-2.506907172E0,-1.376552386E0,7.590375154E0
1.463730317E1,-7.065418130E0,-2.583355716E0,-9.475974298E-1,7.582334798E0
1.464724817E1,-7.023318762E0,-2.650285285E0,-6.347646680E-1,7.533521401E0
1.465719317E1,-6.806014593E0,-2.531841454E0,-5.608333504E-1,7.283308990E0
1.466713817E1,-7.010360747E0,-2.354195441E0,-7.472285521E-1,7.432748111E0
1.467708317E1,-7.671974367E0,-2.466407895E0,-1.202423181E0,8.147894213E0
1.468702817E1,-8.245416069E0,-2.716026993E0,-1.646545522E0,8.835994621E0
1.469697392E1,-8.301324221E0,-2.900640256E0,-1.753196982E0,8.966571105E0
1.470691892E1,-8.223345754E0,-2.941572519E0,-1.462716371E0,8.855269812E0
1.471686392E1,-8.042622936E0,-3.106003532E0,-1.119489198E0,8.693923032E0
1.472680892E1,-7.354555342E0,-2.998302790E0,-4.538879223E-1,7.955206983E0
1.473675392E1,-5.898589874E0,-2.774799404E0,7.814574216E-1,6.565329385E0
1.474669892E1,-3.562360588E0,-2.345478412E0,1.737639587E0,4.605548097E0
1.475664392E1,-1.009809465E0,-1.496094617E0,1.768885646E0,2.527245672E0
1.476658992E1,8.980615729E-1,3.135221484E-1,1.571595912E0,1.837042307E0
1.477653492E1,3.277619312E0,2.709928932E0,1.574665408E0,4.534983386E0
1.478647992E1,7.147934037E0,6.262118872E0,2.069992109E0,9.725839866E0
1.479642492E1,1.321358705E1,9.531664349E0,3.582335261E0,1.668186542E1
1.480636992E1,2.100513288E1,1.197667640E1,6.559493058E0,2.505360921E1
1.481631492E1,2.816187692E1,1.363141972E1,1.019738038E1,3.290734693E1
1.482625992E1,3.405887577E1,1.420424805E1,1.438912766E1,3.960826525E1
1.483620492E1,3.819629539E1,1.470119589E1,1.825177727E1,4.481305073E1
1.484615092E1,4.008558223E1,1.492629498E1,1.934588487E1,4.694583523E1
1.485609592E1,3.875756729E1,1.453122786E1,1.780357298E1,4.505854876E1
1.486604092E1,3.598027551E1,1.449951958E1,1.418637311E1,4.130459388E1
1.487598592E1,3.262456546E1,1.499029861E1,8.860625017E0,3.698083287E1
1.488593092E1,2.752954499E1,1.320924724E1,1.447876138E0,3.056887968E1
1.489587592E1,1.941617074E1,8.399380274E0,-6.096711667E0,2.201606614E1
1.490582092E1,1.006127591E1,3.556322168E0,-1.093622519E1,1.527997780E1
1.491576592E1,2.093173395E0,-9.556814978E-1,-1.406342839E1,1.425042877E1
1.492571192E1,-4.573664601E0,-5.683986534E0,-1.539523116E1,1.703640963E1
1.493565692E1,-1.024557079E1,-9.561409720E0,-1.467609263E1,2.029236239E1
1.494560192E1,-1.470430076E1,-1.246256014E1,-1.326770537E1,2.340008274E1
1.495554692E1,-1.865989655E1,-1.453388600E1,-1.136930039E1,2.624283850E1
1.496549192E1,-2.224457186E1,-1.553741322E1,-8.589444019E0,2.846068754E1
1.497543692E1,-2.497920470E1,-1.575744745E1,-4.840040065E0,2.992797697E1
1.498538192E1,-2.425099480E1,-1.458867324E1,-6.241291675E-1,2.830776701E1
1.499532792E1,-1.950752413E1,-1.223595364E1,3.068741274E0,2.323099723E1
1.500527292E1,-1.265223096E1,-9.251540034E0,6.489814712E0,1.696430477E1
1.501521792E1,-5.616964579E0,-5.860304060E0,9.030888920E0,1.214291602E1
1.502516292E1,-9.004343730E-1,-3.098682818E0,1.007888304E1,1.058283991E1
1.503510792E1,-4.086771047E-1,-1.407196766E0,9.708845508E0,9.818803431E0
1.504505292E1,-3.356472523E0,-1.167894203E0,7.849687039E0,8.616697237E0
1.505499792E1,-6.652650313E0,-1.545081420E0,5.231564655E0,8.603156486E0
1.506494292E1,-8.605329149E0,-1.596895352E0,2.411206378E0,9.078308253E0
1.507488892E1,-8.920534419E0,-1.356221325E0,-5.117717028E-2,9.023186228E0
1.508483392E1,-8.155189438E0,-8.637451413E-1,-2.015132508E0,8.444757514E0
1.509477892E1,-7.207683810E0,-4.296332332E-1,-3.446117941E0,8.000688688E0
1.510472392E1,-6.397142192E0,-3.059321702E-2,-4.480051264E0,7.809943885E0
1.511466892E1,-5.878279570E0,3.052375209E-1,-5.168817599E0,7.833518751E0
1.512461392E1,-5.886037656E0,3.141986713E-1,-5.517627987E0,8.073932047E0
1.513455892E1,-6.211793057E0,1.505011913E-1,-5.365796846E0,8.209798986E0
1.514450392E1,-6.488648778E0,-6.664364040E-3,-4.840760735E0,8.095404367E0
1.515444992E1,-6.636652915E0,-3.442144758E-1,-4.293759558E0,7.912017231E0
1.516439492E1,-6.937862874E0,-7.873550695E-1,-3.703043427E0,7.903568807E0
1.517433992E1,-7.187397480E0,-1.124703745E0,-3.073067044E0,7.897302204E0
1.518428492E1,-7.513310171E0,-1.476448849E0,-2.559052641E0,8.073319104E0
1.519422992E1,-7.840197008E0,-1.844569959E0,-2.345819597E0,8.388921089E0
1.520417492E1,-8.176920615E0,-2.216617181E0,-2.297704321E0,8.778090204E0
1.521411992E1,-8.861609103E0,-2.589808996E0,-2.133237348E0,9.475543684E0
1.522406592E1,-9.451025982E0,-3.032986135E0,-1.909180230E0,1.010771320E1
1.523401092E1,-9.637934570E0,-3.385813267E0,-1.535702925E0,1.033014510E1
1.524395592E1,-9.534737645E0,-3.797214589E0,-1.238976465E0,1.033755886E1
1.525390092E1,-9.372583246E0,-4.095819906E0,-8.083424807E-1,1.026033503E1
1.526384592E1,-9.046244878E0,-4.362058252E0,-3.956875151E-1,1.005080431E1
1.527379092E1,-8.344895334E0,-4.740219616E0,-3.206671536E-2,9.597290681E0
1.528373592E1,-7.146693258E0,-5.142675283E0,2.452427495E-1,8.808091598E0
1.529368092E1,-5.510440004E0,-5.750306239E0,6.333645523E-2,7.964608113E0
1.530362692E1,-3.173372812E0,-6.089990877E0,-5.043156257E-1,6.885682111E0
1.531357192E1,-5.199157047E-1,-5.324451184E0,-1.367082820E0,5.521685267E0
1.532351692E1,1.315980202E0,-3.788572697E0,-2.079690593E0,4.517764927E0
1.533346192E1,5.330275596E0,-2.546810326E-1,-5.783942932E-1,5.367610298E0
1.534340692E1,1.665375662E1,3.375606075E0,3.436180890E0,1.733636827E1
1.535335192E1,3.207847060E1,7.028627449E0,9.310268884E0,3.413372213E1
1.536329692E1,4.464816928E1,1.083343231E1,1.518868411E1,4.838923848E1
1.537324292E1,5.145795825E1,1.314886071E1,1.783740263E1,5.602666274E1
1.538318792E1,5.109139396E1,1.460473087E1,1.769369561E1,5.600621006E1
1.539313292E1,4.593095016E1,1.579955091E1,1.545869566E1,5.097302486E1
1.540307792E1,4.158307287E1,1.604527664E1,1.399590825E1,4.671710928E1
1.541302292E1,3.898439715E1,1.574596703E1,1.314024542E1,4.404979851E1
1.542296792E1,3.374972880E1,1.387205837E1,1.055735836E1,3.798599759E1
1.543291292E1,2.360058561E1,9.266170353E0,4.489094567E0,2.574881598E1
1.544285792E1,1.120188291E1,3.801206191E0,-2.597463586E0,1.211107618E1
1.545280392E1,1.036530656E0,-5.160550806E-1,-8.372585993E0,8.452272171E0
1.546274892E1,-5.408707223E0,-3.639949923E0,-1.264477693E1,1.422651513E1
1.547269392E1,-1.047873904E1,-6.095586662E0,-1.544104175E1,1.963124853E1
1.548263892E1,-1.417421558E1,-8.242284885E0,-1.661179466E1,2.334085194E1
1.549258392E1,-1.760056584E1,-1.028472141E1,-1.634030376E1,2.612586724E1
1.550252892E1,-2.199898413E1,-1.180115352E1,-1.619719198E1,2.975855432E1
1.551247392E1,-2.565685021E1,-1.228713432E1,-1.552091121E1,3.240596114E1
1.552241892E1,-2.585587774E1,-1.192564191E1,-1.296988329E1,3.128841992E1
1.553236492E1,-2.281944672E1,-1.069396101E1,-8.520136971E0,2.660226841E1
1.554230992E1,-1.848307908E1,-8.598197885E0,-2.989399235E0,2.060314847E1
1.555225492E1,-1.326672187E1,-6.596469680E0,2.114098241E0,1.496625313E1
1.556219992E1,-8.745950008E0,-4.298284133E0,6.553816581E0,1.174390905E1
1.557214492E1,-6.775866934E0,-2.498062089E0,9.231584072E0,1.172070098E1
1.558208992E1,-7.256425030E0,-1.646841391E0,9.241283433E0,1.186461589E1
1.559203492E1,-8.237293117E0,-1.118737831E0,7.252755318E0,1.103209100E1
1.560198092E1,-8.271249653E0,-6.636227238E-1,5.375978018E0,9.887118164E0
1.561192592E1,-6.332783643E0,7.774311751E-2,4.271900619E0,7.639327690E0
1.562187092E1,-3.472912806E0,1.121226552E0,3.339210081E0,4.946574199E0
1.563181592E1,-1.531362391E0,1.314433906E0,1.653796070E0,2.609185448E0
1.564176092E1,-9.238922328E-1,1.170408213E0,-1.452711493E-1,1.498177543E0
1.565170592E1,-1.113604560E0,9.669465972E-1,-1.555782410E0,2.143725669E0
1.566165092E1,-2.112946340E0,4.548234768E-1,-2.960035980E0,3.665135691E0
1.567159592E1,-3.762775074E0,-1.842181371E-1,-4.039182313E0,5.523351006E0
1.568154192E1,-4.968854519E0,-9.388380083E-1,-4.730845652E0,6.924726176E0
1.569148754E1,-5.538107275E0,-1.836414116E0,-4.640034300E0,7.454727849E0
1.570143254E1,-6.183883127E0,-2.699360674E0,-3.892999291E0,7.789891017E0
1.571137754E1,-7.438457624E0,-3.760565703E0,-3.461362509E0,9.025161309E0
1.572132254E1,-8.663673837E0,-4.835012337E0,-3.345521273E0,1.047039165E1
1.573126754E1,-9.207437410E0,-5.601646628E0,-3.249206522E0,1.125667320E1
1.574121254E1,-9.772854393E0,-6.336050482E0,-3.402360302E0,1.213384829E1
1.575115754E1,-1.086042072E1,-6.912699966E0,-3.805871100E0,1.342456010E1
1.576110354E1,-1.210109697E1,-7.475867525E0,-4.312950704E0,1.486360275E1
1.577104854E1,-1.300938824E1,-8.091199265E0,-4.783878436E0,1.604983430E1
1.578099354E1,-1.347192639E1,-8.393145388E0,-4.947401669E0,1.662571723E1
1.579093854E1,-1.312840013E1,-8.233159136E0,-4.958476295E0,1.627041138E1
1.580088354E1,-1.201548087E1,-7.739634254E0,-4.949130106E0,1.512506554E1
1.581082854E1,-1.036852019E1,-6.811881105E0,-4.305822363E0,1.313194736E1
1.582077354E1,-7.908184338E0,-5.270494832E0,-3.098139612E0,9.995797335E0
1.583071954E1,-4.714744467E0,-2.977076520E0,-1.982308725E0,5.917883733E0
1.584066454E1,-3.354939383E-1,-8.101957557E-1,-9.983723116E-1,1.328804206E0
1.585060954E1,4.020614480E0,7.623098369E-1,-3.314657915E-1,4.105645705E0
1.586055454E1,7.561604079E0,2.425902332E0,8.675209808E-1,7.988457362E0
1.587049954E1,1.054924242E1,4.952197555E0,3.232046113E0,1.209367183E1
1.588044454E1,1.532536745E1,7.267068717E0,7.260700514E0,1.844979532E1
1.589038954E1,2.358383217E1,9.176415008E0,1.293827207E1,2.842186863E1
1.590033554E1,3.181470270E1,1.114346455E1,1.769894992E1,3.807367777E1
1.591028054E1,3.690394379E1,1.281946132E1,2.028827594E1,4.402106083E1
1.592022554E1,4.166129458E1,1.411868925E1,2.103054254E1,4.875740530E1
1.593017054E1,4.656010589E1,1.462430384E1,2.008735859E1,5.277514281E1
1.594011554E1,4.885002990E1,1.453820593E1,1.733120800E1,5.383359197E1
1.595006054E1,4.625520400E1,1.407621040E1,1.343903463E1,5.018257913E1
1.596000554E1,4.042456169E1,1.241968485E1,9.765562330E0,4.340230371E1
1.596995054E1,3.285592341E1,1.000781949E1,6.238611311E0,3.490828591E1
1.597989654E1,2.391414840E1,7.227316421E0,3.063269449E0,2.516950965E1
1.598984154E1,1.515298335E1,3.875289536E0,6.171975857E-1,1.565284978E1
1.599978654E1,7.394873064E0,1.045365214E-2,-1.214650294E0,7.493973061E0
1.600973154E1,8.182798237E-1,-3.506812039E0,-3.490821366E0,5.015291253E0
1.601967654E1,-4.916760505E0,-6.728761765E0,-6.684101901E0,1.068307011E1
1.602962154E1,-9.721034614E0,-8.995579923E0,-9.897300099E0,1.653407153E1
1.603956654E1,-1.343670276E1,-1.053945302E1,-1.210383463E1,2.093150410E1
1.604951154E1,-1.614202000E1,-1.137143930E1,-1.327322982E1,2.379186985E1
1.605945754E1,-1.822595128E1,-1.156401384E1,-1.347385013E1,2.544516365E1
1.606940254E1,-1.967295238E1,-1.090788607E1,-1.281691895E1,2.588977492E1
1.607934754E1,-1.970572954E1,-9.914704921E0,-1.153215704E1,2.489192231E1
1.608929254E1,-1.843456941E1,-8.744293492E0,-9.465805405E0,2.249216508E1
1.609923754E1,-1.631268502E1,-7.189818227E0,-6.725246419E0,1.905324429E1
1.610918254E1,-1.399655495E1,-5.393600357E0,-4.027569743E0,1.553112338E1
1.611912754E1,-1.161865373E1,-3.997631706E0,-1.631621674E0,1.239501364E1
1.612907354E1,-9.234379626E0,-3.192387080E0,4.183331966E-1,9.779575912E0
1.613901854E1,-7.521602692E0,-2.519331921E0,2.347608260E0,8.272412280E0
1.614896354E1,-6.674958610E0,-2.047639665E0,3.828404807E0,7.962699543E0
1.615890854E1,-6.625099987E0,-1.835604131E0,4.391707144E0,8.157725418E0
1.616885354E1,-7.098774741E0,-1.810674527E0,3.812044297E0,8.258500275E0
1.617879854E1,-7.692404539E0,-1.868237734E0,2.452518711E0,8.287234029E0
1.618874354E1,-8.052571973E0,-1.923536606E0,7.888542956E-1,8.316621884E0
1.619868854E1,-8.038125842E0,-1.737798631E0,-1.207888866E0,8.312063922E0
1.620863454E1,-7.640653172E0,-1.436221175E0,-2.668739098E0,8.219761586E0
1.621857954E1,-7.018739222E0,-1.176949201E0,-3.458228986E0,7.912474797E0
1.622852454E1,-6.032757745E0,-7.421598932E-1,-3.720603200E0,7.126559864E0
1.623846954E1,-5.095892880E0,-3.423360577E-1,-3.850776546E0,6.396389468E0
1.624841454E1,-4.966689295E0,-4.276042494E-1,-4.022451675E0,6.405541774E0
1.625835954E1,-5.255644659E0,-7.312943047E-1,-3.695897545E0,6.466548600E0
1.626830454E1,-5.973634209E0,-9.935641462E-1,-2.663986189E0,6.615761316E0
1.627825054E1,-6.766034256E0,-1.459388721E0,-1.840555553E0,7.162170044E0
1.628819554E1,-7.536490288E0,-1.914098323E0,-1.521822073E0,7.923282191E0
1.629814054E1,-8.121786634E0,-2.329735661E0,-1.605937194E0,8.600588390E0
1.630808554E1,-8.626390820E0,-2.754332395E0,-2.030046270E0,9.280196840E0
1.631803054E1,-8.889657027E0,-3.053922675E0,-2.532592236E0,9.734807096E0
1.632797554E1,-8.934217488E0,-3.393099482E0,-2.709595056E0,9.933542751E0
1.633792054E1,-9.046775220E0,-3.831366714E0,-2.891884342E0,1.024141142E1
1.634786554E1,-9.374561943E0,-4.236867319E0,-3.544890862E0,1.088116297E1
1.635781154E1,-9.898999300E0,-4.610339507E0,-4.380508849E0,1.176580959E1
1.636775654E1,-1.025258979E1,-5.094408857E0,-4.799005183E0,1.241366383E1
1.637770154E1,-1.000377673E1,-5.348456343E0,-4.604598711E0,1.224270654E1
1.638764654E1,-9.643990531E0,-5.469948621E0,-3.893258615E0,1.175092992E1
1.639759154E1,-9.767369120E0,-5.343096786E0,-3.286383411E0,1.160820825E1
1.640753654E1,-1.072960798E1,-5.025188348E0,-3.550748017E0,1.236870312E1
1.641748154E1,-1.200941029E1,-4.357072624E0,-4.063106196E0,1.340592590E1
1.642742754E1,-1.267822183E1,-3.103707916E0,-3.732230973E0,1.357570844E1
1.643737254E1,-1.294831525E1,-1.385505935E0,-2.656150335E0,1.329035850E1
1.644731754E1,-9.128457899E0,2.267858086E0,3.011178651E-1,9.410770207E0
1.645726254E1,6.888377303E0,9.183778406E0,6.633159789E0,1.325859482E1
1.646720754E1,3.647953417E1,1.828154544E1,1.604280210E1,4.384453006E1
1.647715254E1,6.512505301E1,2.557192525E1,2.785596697E1,7.530704340E1
