"Time (s)","Linear Acceleration x (m/s^2)","Linear Acceleration y (m/s^2)","Linear Acceleration z (m/s^2)","Absolute acceleration (m/s^2)"
5.694083287E-3,3.441264167E0,1.453742942E0,-1.074279345E1,1.137379790E1
1.564008329E-2,1.002595755E0,6.477756000E-1,-5.290481785E0,5.423468355E0
2.558608330E-2,-4.744532522E0,2.277112767E0,1.360749993E0,5.435758636E0
3.553208330E-2,-4.158405286E0,-7.429770416E-1,6.893873101E0,8.085161455E0
4.547708330E-2,8.094306475E-1,-2.662854168E0,7.971255330E0,8.443155916E0
5.542308331E-2,-1.343222380E-2,-4.724837345E0,-2.237779716E0,5.227994494E0
6.536908331E-2,1.869508041E0,-5.367046396E0,-1.005613036E1,1.155101749E1
7.531508332E-2,4.566141574E0,-4.233306949E0,-5.121204307E0,8.062088449E0
8.526108332E-2,3.310453182E0,-2.295129792E0,-1.295088100E-1,4.030321769E0
9.520608332E-2,9.035994709E-1,1.356141803E0,2.252628318E-1,1.645100585E0
1.051520833E-1,-3.008743286E-2,3.009960092E0,3.939831249E-1,3.035784530E0
1.150980833E-1,-1.884680396E-1,3.656083853E0,1.250071557E0,3.868481387E0
1.250440833E-1,5.678312981E-1,3.646606686E0,1.557816364E0,4.005866264E0
1.349900833E-1,1.167544540E0,3.067028332E0,1.265616964E0,3.517329859E0
1.449350833E-1,-6.356040359E-2,6.923780440E0,1.136464834E0,7.016717739E0
1.548810833E-1,-4.344539702E-2,7.143552133E0,1.865116782E0,7.383148732E0
1.648270833E-1,-3.677664757E-2,6.006480358E0,9.069323838E-1,6.074675725E0
1.747730833E-1,-3.303869802E-1,4.104429638E0,-1.652388060E0,4.436877789E0
1.847190833E-1,1.125793666E-1,2.618381415E0,-2.133158410E0,3.379195193E0
1.946630833E-1,5.408352882E-1,3.866525145E0,9.919146466E-1,4.028202350E0
2.046090833E-1,4.435183239E-1,6.459194598E0,1.935293895E0,6.757460013E0
2.145550833E-1,-1.956618690E-1,6.222599296E0,5.097052968E-1,6.246505027E0
2.245010833E-1,-7.567741317E-1,7.835412816E0,1.367942069E0,7.989847720E0
2.344470833E-1,-1.430047685E0,9.020382643E0,2.661088893E0,9.512819430E0
2.443920833E-1,-5.686744666E-1,7.343274309E0,4.362696476E0,8.560384849E0
2.543380833E-1,2.155287783E0,3.665459864E0,5.495759400E0,6.948685690E0
2.642840833E-1,3.316253035E0,-1.203753422E0,4.710825663E0,5.885442627E0
2.742300833E-1,3.023413365E0,-1.972977446E0,2.945818475E0,4.659561660E0
2.841760833E-1,2.410456765E0,8.695692605E-1,3.312555256E0,4.188015621E0
2.941210833E-1,-2.276445599E0,8.388104503E0,5.113469025E0,1.008414930E1
3.040670833E-1,-1.006723539E1,1.245326892E1,-2.092175860E0,1.614962337E1
3.140130833E-1,-1.073382967E1,2.016148608E0,-8.050695602E0,1.356811167E1
3.239590833E-1,-1.133025970E1,-4.009016528E0,-7.492842577E0,1.416296891E1
3.339050833E-1,-1.083300546E1,-5.750078782E0,-9.573863704E0,1.555880071E1
3.438510833E-1,-8.985112238E0,-7.221610124E0,-2.339058169E0,1.176244396E1
3.537960833E-1,-9.180346091E0,-1.119159181E1,1.718119535E0,1.457677661E1
3.637420833E-1,-8.102473866E0,-1.263475831E1,1.172069700E0,1.505526312E1
3.736880833E-1,-5.380052943E0,-1.640533883E1,2.278133690E0,1.741464915E1
3.836340833E-1,-2.469765951E-1,-2.050625078E1,3.125965927E0,2.074461331E1
3.935800833E-1,3.689230549E0,-1.962246285E1,1.412371552E0,2.001615007E1
4.035250833E-1,4.110207272E0,-2.258540606E1,2.213182819E-1,2.295742478E1
4.134710833E-1,6.042890970E0,-1.813342026E1,-5.518024720E-2,1.911388256E1
4.234170833E-1,7.306280145E0,-8.925982854E0,-1.270182470E0,1.160466557E1
4.333630833E-1,8.680503293E0,-1.587845909E0,-2.162457054E0,9.085626701E0
4.433090833E-1,9.752852823E0,3.586852235E0,-3.278278878E0,1.089636451E1
4.532550833E-1,8.169861272E0,4.118452431E0,-3.848409301E0,9.925650496E0
4.632000833E-1,5.638570626E0,2.267304647E0,-3.603829626E0,7.065531617E0
4.731460833E-1,3.187249132E0,1.991842902E0,-2.734056298E0,4.647693946E0
4.830920833E-1,7.407884288E-1,1.961433288E0,-1.836008027E0,2.786918283E0
4.930380833E-1,-3.730885017E-1,2.983649960E0,-2.032427841E0,3.629342233E0
5.029840833E-1,-9.382426156E-1,4.377372403E0,-5.153960409E0,6.826785206E0
5.129290833E-1,-2.414742190E0,4.634414833E0,-1.001152195E1,1.129333221E1
5.228750833E-1,-4.175354610E0,4.594168448E0,-1.072152946E1,1.238915509E1
5.328210833E-1,-6.112911962E0,4.640610543E0,-5.337729042E0,9.348492402E0
5.427670833E-1,-7.753105069E0,5.088081000E0,3.257479162E0,9.829057787E0
5.527130833E-1,-9.307958649E0,5.694647178E0,1.200214805E1,1.622093272E1
5.626590833E-1,-1.128820652E1,5.921401616E0,1.303864771E1,1.823438888E1
5.726040833E-1,-1.096656054E1,6.934050490E0,1.160532208E1,1.740775709E1
5.825500833E-1,-8.085171370E0,6.973075976E0,1.073108615E1,1.513770110E1
5.924960833E-1,-4.964658557E0,5.252763151E0,7.873605074E0,1.068798448E1
6.024420833E-1,-3.690992900E0,2.836097227E0,5.207897465E0,6.984917471E0
6.123880833E-1,-3.036248881E0,6.356841427E-1,4.216235418E0,5.234457250E0
6.223330833E-1,-1.539879152E0,-1.658077401E0,4.864698066E0,5.365233988E0
6.322790833E-1,7.105502839E-1,-6.066535356E0,5.476996855E0,8.203976321E0
6.422250833E-1,4.269065012E0,-1.290113640E1,2.826188828E0,1.387989841E1
6.521710833E-1,1.182444999E1,-1.802380134E1,-1.660935169E1,2.721296743E1
6.621170833E-1,1.408271718E1,-1.877489958E1,-2.632448529E1,3.526752477E1
6.720630833E-1,1.101744302E1,-1.610223554E1,1.619612077E0,1.957777269E1
6.820080833E-1,1.120969947E1,-1.772600031E1,8.674695253E0,2.269622847E1
6.919540833E-1,1.149671122E1,-2.199761354E1,1.071233647E1,2.703374785E1
7.019000833E-1,1.001038291E1,-2.290130540E1,9.975186181E0,2.691062790E1
7.118460833E-1,7.907190312E0,-2.062114155E1,7.211067009E0,2.323261985E1
7.217920833E-1,8.868856727E0,-1.658328363E1,6.386208483E0,1.986065393E1
7.317370833E-1,9.821079304E0,-1.260916270E1,5.461885310E0,1.689013836E1
7.416830833E-1,9.037122636E0,-9.679913485E0,3.419507847E0,1.367711024E1
7.516290833E-1,6.843702822E0,-7.013913515E0,1.367790041E0,9.894549040E0
7.615750833E-1,4.702416782E0,-4.782768635E0,-1.346528395E0,6.841106498E0
7.715210833E-1,2.165833528E0,-1.929603385E0,-1.109848075E1,1.147128933E1
7.814670833E-1,-2.959723154E0,1.708961626E0,-3.031257639E1,3.050463569E1
7.914120833E-1,-5.445196187E0,3.792107631E0,-2.753298549E1,2.832129114E1
8.013580833E-1,-5.183678298E0,4.690399584E0,-1.732252606E1,1.867994320E1
8.113040833E-1,-5.885948778E0,4.802970765E0,-1.102433337E1,1.338838480E1
8.212500833E-1,-7.859249575E0,4.552487156E0,-1.151195140E1,1.466349100E1
8.311960833E-1,-1.027406895E1,3.799562246E0,-1.257129380E1,1.667424942E1
8.411420833E-1,-8.539747363E0,3.394700450E0,-6.258160307E0,1.111826635E1
8.510870833E-1,-5.196450371E0,4.830135759E0,2.650739322E0,7.573620459E0
8.610330833E-1,-4.014475488E0,6.651484378E0,6.690008758E0,1.025253506E1
8.709790833E-1,-3.787378988E0,8.287578587E0,8.150297073E0,1.222520105E1
8.809250833E-1,-3.092941145E0,9.584685146E0,9.416481217E0,1.378776968E1
8.908710833E-1,-2.585036791E0,1.078084128E1,1.116583015E1,1.573482497E1
9.008160833E-1,-1.999963808E0,1.177711561E1,1.066987984E1,1.601707349E1
9.107620833E-1,-1.815466174E0,1.237229200E1,9.911285470E0,1.595628736E1
9.207080833E-1,-1.597441775E0,1.292545497E1,9.450100368E0,1.609110324E1
9.306540833E-1,-1.377642746E0,1.300540395E1,8.585343951E0,1.564437798E1
9.406000833E-1,-9.552178136E-1,1.265886521E1,8.017230817E0,1.501450297E1
9.505460833E-1,-1.955519414E-1,1.207001083E1,7.501754318E0,1.421266055E1
9.604910833E-1,9.077868082E-1,1.116119097E1,5.819624981E0,1.261999586E1
9.704370833E-1,1.410939130E0,9.990198323E0,3.483623736E0,1.067382059E1
9.803830833E-1,9.312896915E-1,8.968234835E0,1.553804004E0,9.149363006E0
9.903290833E-1,3.232998624E-2,8.301444674E0,4.388744652E-1,8.313100487E0
1.000275083E0,-2.898293768E-1,7.847453402E0,-3.014333042E-1,7.858586896E0
1.010220083E0,5.440389776E-1,6.864517155E0,-7.978542130E0,1.053919867E1
1.020166083E0,4.918619335E-2,6.142345676E0,-2.273604905E1,2.355119437E1
1.030112083E0,-1.280054178E0,7.255903459E0,-1.972810098E1,2.105907505E1
1.040058083E0,-6.674182977E-1,8.586763070E0,-1.240580005E1,1.510237803E1
1.050004083E0,-5.638969991E-1,9.504787037E0,-7.616809981E0,1.219322561E1
1.059950083E0,-6.476712272E-1,1.040684167E1,-3.321568154E0,1.094324662E1
1.069895083E0,-6.894929986E-1,1.087105680E1,6.289779711E-1,1.091104440E1
1.079841083E0,-3.065002272E-1,9.738281561E0,3.812931905E0,1.046262490E1
1.089787083E0,5.158007267E-1,8.047724047E0,5.086506929E0,9.534383329E0
1.099733083E0,8.054839231E-1,5.980393590E0,4.350324937E0,7.439034810E0
1.109679083E0,8.562985660E-1,3.718190639E0,4.093405006E0,5.595905057E0
1.119624083E0,2.004779136E0,-9.517448598E-1,5.657941282E0,6.077602917E0
1.129570083E0,4.583647845E0,-1.390778603E1,9.117840525E0,1.725025669E1
1.139516083E0,3.703781345E0,-2.096682426E1,-8.794547971E0,2.303627118E1
1.149462083E0,2.287011518E0,-2.791477125E1,-2.492781703E1,3.749481214E1
1.159408083E0,6.909954114E0,-4.888205393E1,-5.330946856E0,4.965502650E1
1.169354083E0,1.136948750E1,-6.501173397E1,1.448339296E1,6.756892385E1
1.179299083E0,1.071743641E1,-5.985600536E1,5.667855821E0,6.107151063E1
1.189248333E0,6.793334906E0,-4.439952696E1,4.843239369E0,4.517659085E1
1.199194333E0,1.503962923E0,-2.524102664E1,1.609352553E0,2.533695613E1
1.209140333E0,1.501461630E0,-1.435165168E1,2.026619364E0,1.457159837E1
1.219086333E0,1.929145694E0,-8.809185306E0,1.896466044E0,9.215201155E0
1.229032333E0,2.333937909E0,-5.341463073E0,5.677107724E-1,5.856687583E0
1.238977333E0,2.192810827E0,-2.270649254E0,-9.925204182E-1,3.308982342E0
1.248923333E0,2.048095163E0,6.282546705E-1,-2.971566689E0,3.663278083E0
1.258869333E0,1.971927286E0,2.951960390E0,-4.357237515E0,5.620327938E0
1.268815333E0,1.606684468E0,5.067853142E0,-5.051960995E0,7.333953936E0
1.278761333E0,8.389406678E-1,6.999767931E0,-5.163689591E0,8.738664814E0
1.288706333E0,-4.080980842E-1,8.702412225E0,-5.214667372E0,1.015338753E1
1.298652333E0,-3.013134545E0,1.010763263E1,-5.420012814E0,1.185832012E1
1.308598333E0,-5.234143862E0,1.153844046E1,-6.176970549E0,1.409563178E1
1.318544333E0,-5.832157903E0,1.233688009E1,-8.896032831E0,1.628963094E1
1.328490333E0,-5.294545015E0,1.244669197E1,-5.979490196E0,1.478873392E1
1.338436333E0,-4.344181852E0,1.234996733E1,-2.109207630E-1,1.309343716E1
1.348381333E0,-3.646338299E0,1.229796921E1,3.360983065E0,1.326016730E1
1.358327333E0,-2.975454503E0,1.209250273E1,5.585328219E0,1.364836412E1
1.368273333E0,-2.517979460E0,1.195222569E1,6.197152798E0,1.369673765E1
1.378219333E0,-2.013678452E0,1.186825382E1,6.361893421E0,1.361558069E1
1.388165333E0,-1.880600502E0,1.167013262E1,6.612976370E0,1.354474474E1
1.398110333E0,-1.783043071E0,1.112931428E1,6.222463056E0,1.287477866E1
1.408056333E0,-1.395176645E0,1.040396250E1,5.192520458E0,1.171115803E1
1.418002333E0,-1.018169376E0,9.540787175E0,3.823649851E0,1.032877471E1
1.427948333E0,-8.074880563E-1,8.911734359E0,2.628598255E0,9.326337708E0
1.437894333E0,-9.188140722E-1,8.810405620E0,1.390494779E0,8.966657249E0
1.447840333E0,-1.519720877E0,8.832277715E0,-3.418738353E-1,8.968587341E0
1.457785333E0,-2.059088221E0,9.055124459E0,-2.489956094E0,9.614312488E0
1.467731333E0,-2.236927338E0,9.133933232E0,-5.086085345E0,1.069115730E1
1.477677333E0,-1.906244928E0,8.535053219E0,-7.873831946E0,1.176767321E1
1.487623333E0,-1.339327111E0,7.594984664E0,-9.131331806E0,1.195235582E1
1.497569333E0,-5.084341121E-1,5.973378686E0,-7.742613995E0,9.792233129E0
1.507514333E0,1.050310936E0,6.254451419E0,-5.215966623E0,8.211432483E0
1.517460333E0,3.478937193E0,8.878291794E0,-2.560382298E0,9.873329058E0
1.527406333E0,3.986542754E0,9.983550038E0,-4.858341850E-2,1.075016999E1
1.537352333E0,3.574765748E0,9.949838501E0,8.488146416E-1,1.060654150E1
1.547298333E0,4.247955394E0,1.005549184E1,2.229976022E-1,1.091823104E1
1.557244333E0,4.885244305E0,9.967124040E0,-1.132688702E0,1.115760535E1
1.567189333E0,5.748405894E0,1.010620825E1,-8.610703325E-1,1.165851867E1
1.577135333E0,5.235108068E0,9.144282219E0,2.411999846E-1,1.053956504E1
1.587081333E0,2.875447235E0,6.820538492E0,2.802517837E0,7.914672978E0
1.597027333E0,3.709396134E-1,4.534916857E0,4.992626374E0,6.754952643E0
1.606973333E0,-1.322991891E0,1.214231048E0,3.882564642E0,4.277729863E0
1.616918333E0,-2.562849239E0,-4.009667907E0,-1.250812984E0,4.920382715E0
1.626864333E0,-5.254617888E0,-1.516575250E1,-1.011764190E1,1.897307923E1
1.636810333E0,-3.136955768E0,-1.802851420E1,-5.955325992E0,1.924405683E1
1.646756333E0,-5.577629775E-1,-1.955256055E1,-1.939474947E0,1.965643118E1
1.656702333E0,1.943242161E0,-3.347189016E1,1.118284671E0,3.354689526E1
1.666648333E0,3.280462813E0,-4.536858835E1,7.957236046E0,4.617778525E1
1.676593333E0,5.149540499E0,-5.482180060E1,3.720652317E0,5.518868401E1
1.686539333E0,1.049831318E1,-5.623986734E1,2.722229719E-2,5.721134502E1
1.696485333E0,1.395661145E1,-4.373811799E1,5.673581414E0,4.626012856E1
1.706431333E0,9.541699340E0,-2.811798304E1,6.193964896E0,3.033199957E1
1.716377333E0,6.255674071E0,-1.793620654E1,3.037541116E0,1.923714166E1
1.726323333E0,4.845494640E0,-1.079861097E1,-5.062916923E-1,1.184673577E1
1.736268333E0,4.367351444E0,-4.832389861E0,-5.939715096E0,8.815098742E0
1.746214333E0,3.127294122E0,-5.424040961E-1,-1.139743368E1,1.183113119E1
1.756160333E0,1.208649150E0,2.133322717E0,-1.062208236E1,1.090140047E1
1.766106333E0,-9.214897580E-1,3.969536712E0,-7.017366881E0,8.114789155E0
1.776052333E0,-2.920384841E0,5.876520728E0,-4.069978428E0,7.721843555E0
1.785997333E0,-4.849473086E0,7.530929001E0,-2.682703711E0,9.350357214E0
1.795943333E0,-6.612184657E0,9.486167164E0,-4.339653184E0,1.235074666E1
1.805889333E0,-7.937367207E0,1.155418701E1,-9.459071167E0,1.691079723E1
1.815835333E0,-8.164871258E0,1.258984584E1,-1.046389763E1,1.829378295E1
1.825781333E0,-5.498425146E0,1.202394296E1,-2.883435116E0,1.353226076E1
1.835727333E0,-3.447411345E0,1.193645107E1,3.056938376E0,1.279485761E1
1.845672333E0,-2.107085237E0,1.219774092E1,4.903457505E0,1.331422499E1
1.855618333E0,-1.488611497E0,1.249179973E1,6.168115525E0,1.401094836E1
1.865564333E0,-1.550059155E0,1.262769136E1,6.329878746E0,1.421015966E1
1.875510333E0,-1.326181839E0,1.286847502E1,6.296768303E0,1.438769262E1
1.885456333E0,-7.291078846E-1,1.310654909E1,5.632398305E0,1.428415689E1
1.895401333E0,-8.690687388E-2,1.261601564E1,4.431431665E0,1.337194788E1
1.905347333E0,3.940413778E-1,1.169273327E1,3.093994521E0,1.210157354E1
1.915293333E0,2.712293838E-1,1.091493899E1,1.773735327E0,1.106144635E1
1.925239333E0,-8.058559522E-2,1.044695591E1,5.539394101E-1,1.046194202E1
1.935185333E0,-5.216736701E-1,1.031500530E1,-8.233347416E-1,1.036095353E1
1.945130333E0,-1.273886389E0,1.012211151E1,-2.555991039E0,1.051727237E1
1.955076333E0,-1.993424136E0,9.717968919E0,-4.253278699E0,1.079365737E1
1.965022333E0,-2.342943936E0,9.162688084E0,-5.081758990E0,1.073631751E1
1.974968333E0,-2.255323848E0,8.717270000E0,-4.344388844E0,9.997549517E0
1.984914333E0,-1.871667418E0,8.541890953E0,-2.975193132E0,9.236818399E0
1.994860333E0,-1.349608270E0,8.390899472E0,-2.070283885E0,8.747268819E0
2.004805333E0,-7.695008889E-1,8.257244986E0,-1.751673782E0,8.476000674E0
2.014751333E0,1.689231366E-2,8.486128396E0,-1.881041089E0,8.692121495E0
2.024697333E0,8.223753597E-1,9.087155507E0,-2.221837867E0,9.390913691E0
2.034643333E0,1.513939003E0,9.784918953E0,-2.606907424E0,1.023878003E1
2.044589333E0,1.979507762E0,1.038986487E1,-2.767056813E0,1.093271907E1
2.054534333E0,2.225264628E0,1.090089865E1,-2.334717196E0,1.136803846E1
2.064480333E0,2.298619995E0,1.107360903E1,-1.063588354E0,1.135956386E1
2.074426333E0,2.248216411E0,1.088443991E1,8.361015522E-1,1.114560788E1
2.084372333E0,1.576782246E0,1.045094605E1,3.422595177E0,1.110957575E1
2.094318333E0,2.653289585E-1,9.658425552E0,6.159516610E0,1.145841300E1
2.104263333E0,-2.572818741E-1,8.168999977E0,5.857063533E0,1.005504589E1
2.114209333E0,-5.723785315E-1,7.155812575E0,4.603132814E0,8.527725517E0
2.124155333E0,-6.203295006E-1,5.357571568E0,3.804485894E0,6.600188991E0
2.134101333E0,-1.738590637E-1,1.155739596E0,3.247511998E0,3.451419298E0
2.144047333E0,-7.400163040E-2,-9.321917707E0,3.422299015E0,9.930546638E0
2.153993333E0,-1.446969527E-1,-1.940813433E1,3.332158631E0,1.969263559E1
2.163938333E0,-1.368619761E0,-3.202386696E1,-1.993003575E0,3.211500021E1
2.173884333E0,-2.753888591E0,-5.915106504E1,-1.624813994E1,6.140386347E1
2.183830333E0,1.982725193E0,-8.448582956E1,-2.136912440E1,8.716895132E1
2.193773333E0,1.103744517E1,-7.533403426E1,-1.492889904E0,7.615294238E1
2.203719333E0,1.245875010E1,-4.688386856E1,6.877081068E0,4.899603891E1
2.213665333E0,3.859088363E0,-2.566428787E1,4.657805450E0,2.636746834E1
2.223610333E0,1.071384301E0,-1.635101820E1,2.488193743E0,1.657391832E1
2.233556333E0,4.451562752E-1,-1.018412123E1,2.023374013E0,1.039271532E1
2.243502333E0,1.063763478E-1,-6.255370601E0,1.013610156E0,6.337853172E0
2.253448333E0,4.493000507E-3,-3.157631523E0,-6.776291442E-1,3.229526015E0
2.263394333E0,-1.691912314E-1,-1.265852022E-1,-3.048563994E0,3.055878256E0
2.273339333E0,-3.819649771E-1,3.021182653E0,-4.220008042E0,5.204028222E0
2.283285333E0,-5.280536402E-1,5.412364072E0,-4.195639186E0,6.868472441E0
2.293231333E0,-7.668423792E-1,7.216962172E0,-3.673010373E0,8.134100775E0
2.303177333E0,-9.610784047E-1,8.622579020E0,-2.734181428E0,9.096608640E0
2.313123333E0,-8.408741958E-1,9.861685878E0,-5.849542844E-1,9.914741009E0
2.323068333E0,-5.283902206E-1,1.079212290E1,1.944129038E-1,1.080679922E1
2.333014333E0,-4.425961449E-1,1.185414683E1,-6.376458836E-1,1.187953201E1
2.342960333E0,1.222575098E0,1.338426727E1,-5.453989230E0,1.450445790E1
2.352906333E0,4.186849359E0,1.456159479E1,-1.124271752E1,1.886712611E1
2.362852333E0,3.767829699E0,1.444708058E1,-6.497126656E0,1.628273112E1
2.372797333E0,1.885638463E0,1.417605629E1,-5.525665569E-1,1.431158740E1
2.382743333E0,3.629135060E-1,1.398336831E1,3.402963735E0,1.439605702E1
2.392689333E0,-2.052259404E-1,1.337443109E1,5.490945972E0,1.445918436E1
2.402635333E0,-2.634335104E-1,1.282856778E1,5.844646386E0,1.409969644E1
2.412581333E0,-8.203263491E-2,1.204743473E1,5.368063227E0,1.318952295E1
2.422527333E0,-7.761820637E-2,1.099602817E1,4.763289220E0,1.198363819E1
2.432472333E0,-4.078184411E-2,9.923763428E0,4.100293318E0,1.073755787E1
2.442418333E0,9.355501190E-2,8.995048996E0,3.275730661E0,9.573404324E0
2.452364333E0,5.885074912E-1,8.258160660E0,2.506238251E0,8.650132295E0
2.462310333E0,7.592825872E-1,8.118813325E0,1.957765914E0,8.385969666E0
2.472256333E0,6.283254949E-1,8.172915273E0,1.020906311E0,8.260362382E0
2.482201333E0,5.813662136E-1,8.388850608E0,-9.244214058E-2,8.409479576E0
2.492147333E0,1.146557128E-1,8.923735185E0,-1.975829133E0,9.140574180E0
2.502093333E0,-1.049598891E0,9.251561669E0,-5.334783214E0,1.073093487E1
2.512039333E0,-2.615803962E0,9.354139958E0,-1.025539411E1,1.412499462E1
2.521985333E0,-3.573515321E0,9.267373125E0,-1.075724309E1,1.464146493E1
2.531930333E0,-3.209240803E0,9.452477846E0,-7.520774142E0,1.249842421E1
2.541876333E0,-2.302380778E0,9.593874630E0,-5.120257058E0,1.111577348E1
2.551822333E0,-1.038785635E0,9.708718039E0,-3.337043395E0,1.031863073E1
2.561768333E0,2.375807042E-1,9.648374773E0,-1.635415932E0,9.788879692E0
2.571714333E0,1.125554734E0,9.836100801E0,1.545404479E-2,9.900302584E0
2.581660333E0,1.318052017E0,1.022186267E1,1.497407463E0,1.041469955E1
2.591605333E0,1.481402903E0,1.080872081E1,3.311719104E0,1.140133691E1
2.601551333E0,1.323466392E0,1.093854537E1,6.016520612E0,1.255395787E1
2.611497333E0,4.458433230E-1,1.012605253E1,6.834237349E0,1.222466835E1
2.621443333E0,-2.738923520E-2,8.128876383E0,4.716985412E0,9.398368624E0
2.631389333E0,-3.086033244E-1,6.260462356E0,2.867777442E0,6.892950920E0
2.641334333E0,6.447907425E-2,3.943150567E0,2.067377965E0,4.452712162E0
2.651280333E0,1.000381415E0,-1.712169408E0,-2.409435841E-1,1.997583758E0
2.661226333E0,5.588017353E-1,-1.772326148E1,-1.267414164E1,2.179587399E1
2.671172333E0,-1.296016931E0,-2.010825888E1,-1.573957836E1,2.556865390E1
2.681118333E0,-2.299212903E-2,-2.479045424E1,-7.198724706E0,2.581450730E1
2.691063333E0,1.983987314E0,-4.976421166E1,1.720456813E0,4.983345202E1
2.701009333E0,4.895108850E0,-6.962691789E1,2.729886063E0,6.985214430E1
2.710955333E0,9.623335826E0,-6.579870370E1,-9.592197064E0,6.718696485E1
2.720901333E0,1.073826303E1,-4.615071191E1,4.889690235E-2,4.738355088E1
2.730847333E0,4.173969112E0,-2.614985703E1,5.718580416E0,2.709131231E1
2.740793333E0,1.951190135E0,-1.676373105E1,6.402899945E0,1.805067725E1
2.750738333E0,1.951668438E0,-1.078399410E1,6.578400614E0,1.278197532E1
2.760684333E0,1.535915033E0,-7.168093482E0,5.800204039E0,9.347885646E0
2.770630333E0,8.608624640E-1,-4.939596806E0,3.596252804E0,6.170391804E0
2.780576333E0,6.659442146E-1,-2.508671277E0,1.775095389E0,3.144499469E0
2.790522333E0,5.794477422E-1,2.565875173E-1,1.293602177E-1,6.467850538E-1
2.800467333E0,3.951137571E-1,2.357347675E0,-2.277082361E0,3.301258400E0
2.810413333E0,1.192532469E0,4.561106536E0,-5.345649680E0,7.127537936E0
2.820359333E0,1.715764276E0,7.073843383E0,-6.378117691E0,9.677990108E0
2.830305333E0,1.481976807E0,8.477765708E0,-5.346168913E0,1.013164788E1
2.840251333E0,1.260001006E0,9.807266427E0,-3.482895758E0,1.048335062E1
2.850197333E0,1.685914825E0,1.146221966E1,-4.197971640E0,1.232265208E1
2.860142333E0,1.949202667E0,1.327994242E1,-8.401840782E0,1.583499890E1
2.870088333E0,3.154647104E0,1.433521048E1,-1.494023007E1,2.094422432E1
2.880034333E0,2.262179855E0,1.325432109E1,-1.142476824E1,1.764425727E1
2.889980333E0,-9.413279720E-1,1.118374368E1,-1.959527096E0,1.139306664E1
2.899926333E0,-3.007720900E0,1.028820167E1,4.410122073E0,1.159062791E1
2.909871333E0,-3.463562231E0,1.040346198E1,7.183931251E0,1.310866709E1
2.919817333E0,-3.475724732E0,1.041756313E1,7.992706425E0,1.358269634E1
2.929763333E0,-3.252506398E0,1.049276651E1,7.346368071E0,1.321537251E1
2.939709333E0,-2.813137550E0,1.068106439E1,6.243600740E0,1.268784575E1
2.949655333E0,-2.233795716E0,1.052954900E1,5.225660137E0,1.196531526E1
2.959601333E0,-1.731907854E0,9.984328887E0,4.853052167E0,1.123558826E1
2.969546333E0,-1.284163747E0,9.403526126E0,4.258216088E0,1.040229707E1
2.979492333E0,-1.081204480E0,9.069183505E0,2.267815694E0,9.410742829E0
2.989438333E0,-8.174030337E-1,9.473406200E0,-4.281330570E-1,9.518238843E0
2.999384333E0,-1.767684189E-1,9.902091308E0,-2.331204189E0,1.017433891E1
3.009330333E0,7.781129605E-1,9.878676717E0,-3.285453411E0,1.043972785E1
3.019275333E0,1.700398671E0,9.794957453E0,-3.684527049E0,1.060227743E1
3.029221333E0,2.216262694E0,9.791149161E0,-3.747631370E0,1.071555706E1
3.039167333E0,2.505005073E0,9.695238453E0,-3.563853382E0,1.062891104E1
3.049113333E0,2.722482319E0,9.424972544E0,-3.161041034E0,1.030699752E1
3.059059333E0,2.922041942E0,9.157358932E0,-2.930004680E0,1.004890438E1
3.069004333E0,2.966489552E0,9.076188469E0,-2.981511633E0,1.000333289E1
3.078950333E0,3.092808413E0,9.285004234E0,-3.402125244E0,1.036104356E1
3.088896333E0,3.594635172E0,9.613413686E0,-4.256015196E0,1.111093111E1
3.098842333E0,4.311936797E0,1.002328304E1,-5.347223750E0,1.215120585E1
3.108788333E0,4.560663610E0,1.044938601E1,-5.327193528E0,1.258444721E1
3.118733333E0,3.827633851E0,1.031770438E1,-2.663155299E0,1.132246443E1
3.128679333E0,1.491440233E0,8.832964178E0,3.060677086E0,9.466435146E0
3.138625333E0,-6.474587540E-1,7.150555928E0,5.709220194E0,9.173050100E0
3.148571333E0,-9.921734590E-1,4.978215911E0,3.414817210E0,6.117844261E0
3.158517333E0,-7.831858586E-1,2.125723675E0,1.487374080E0,2.710048503E0
3.168463333E0,-1.938967408E0,-6.498480871E0,-5.646026995E0,8.824254590E0
3.178408333E0,-3.261709038E0,-1.866978536E1,-1.249276803E1,2.269953489E1
3.188354333E0,-1.567336654E0,-1.601136513E1,-3.110126697E0,1.638576351E1
3.198300375E0,-6.514644621E-1,-2.339180961E1,1.980461005E0,2.348453509E1
3.208246375E0,1.189543958E0,-4.651994253E1,7.307710959E0,4.710544244E1
3.218192375E0,7.940628491E-2,-5.513434130E1,-6.300765460E0,5.549325672E1
3.228137375E0,7.332585306E-1,-5.230844746E1,-1.202095971E1,5.367694865E1
3.238083375E0,1.709334824E0,-3.873196350E1,9.915903600E0,4.001764569E1
3.248029375E0,1.120148764E0,-2.377738904E1,1.124406472E1,2.632580396E1
3.257975375E0,9.210018810E-1,-1.559949428E1,9.333944260E0,1.820205982E1
3.267921375E0,9.829518152E-1,-1.141392400E1,7.530630208E0,1.370964065E1
3.277867375E0,1.739955085E0,-9.582884204E0,5.875276440E0,1.137444445E1
3.287812375E0,2.229222901E0,-9.122686697E0,4.017117845E0,1.021420986E1
3.297758375E0,2.244618912E0,-9.288000348E0,1.479904554E0,9.669301009E0
3.307704375E0,3.267932814E0,-8.168916947E0,-1.609432075E0,8.944320017E0
3.317650375E0,4.854452867E0,-5.128782883E0,-5.481133175E0,8.939404196E0
3.327596375E0,4.929839557E0,-1.956879476E0,-7.111142771E0,8.871361049E0
3.337541375E0,3.847455913E0,3.795796055E-1,-5.860907493E0,7.021198923E0
3.347487375E0,2.558125273E0,2.881552312E0,-4.638223709E0,6.029964164E0
3.357433375E0,1.335673186E0,5.598733546E0,-3.692320218E0,6.838352782E0
3.367379375E0,4.428719508E-1,8.832969441E0,-3.619893681E0,9.556208190E0
3.377325375E0,2.735453197E-1,1.210449420E1,-8.505198505E0,1.479635119E1
3.387270375E0,-8.331466618E-1,1.525489213E1,-1.670664351E1,2.263885608E1
3.397216375E0,-2.819362496E0,1.574359540E1,-1.775989311E1,2.390028042E1
3.407162375E0,-3.312500000E0,1.403824092E1,-8.757357341E0,1.687412730E1
3.417108375E0,-2.381000832E0,1.251096690E1,1.346897939E0,1.280654489E1
3.427054375E0,-1.873114165E0,1.143752570E1,8.151644272E0,1.416950441E1
3.437000375E0,-1.382654686E0,1.086219008E1,1.006214714E1,1.487096878E1
3.446945375E0,-1.536183603E-1,1.053648848E1,8.715893565E0,1.367508642E1
3.456891375E0,1.555428945E0,1.019658515E1,7.170102586E0,1.256185015E1
3.466837375E0,2.627273276E0,9.818829296E0,5.781551421E0,1.169351574E1
3.476783375E0,2.860595891E0,9.723710884E0,4.529159689E0,1.110165977E1
3.486729375E0,2.702896193E0,9.400311327E0,3.458493572E0,1.037461704E1
3.496674375E0,2.458898316E0,9.088745365E0,1.787226022E0,9.583613623E0
3.506620375E0,2.780917053E0,9.181248316E0,-1.089484795E0,9.654832853E0
3.516566375E0,3.139537607E0,9.862907946E0,-3.473000515E0,1.091766377E1
3.526512375E0,3.091325267E0,1.014034897E1,-4.254845753E0,1.142307671E1
3.536458375E0,2.784506074E0,1.009761518E1,-3.569864320E0,1.106613020E1
3.546403375E0,2.188224564E0,9.814179590E0,-2.505379879E0,1.036259505E1
3.556349375E0,1.363093411E0,9.578822143E0,-1.675588642E0,9.819340843E0
3.566295375E0,2.741931547E-1,9.437755142E0,-1.284860151E0,9.528760130E0
3.576241375E0,-8.715641843E-1,9.200168152E0,-1.689937710E0,9.394605240E0
3.586187375E0,-2.141760249E0,8.805983371E0,-2.719886155E0,9.462043162E0
3.596133375E0,-2.905551040E0,8.804311067E0,-3.386455876E0,9.870471296E0
3.606078375E0,-2.937888189E0,9.199188159E0,-3.258196031E0,1.019176585E1
3.616024375E0,-2.039730283E0,9.591675493E0,-2.290872288E0,1.007019534E1
3.625970375E0,-9.302124882E-1,9.912949587E0,-8.882525763E-1,9.996042088E0
3.635916375E0,-1.924061394E-1,1.004354013E1,8.562697685E-1,1.008181117E1
3.645862375E0,-1.355959808E-1,9.886575136E0,3.335671931E0,1.043501133E1
3.655807375E0,-6.181026616E-1,9.094934058E0,5.196287234E0,1.049291558E1
3.665753375E0,-9.067193989E-1,7.134126422E0,5.057640395E0,8.791906860E0
3.675699375E0,-7.750316240E-1,4.770364351E0,3.595925652E0,6.023929893E0
3.685645375E0,-7.291219179E-1,1.165098065E0,1.639128914E0,2.139115674E0
3.695591375E0,1.000133347E-1,-5.180462329E0,7.792189613E-1,5.239692243E0
3.705536375E0,1.348304195E0,-1.216182147E1,9.104816437E-1,1.227015903E1
3.715482375E0,1.984747014E0,-1.726534965E1,1.897563420E0,1.748234155E1
3.725428375E0,2.517512852E0,-3.172905503E1,-3.978972949E0,3.207651835E1
3.735374375E0,1.391957168E0,-5.329418979E1,-1.901235033E1,5.660103952E1
3.745320375E0,4.652800526E-1,-6.833943117E1,-1.997883661E1,7.120146242E1
3.755266375E0,7.882682584E-1,-6.151818166E1,-4.178094031E0,6.166493745E1
3.765211375E0,7.191051990E-1,-3.746770192E1,2.231855025E0,3.754100393E1
3.775157375E0,1.253927357E0,-2.229695356E1,1.546505510E0,2.238566843E1
3.785103375E0,2.679661697E0,-1.523855267E1,2.084002476E0,1.561208316E1
3.795049375E0,4.163343552E0,-1.116672243E1,2.784659271E0,1.223860477E1
3.804995375E0,4.232518160E0,-7.413011127E0,2.820948261E0,8.990255448E0
3.814940375E0,3.820390321E0,-3.834411651E0,2.341883544E0,5.897670171E0
3.824886375E0,4.583542010E0,-7.514712918E-1,1.731446947E0,4.956962275E0
3.834832375E0,4.400322724E0,1.989432680E0,1.873459589E-1,4.832781908E0
3.844778375E0,4.393988728E0,4.483744950E0,-1.510332295E0,6.456950469E0
3.854724375E0,4.674255714E0,6.816491634E0,-2.669147526E0,8.685480597E0
3.864670375E0,4.513592939E0,8.453310898E0,-2.432989011E0,9.886881302E0
3.874615375E0,3.917381887E0,9.560915630E0,-4.870087445E-1,1.034379843E1
3.884561375E0,3.240961655E0,1.027140496E1,1.437420658E-1,1.077154836E1
3.894507375E0,2.453837258E0,1.065931275E1,-2.246414884E0,1.116640701E1
3.904453375E0,1.957810499E0,1.147056247E1,-5.180392163E0,1.273747574E1
3.914399375E0,1.892041895E0,1.293862290E1,-9.124140315E0,1.594483370E1
3.924344375E0,8.220406797E-1,1.427963269E1,-1.320040392E1,1.946366677E1
3.934290375E0,-2.317778836E0,1.358256624E1,-8.527028500E0,1.620396307E1
3.944236375E0,-3.365280769E0,1.164818451E1,-2.194143115E0,1.232150888E1
3.954182375E0,-2.699933701E0,1.044637119E1,2.065779190E0,1.098561590E1
3.964128375E0,-2.036944231E0,1.006604840E1,5.309033246E0,1.156115506E1
3.974073375E0,-1.641176316E0,9.817835269E0,6.720662202E0,1.201043919E1
3.984019375E0,-1.740049956E0,9.752951056E0,6.696709667E0,1.195799935E1
3.993965375E0,-2.210526721E0,9.653441970E0,5.415350829E0,1.128722264E1
4.003911375E0,-2.352650022E0,9.477295768E0,3.191626650E0,1.027329440E1
4.013857375E0,-1.304024254E0,9.513685915E0,8.386100078E-1,9.639189058E0
4.023803375E0,-6.300981514E-2,9.779552963E0,-9.008373193E-1,9.821157481E0
4.033748375E0,4.267718983E-1,9.541634436E0,-2.214740517E0,9.804590635E0
4.043694375E0,6.369271877E-1,9.385728371E0,-3.484382704E0,1.003187401E1
4.053640375E0,6.075864442E-1,9.489716424E0,-3.967415342E0,1.030360440E1
4.063586375E0,2.687247290E-1,9.489789514E0,-3.207365016E0,1.002075388E1
4.073532375E0,-1.822322034E-1,9.199020343E0,-2.340597156E0,9.493870596E0
4.083477375E0,-2.965212958E-1,8.835859135E0,-1.784698856E0,9.019172996E0
4.093423375E0,-7.116580389E-2,8.444496220E0,-1.494870064E0,8.576084042E0
4.103369375E0,2.710739940E-2,8.144877874E0,-1.484277102E0,8.279060871E0
4.113315375E0,-7.187828712E-2,7.974319271E0,-1.317280769E0,8.082707649E0
4.123261375E0,-5.276240891E-1,8.235788628E0,-7.179294701E-1,8.283841152E0
4.133206375E0,-1.021295005E0,8.787354727E0,1.382559523E-2,8.846515570E0
4.143152375E0,-1.290355949E0,9.456490206E0,8.624628469E-1,9.583009321E0
4.153098375E0,-1.538946229E0,1.007257857E1,1.904194894E0,1.036586479E1
4.163044375E0,-1.593885206E0,1.025199103E1,3.253385819E0,1.087328421E1
4.172990375E0,-1.739409247E0,9.022137977E0,4.572093162E0,1.026297004E1
4.182936375E0,-2.105160334E0,6.945534421E0,4.837322864E0,8.721917273E0
4.192881625E0,-1.620046964E0,4.544174169E0,2.673185321E0,5.515432060E0
4.202827625E0,-6.719509862E-1,5.905184948E-1,-5.864549723E-1,1.069653989E0
4.212773625E0,5.653482049E-1,-6.422243119E0,-4.130145400E0,7.656560997E0
4.222719625E0,1.563544296E0,-1.358932094E1,-3.043284836E0,1.401341846E1
4.232665625E0,3.673878100E0,-2.149056873E1,-3.598233256E-1,2.180530663E1
4.242610625E0,5.900934023E0,-3.884661804E1,-6.564127561E0,3.983677354E1
4.252556625E0,4.593242834E0,-5.423737842E1,-5.509134321E0,5.470961212E1
4.262502625E0,4.613191487E0,-6.774428285E1,-6.261562217E0,6.818927010E1
4.272448625E0,4.283526053E0,-5.516621096E1,-7.431210001E0,5.582904539E1
4.282394625E0,-1.075996804E0,-3.002253345E1,-6.683010811E-1,3.004924142E1
4.292340625E0,-2.763280097E0,-1.830848356E1,5.969817731E0,1.945443422E1
4.302285625E0,-2.154612868E0,-1.189966857E1,7.272016046E0,1.411122554E1
4.312231625E0,-1.733030666E0,-8.591119831E0,6.352776443E0,1.082444011E1
4.322177625E0,-1.159962455E0,-6.862608039E0,4.940069845E0,8.534939489E0
4.332123625E0,-1.525871563E0,-5.503767747E0,3.655127249E0,6.780833182E0
4.342069625E0,-1.758480233E0,-3.991391850E0,2.165474363E0,4.869572964E0
4.352014625E0,-1.806628253E0,-2.124325606E0,1.430195327E-1,2.792332271E0
4.361960625E0,-1.416098567E0,5.379415011E-1,-3.080137789E0,3.432486710E0
4.371906625E0,-6.665610228E-1,3.302363559E0,-5.672718365E0,6.597699775E0
4.381852625E0,-1.929348008E-1,5.699250106E0,-5.361845298E0,7.827391686E0
4.391798625E0,-9.404171951E-2,7.686293614E0,-3.098783391E0,8.287967897E0
4.401744625E0,-4.940180942E-2,9.004164805E0,-7.771148407E-1,9.037772505E0
4.411689625E0,3.260737085E-1,9.637776110E0,-7.414503336E-1,9.671752737E0
4.421635625E0,1.318172908E-1,1.018925508E1,-1.565360441E0,1.030963861E1
4.431581625E0,-1.919610566E-1,1.107045855E1,-2.605139226E0,1.137447370E1
4.441527625E0,1.003458074E0,1.281614712E1,-1.034590901E1,1.650146625E1
4.451473625E0,3.086357765E0,1.376003742E1,-1.752854452E1,2.249697995E1
4.461418625E0,1.539615443E0,1.188334081E1,-1.065176400E1,1.603260056E1
4.471364625E0,-1.254737342E0,1.066664516E1,-5.832175444E0,1.222153653E1
4.481310625E0,-3.025266640E0,1.060113763E1,-1.901163697E0,1.118708098E1
4.491256625E0,-3.396907189E0,1.118524173E1,2.312116538E0,1.191614426E1
4.501202625E0,-3.104749305E0,1.129376489E1,5.795244430E0,1.306803166E1
4.511147625E0,-3.007243183E0,1.120282080E1,7.466983266E0,1.379501883E1
4.521093625E0,-2.551725788E0,1.080076976E1,6.894771234E0,1.306544306E1
4.531039625E0,-2.136461210E0,1.036842313E1,5.236745288E0,1.181068016E1
4.540985625E0,-1.812993532E0,1.001934435E1,3.418366470E0,1.074055102E1
4.550931625E0,-1.124199861E0,9.620724460E0,1.736076919E0,9.840534921E0
4.560876625E0,2.890897406E-1,9.531825147E0,7.550110500E-1,9.566049613E0
4.570822625E0,1.170250923E0,9.546713328E0,3.307829098E-1,9.623857850E0
4.580768625E0,1.536688181E0,9.447165651E0,2.370101622E-1,9.574263586E0
4.590714625E0,1.589229214E0,9.312505444E0,4.497010235E-1,9.457834749E0
4.600660625E0,1.692991856E0,9.251832980E0,6.464716709E-1,9.427648728E0
4.610606625E0,1.917673895E0,9.230187172E0,5.924984352E-1,9.445892377E0
4.620551625E0,2.329992207E0,9.238735802E0,2.491149218E-1,9.531272798E0
4.630497625E0,2.917560636E0,9.329105104E0,-1.996987867E-1,9.776719374E0
4.640443625E0,3.322879100E0,9.403933092E0,-6.113531475E-1,9.992458946E0
4.650389625E0,3.489750156E0,9.575362930E0,-7.073574118E-1,1.021598189E1
4.660335625E0,3.067429158E0,9.762643985E0,-3.929233901E-1,1.024073865E1
4.670280625E0,2.088780967E0,9.894344916E0,4.979874766E-1,1.012467574E1
4.680226625E0,1.099125100E0,9.820056041E0,1.138456250E0,9.946741138E0
4.690172625E0,4.830801465E-2,9.116331359E0,-9.030659124E-2,9.116906624E0
4.700118625E0,-1.662303476E0,7.312788096E0,-5.473677975E0,9.284464075E0
4.710064625E0,-4.547682206E0,3.907997106E0,-1.401809376E1,1.524666545E1
4.720009625E0,-2.194741578E0,3.019426149E-1,-5.741261766E0,6.153872488E0
4.729955625E0,1.095462989E0,-3.996694690E0,2.520456633E0,4.850392689E0
4.739901625E0,2.636497843E0,-9.240419215E0,4.822232370E0,1.075129728E1
4.749847625E0,4.326565946E0,-1.963404735E1,6.850061084E0,2.124001707E1
4.759793625E0,4.533717301E0,-4.049460198E1,5.982614948E0,4.118445172E1
4.769739625E0,4.237071094E0,-6.415124835E1,-1.820650344E1,6.681925025E1
4.779684625E0,6.649657708E0,-7.915404831E1,-2.734004140E1,8.400630438E1
4.789630625E0,5.198088176E0,-5.681976613E1,4.143765028E0,5.720731362E1
4.799576625E0,9.657974001E-1,-2.787960141E1,8.075055102E0,2.904154704E1
4.809522625E0,-1.243699553E0,-1.692968204E1,5.718916047E0,1.791275868E1
4.819468625E0,-1.373659768E0,-1.054167613E1,5.560571108E0,1.199724251E1
4.829414625E0,-6.729076637E-1,-6.825388758E0,4.336220284E0,8.114280175E0
4.839359625E0,-5.255427727E-1,-4.028125228E0,3.086612996E0,5.101878855E0
4.849305625E0,-5.661198912E-1,-1.791744751E0,2.028686793E0,2.765214474E0
4.859251625E0,-7.004607671E-1,4.025562394E-1,-4.425769222E-1,9.211792140E-1
4.869197625E0,-5.401856991E-1,3.221304193E0,-6.145977382E0,6.960002821E0
4.879143625E0,2.639997950E-1,5.914481437E0,-1.068253088E1,1.221340462E1
4.889088625E0,2.544844200E-1,6.520363491E0,-7.242470065E0,9.748501168E0
4.899034625E0,3.451668410E-1,6.391755152E0,-2.790535723E0,6.982890783E0
4.908980625E0,5.063268486E-3,6.805431626E0,-6.708627462E-1,6.838419560E0
4.918926625E0,-3.776308747E-1,8.051366277E0,-2.238127626E0,8.365184952E0
4.928872625E0,-4.545618870E-1,1.044267341E1,-7.274503452E0,1.273477346E1
4.938817625E0,3.383006018E-1,1.310152048E1,-1.457725831E1,1.960256988E1
4.948763625E0,-4.737955355E-1,1.306789315E1,-8.919891225E0,1.582904839E1
4.958709625E0,-1.920428811E0,1.203085904E1,1.408789548E0,1.226435095E1
4.968655625E0,-1.922573570E0,1.183697941E1,5.774054121E0,1.330977354E1
4.978601625E0,-1.410300176E0,1.187341107E1,7.941498849E0,1.435389288E1
4.988547625E0,-9.068473799E-1,1.168544881E1,8.044684664E0,1.421580239E1
4.998492625E0,-1.427559695E-1,1.168551781E1,6.744203092E0,1.349281220E1
5.008438625E0,9.307848575E-1,1.155508748E1,5.388346049E0,1.278360983E1
5.018384625E0,1.574188275E0,1.102321071E1,3.894632710E0,1.179649978E1
5.028330625E0,1.959238974E0,1.011080299E1,2.299456147E0,1.055246194E1
5.038276625E0,2.883162343E0,9.174665521E0,-1.028525233E-1,9.617571999E0
5.048221625E0,4.004821443E0,9.031369561E0,-3.251959391E0,1.040093605E1
5.058167625E0,4.056912825E0,9.325873933E0,-5.098021851E0,1.137630402E1
5.068113625E0,3.769121349E0,9.293976202E0,-5.754920862E0,1.156301792E1
5.078059625E0,3.078611958E0,9.192130569E0,-5.861743060E0,1.132842212E1
5.088005625E0,1.805036495E0,9.054536229E0,-4.975817968E0,1.048816226E1
5.097950625E0,2.284018730E-1,8.919339248E0,-3.669105603E0,9.647233591E0
5.107896625E0,-6.751820844E-1,8.826691870E0,-2.886427721E0,9.311166694E0
5.117842625E0,-8.847788917E-1,8.841751374E0,-2.284227659E0,9.174807739E0
5.127788625E0,-8.625480701E-1,8.757478963E0,-1.950500018E0,9.013427610E0
5.137734625E0,-1.565230194E-1,8.682341657E0,-1.475384949E0,8.808196005E0
5.147680625E0,7.557207558E-1,8.630593799E0,-9.651953562E-1,8.717216600E0
5.157625625E0,1.328986456E0,8.597961073E0,-3.233383079E-1,8.706071862E0
5.167571625E0,1.279991028E0,8.740680497E0,5.144321859E-1,8.848870722E0
5.177517625E0,1.304907037E0,9.100852609E0,1.434827491E0,9.305215232E0
5.187463625E0,1.000185533E0,8.698969969E0,2.553440484E0,9.120992705E0
5.197408958E0,-1.206859463E-1,7.335762391E0,3.884195430E0,8.301502822E0
5.207353958E0,-1.263035857E0,5.893825563E0,4.393177719E0,7.458716365E0
5.217299958E0,-1.191299730E0,3.716916531E0,3.524328251E0,5.258854739E0
5.227245958E0,-6.746669447E-1,1.086554756E0,2.426831893E0,2.743226159E0
5.237191958E0,-1.747005511E-1,-6.301198738E0,-6.158418503E0,8.812590100E0
5.247137958E0,-2.477619054E0,-1.686812841E1,-1.359052897E1,2.180309221E1
5.257083958E0,-1.482724666E0,-1.583678481E1,-1.707384047E-1,1.590696003E1
5.267028958E0,-1.502366048E-1,-2.637241609E1,3.578370849E0,2.661450055E1
5.276974958E0,-5.202405906E-1,-5.017364774E1,4.443921610E0,5.037275074E1
5.286920958E0,-3.912400352E0,-6.209236888E1,-9.001834105E0,6.286336108E1
5.296866958E0,-5.318292897E0,-5.948519365E1,-8.297321802E0,6.029608654E1
5.306812958E0,-5.126569712E0,-4.119467741E1,7.515633270E0,4.218729557E1
5.316757958E0,-3.071755513E0,-2.480377185E1,8.429431454E0,2.637646858E1
5.326703958E0,-5.093822746E-1,-1.715119679E1,6.832895998E0,1.846920381E1
5.336649958E0,1.350400129E0,-1.251594873E1,5.400197185E0,1.369798098E1
5.346595958E0,3.245654046E0,-9.892584904E0,3.649429722E0,1.103249036E1
5.356541958E0,4.813006926E0,-7.646966411E0,2.157117376E0,9.289471800E0
5.366487958E0,6.212512264E0,-5.379298652E0,-9.753155708E-2,8.218374232E0
5.376432958E0,7.999307347E0,-2.812809522E0,-3.770599233E0,9.279991057E0
5.386378958E0,9.564062601E0,5.408838201E-1,-6.674473876E0,1.167529230E1
5.396324958E0,8.631705354E0,3.779812106E0,-5.914993653E0,1.112566703E1
5.406270958E0,5.850083712E0,6.671834443E0,-3.425608247E0,9.511658432E0
5.416216958E0,4.387272908E0,8.873875392E0,-1.348652689E0,9.990630216E0
5.426161958E0,3.918765923E0,1.087467740E1,-4.069336404E0,1.225458419E1
5.436107958E0,1.633967577E0,1.608257136E1,-2.631715990E1,3.088546352E1
5.446053958E0,-8.080850570E-1,1.693588243E1,-3.000883225E1,3.446747928E1
5.455999958E0,-6.353328712E-1,1.371296382E1,-1.091539039E1,1.753837997E1
5.465945958E0,-7.407040096E-1,1.183737234E1,1.311981876E0,1.193286733E1
5.475891958E0,4.425175729E-1,1.072182884E1,6.381100355E0,1.248486593E1
5.485836958E0,1.135308693E0,9.485068472E0,7.360077453E0,1.205927816E1
5.495782958E0,1.739900413E0,8.425519667E0,7.890714612E0,1.167390304E1
5.505728958E0,2.388797217E0,8.384911339E0,8.483274955E0,1.216466375E1
5.515674958E0,2.571447569E0,8.843889701E0,9.032555376E0,1.290014668E1
5.525620958E0,2.495636664E0,9.448401752E0,8.814256597E0,1.316022862E1
5.535565958E0,2.497533501E0,9.901043487E0,7.521565855E0,1.268236132E1
5.545511958E0,2.181223108E0,9.981057955E0,5.849332345E0,1.177259279E1
5.555457958E0,1.547077952E0,9.854838789E0,4.070214071E0,1.077394730E1
5.565403958E0,1.082754796E0,9.926262528E0,2.498526943E0,1.029299192E1
5.575349958E0,9.017621295E-1,1.032842700E1,7.776516151E-1,1.039684189E1
5.585294958E0,7.437599107E-1,1.093932655E1,-1.244993834E0,1.103503756E1
5.595240958E0,3.220959207E-1,1.119422773E1,-2.788363482E0,1.154077342E1
5.605186958E0,-1.479685064E-1,1.091290299E1,-3.639859584E0,1.150486523E1
5.615132958E0,-5.376927752E-1,1.017275424E1,-3.887785621E0,1.090361956E1
5.625078958E0,-9.280164202E-1,9.256054085E0,-3.916529363E0,1.009331234E1
5.635024958E0,-1.454236739E0,8.334214810E0,-3.854302125E0,9.296751360E0
5.644969958E0,-2.031665365E0,7.396848253E0,-4.284592293E0,8.786282453E0
5.654915958E0,-2.100464581E0,6.642292555E0,-5.658532435E0,8.975020399E0
5.664861958E0,-1.282678555E0,6.540466803E0,-7.080862380E0,9.724277985E0
5.674807958E0,-1.979400356E-1,7.031128303E0,-7.838985465E0,1.053212412E1
5.684753958E0,1.154534485E0,7.857615863E0,-7.740390884E0,1.109002831E1
5.694698958E0,2.253652276E0,8.517846617E0,-6.270791463E0,1.081459593E1
5.704644958E0,2.918606410E0,9.512743928E0,-3.990516522E0,1.072076408E1
5.714590958E0,3.407247113E0,1.041905651E1,-1.825126505E0,1.111292752E1
5.724536958E0,3.747163300E0,1.086970726E1,8.210144202E-1,1.152674427E1
5.734482958E0,2.647443831E0,1.043357982E1,4.649468490E0,1.172544686E1
5.744428958E0,4.809505174E-1,8.896289524E0,5.623634498E0,1.053567965E1
5.754373958E0,5.240161012E-1,6.424651002E0,3.080607028E0,7.144289540E0
5.764319958E0,-8.346425258E-3,1.836898119E0,-2.058665321E0,2.759051879E0
5.774265958E0,-1.682247305E0,-7.722868533E0,-7.562734931E0,1.093926935E1
5.784211958E0,-3.161147673E-1,-1.546883474E1,-6.827546965E0,1.691153968E1
5.794157958E0,1.159662420E0,-1.553921884E1,-9.505385792E-1,1.561139528E1
5.804102958E0,2.465601856E0,-3.208775364E1,5.045942456E0,3.257552243E1
5.814048958E0,2.951907473E0,-6.699924934E1,6.510125016E0,6.737948425E1
5.823994958E0,1.218413123E0,-7.723929101E1,-1.004070423E1,7.789870568E1
5.833940958E0,2.853139522E0,-6.329724146E1,-5.563906360E0,6.360533182E1
5.843886958E0,9.175187677E-1,-3.480838824E1,8.896977156E0,3.593914210E1
5.853832958E0,-8.337264132E-1,-1.948738047E1,1.007314575E1,2.195270741E1
5.863777958E0,-4.031288645E-1,-1.168598325E1,7.669339027E0,1.398368615E1
5.873723958E0,-1.013656129E-1,-6.823577290E0,3.760343217E0,7.791768935E0
5.883669958E0,-3.364319048E-1,-3.320517409E0,-7.018822984E-1,3.410522109E0
5.893615958E0,-8.126685432E-1,-7.317264140E-2,-5.828551340E0,5.885388273E0
5.903561958E0,-3.452334993E-1,2.549179618E0,-9.150727605E0,9.505436265E0
5.913506958E0,1.576543972E0,3.010551830E0,-9.269317909E0,9.872647452E0
5.923452958E0,2.552008208E0,1.953717887E0,-6.725987846E0,7.454439749E0
5.933398958E0,2.392435939E0,1.993728629E0,-4.258955176E0,5.276116257E0
5.943344958E0,1.879877493E0,3.076690271E0,-3.191241903E0,4.814975317E0
5.953290958E0,1.359590929E0,4.578330095E0,-2.231997405E0,5.271755530E0
5.963236958E0,1.226633577E0,6.441958761E0,-1.953086972E0,6.842368839E0
5.973181958E0,1.625116646E0,8.540423886E0,-4.620620667E0,9.845302414E0
5.983127958E0,3.014249901E0,1.206932086E1,-1.461505588E1,1.919255238E1
5.993073958E0,3.818482959E0,1.400660748E1,-2.055053993E1,2.516129084E1
6.003019958E0,1.736656378E0,1.291834944E1,-1.057192845E1,1.678289006E1
6.012965958E0,-7.141390125E-1,1.197324877E1,1.569447645E0,1.209677008E1
6.022910958E0,-1.950344482E0,1.112005697E1,9.253432778E0,1.459744940E1
6.032856958E0,-2.036134245E0,1.092063417E1,1.215163562E1,1.646415323E1
6.042802958E0,-1.672979907E0,1.162694040E1,1.248838379E1,1.714480488E1
6.052748958E0,-2.164339272E0,1.208802376E1,1.182676549E1,1.704925409E1
6.062694958E0,-3.175981840E0,1.175979967E1,8.853016620E0,1.505840802E1
6.072640958E0,-2.314289510E0,1.118129603E1,5.719639932E0,1.277073208E1
6.082585958E0,-1.180875607E0,1.035520608E1,3.496067780E0,1.099305463E1
6.092531958E0,-8.830399297E-1,9.712125796E0,2.184083565E0,9.993766458E0
6.102477958E0,-6.544583096E-1,9.224431758E0,1.460820411E0,9.362288887E0
6.112423958E0,-4.798776264E-1,8.878239169E0,4.327992082E-1,8.901726149E0
6.122369958E0,-4.377072148E-1,9.064984619E0,-3.076768624E0,9.582903470E0
6.132314958E0,2.212836554E-1,9.645735925E0,-5.653546515E0,1.118265515E1
6.142260958E0,1.355024400E0,9.541339152E0,-6.871045572E0,1.183573028E1
6.152206958E0,2.005578450E0,8.947852026E0,-6.890866463E0,1.147041592E1
6.162152958E0,2.092223515E0,8.396108757E0,-5.849097286E0,1.044432767E1
6.172098958E0,1.819248591E0,8.272576970E0,-4.526510900E0,9.603879221E0
6.182044958E0,1.380292704E0,8.444519609E0,-3.528373647E0,9.255514031E0
6.191989958E0,1.070879394E0,8.556130092E0,-2.600737442E0,9.006552063E0
6.201935958E0,1.210025950E0,8.893731952E0,-1.690842859E0,9.133541504E0
6.211881958E0,1.510512974E0,9.380462369E0,-1.122528507E0,9.567381771E0
6.221827958E0,1.800277593E0,1.002039101E1,-7.897002415E-1,1.021140841E1
6.231773958E0,1.767220066E0,1.058853805E1,-3.474345374E-1,1.074061989E1
6.241718958E0,1.105562373E0,1.065619034E1,1.173841406E0,1.077750269E1
6.251664958E0,-1.011586946E0,9.469929446E0,4.508976270E0,1.053725481E1
6.261610958E0,-2.167250309E0,7.005824477E0,4.236986894E0,8.469392448E0
6.271556958E0,-2.116451746E0,4.274149750E0,9.724153519E-2,4.770448616E0
6.281502958E0,-2.796720031E0,-1.251663169E0,-8.033587818E0,8.598071694E0
6.291447958E0,-3.087224030E0,-8.606699152E0,-1.041657846E1,1.386042313E1
6.301393958E0,-1.879382673E0,-1.044131686E1,3.686178303E-1,1.061551016E1
6.311339958E0,2.940224882E-1,-1.635752030E1,5.332768264E0,1.720736287E1
6.321285958E0,3.011858390E0,-3.754239893E1,4.425370442E0,3.792211640E1
6.331231958E0,2.956507185E0,-5.816338612E1,-8.917858733E0,5.891730326E1
6.341177958E0,1.447269197E0,-6.951553077E1,-1.569550088E1,7.128009789E1
6.351122958E0,1.598712959E0,-5.783972168E1,6.315159550E-1,5.786525814E1
6.361068958E0,-4.818655336E-1,-3.256346673E1,6.398052603E0,3.318955615E1
6.371014958E0,-9.238912095E-1,-1.954676245E1,6.413424933E0,2.059275399E1
6.380960958E0,-3.770238606E-1,-1.251742925E1,5.692365010E0,1.375613323E1
6.390906958E0,-3.347790431E-2,-8.018223674E0,4.415448886E0,9.153645204E0
6.400852958E0,5.587606587E-1,-5.584206138E0,2.734249256E0,6.242731026E0
6.410797958E0,6.518145642E-1,-3.814646308E0,-1.276015945E-1,3.872037042E0
6.420743958E0,9.254074656E-1,-1.947233325E0,-3.763059833E0,4.336901648E0
6.430689958E0,1.937987123E0,-3.677337313E-1,-6.431903304E0,6.727585176E0
6.440635958E0,3.369817039E0,8.351852936E-1,-6.753324748E0,7.593457480E0
6.450581958E0,4.155149264E0,1.957985770E0,-4.992964343E0,6.784442984E0
6.460526958E0,3.695814807E0,3.513592470E0,-3.279852363E0,6.063151875E0
6.470472958E0,2.962107064E0,5.482093872E0,-1.726050698E0,6.465808727E0
6.480418958E0,2.240426605E0,7.470963466E0,-6.253597140E-3,7.799669582E0
6.490364958E0,2.283638552E0,9.314875320E0,-3.285901308E-2,9.590776141E0
6.500310958E0,1.625724318E0,1.136155633E1,-2.009291579E0,1.165183224E1
6.510256958E0,2.627946583E0,1.410707902E1,-1.248555490E1,1.902116881E1
6.520201958E0,3.291970426E0,1.554915677E1,-2.157911194E1,2.680058615E1
6.530147958E0,8.351784231E-1,1.362636305E1,-1.272350852E1,1.866180489E1
6.540093958E0,-1.519419014E0,1.203552044E1,-1.853018893E0,1.227175886E1
6.550039958E0,-1.733493911E0,1.114792948E1,6.650209100E0,1.309605337E1
6.559985958E0,-1.392575511E0,1.072921972E1,1.032728446E1,1.495687891E1
6.569930958E0,-1.403159410E0,1.027330530E1,1.042061187E1,1.470029965E1
6.579876958E0,-1.108182583E0,1.018566022E1,9.681846575E0,1.409659164E1
6.589822958E0,-6.977831809E-1,1.021474427E1,8.576746205E0,1.335621493E1
6.599768958E0,-7.074000965E-1,9.877391499E0,6.784379311E0,1.200379441E1
6.609714958E0,-8.017610740E-1,9.164477332E0,4.648440549E0,1.030720453E1
6.619660958E0,-7.581597025E-1,8.494960030E0,3.089459420E0,9.071047986E0
6.629605958E0,-6.997768622E-1,8.089825169E0,1.980541989E0,8.358080251E0
6.639551958E0,-4.364678609E-1,8.070884283E0,4.549776606E-1,8.095472931E0
6.649497958E0,5.554304501E-1,8.644190914E0,-2.128885850E0,8.919792290E0
6.659443958E0,1.386800070E0,9.470424120E0,-4.321051437E0,1.050160145E1
6.669389958E0,2.185755138E0,9.705476342E0,-6.799801927E0,1.205035696E1
6.679334958E0,2.652885250E0,9.671307553E0,-8.271514531E0,1.299961317E1
6.689280958E0,2.649285412E0,9.416444964E0,-7.753766974E0,1.248234959E1
6.699226958E0,2.240679350E0,9.212090625E0,-6.667965925E0,1.159073023E1
6.709172958E0,1.872592155E0,9.042972191E0,-5.824321464E0,1.091808902E1
6.719118958E0,2.002185604E0,9.009757082E0,-5.378951912E0,1.068258366E1
6.729063958E0,2.032509118E0,9.174143364E0,-4.534785880E0,1.043361312E1
6.739009958E0,2.002158999E0,9.718288761E0,-1.871031826E0,1.009725394E1
6.748955958E0,2.102358640E0,1.039240724E1,1.622394329E0,1.072633224E1
6.758901958E0,1.330016443E0,1.117392620E1,4.532211936E0,1.213122069E1
6.768847958E0,-7.959608553E-1,1.117263397E1,7.337145842E0,1.339010876E1
6.778793958E0,-1.996057137E0,9.755641944E0,7.198094376E0,1.228695880E1
6.788738958E0,-1.877058843E0,7.196912069E0,3.582107220E0,8.255324668E0
6.798684958E0,-1.482116848E0,4.296384373E0,-1.519335837E0,4.792073707E0
6.808630958E0,-2.498697681E0,-3.599077009E0,-1.686004872E1,1.742004846E1
6.818576958E0,-3.568044666E0,-1.705417161E1,-2.077446490E1,2.711372538E1
6.828522958E0,-2.479208619E0,-2.245442609E1,-4.918386616E0,2.312008334E1
6.838468958E0,-1.975032450E0,-1.995210548E1,1.769499750E0,2.012755314E1
6.848413958E0,-2.145270917E0,-3.734336205E1,4.267606424E0,3.764759409E1
6.858359958E0,-1.490654660E0,-6.483985389E1,3.465947603E0,6.494953038E1
6.868305958E0,1.435520094E0,-6.623792315E1,-1.335114046E1,6.758532484E1
6.878251958E0,2.755812618E0,-4.852539717E1,-5.674772492E0,4.893374823E1
6.888197958E0,7.220621359E-1,-2.950303406E1,8.037235311E0,3.058672170E1
6.898142958E0,1.951386894E0,-1.881111022E1,8.733969648E0,2.083141868E1
6.908088958E0,3.526473009E0,-1.251898811E1,8.239168904E0,1.539626512E1
6.918034958E0,3.938262879E0,-8.508957095E0,7.031836985E0,1.172002546E1
6.927980958E0,3.500548794E0,-6.006314882E0,4.827443701E0,8.463679638E0
6.937926958E0,3.225151661E0,-3.907015944E0,3.209581110E0,5.997315043E0
6.947872958E0,3.599765519E0,-1.831794670E0,2.802372826E0,4.916002132E0
6.957817958E0,3.772009581E0,2.296599197E-1,2.213847063E0,4.379716746E0
6.967763958E0,3.704656966E0,2.286884049E0,1.063566427E0,4.481684441E0
6.977709958E0,3.604034863E0,4.350210916E0,-5.218265748E-1,5.673244688E0
6.987655958E0,3.094828334E0,6.387313607E0,-1.646064881E0,7.285963706E0
6.997601958E0,2.549169970E0,8.192883514E0,-2.734153361E0,9.005398515E0
7.007546958E0,2.689700489E0,1.020340652E1,-5.316110716E0,1.181545710E1
7.017492958E0,2.400966003E0,1.450329454E1,-2.088859554E1,2.554297582E1
7.027438958E0,1.927915440E0,1.698260169E1,-3.475856295E1,3.873349088E1
7.037384958E0,1.451047375E0,1.301647273E1,-1.704435998E1,2.149521593E1
7.047330958E0,5.703374147E-1,1.004859680E1,-3.907179081E0,1.079655644E1
7.057276958E0,-4.516935719E-1,8.673713506E0,3.108994383E0,9.225138435E0
7.067221958E0,-1.776336972E-1,8.143464602E0,4.323889090E0,9.221907954E0
7.077167958E0,5.169933760E-1,8.212189851E0,4.100223151E0,9.193431035E0
7.087113958E0,1.586884919E0,8.247681280E0,5.284350979E0,9.923044670E0
7.097059958E0,3.002793452E0,8.884189296E0,6.643550291E0,1.149270849E1
7.107005958E0,3.893622019E0,9.479142904E0,6.929921186E0,1.237086296E1
7.116950958E0,3.345546124E0,9.500879928E0,6.144700935E0,1.179901470E1
7.126896958E0,2.471517192E0,9.296563595E0,4.002567633E0,1.041897498E1
7.136842958E0,1.718034312E0,9.481060790E0,1.350033216E0,9.729580941E0
7.146788958E0,1.184444528E0,9.880998062E0,-5.907851279E-1,9.969255670E0
7.156734958E0,1.018196785E0,1.027995476E1,-1.710542128E0,1.047091920E1
7.166680958E0,1.040500477E0,1.053981321E1,-2.318202320E0,1.084178794E1
7.176625958E0,1.183101276E0,1.069145139E1,-2.484514675E0,1.103991280E1
7.186571958E0,1.270169899E0,1.075419669E1,-2.128309314E0,1.103611247E1
7.196518000E0,1.065263728E0,1.059010978E1,-1.223662022E0,1.071366234E1
7.206464000E0,8.207469101E-1,1.017423710E1,-3.240503526E-1,1.021243040E1
7.216410000E0,8.329986542E-1,9.769846585E0,1.940246487E-1,9.807213398E0
7.226355000E0,1.028098094E0,9.375008086E0,2.858095257E-1,9.435541817E0
7.236301000E0,1.369890068E0,8.966033943E0,2.439918838E-2,9.070113493E0
7.246247000E0,1.641852985E0,8.675488721E0,-4.493574265E-1,8.840911031E0
7.256193000E0,1.840901123E0,8.608476121E0,-9.375190958E-1,8.852893319E0
7.266139000E0,1.819144511E0,8.782530774E0,-1.411202109E0,9.079296500E0
7.276085000E0,1.630906121E0,9.417688082E0,-1.477287340E0,9.671353653E0
7.286030000E0,1.139866890E0,1.000667695E1,-1.074422368E0,1.012853708E1
7.295976000E0,-4.597314835E-2,9.552016752E0,-5.288875262E-1,9.566758050E0
7.305922000E0,-1.565389385E0,7.702828370E0,-1.022907228E0,7.926559659E0
7.315868000E0,-2.974509885E0,5.171305005E0,-3.668893933E0,7.003633857E0
7.325814000E0,-3.315515116E0,1.878325642E0,-5.106941779E0,6.371938640E0
7.335760000E0,-2.358156930E0,-1.934026803E0,-1.798231652E0,3.540480314E0
7.345705000E0,-2.361360034E0,-8.516476614E0,-1.787889097E0,9.016814435E0
7.355651000E0,-1.565825733E0,-1.291520012E1,7.190579827E-1,1.302962965E1
7.365597000E0,-5.169161196E-1,-1.960689639E1,3.853113971E0,1.998859864E1
7.375543000E0,-7.069923263E-1,-3.924080925E1,7.690574945E0,3.999357313E1
7.385489000E0,-1.435051732E0,-6.089654311E1,1.739090428E0,6.093827018E1
7.395434000E0,2.190519742E0,-7.277381451E1,-1.864567729E1,7.515642179E1
7.405380000E0,7.447141909E0,-5.758398786E1,-1.260547545E1,5.941610549E1
7.415326000E0,2.836041386E0,-3.150496166E1,4.986418970E0,3.202296229E1
7.425272000E0,-2.148009022E-1,-1.998824361E1,6.352184705E0,2.097441948E1
7.435218000E0,3.832957303E-1,-1.269541849E1,5.834800844E0,1.397731974E1
7.445164000E0,3.082231823E-1,-8.245335962E0,4.369743540E0,9.336767389E0
7.455109000E0,1.819246033E-1,-4.933657204E0,2.573713950E0,5.567591352E0
7.465055000E0,1.394283008E-1,-1.911854162E0,5.281661991E-1,1.988362673E0
7.475001000E0,-7.697018869E-2,1.061720461E0,-2.011539248E0,2.275843776E0
7.484947000E0,-1.644290397E-1,3.563147038E0,-4.437225087E0,5.693155557E0
7.494893000E0,5.102161607E-2,5.498915727E0,-5.166999700E0,7.545764592E0
7.504838000E0,3.350162208E-3,6.918616764E0,-3.618365804E0,7.807678288E0
7.514784000E0,1.747034016E-1,8.171391488E0,-1.523048819E0,8.313954404E0
7.524730000E0,3.646623716E-1,9.584537796E0,1.084017649E0,9.652535298E0
7.534676000E0,7.841055525E-1,1.151055274E1,3.926556169E0,1.218710340E1
7.544622000E0,1.977196212E0,1.290910850E1,1.504664004E0,1.314604126E1
7.554568000E0,3.148970627E0,1.420853523E1,-6.122352877E0,1.578865714E1
7.564513000E0,4.694509007E0,1.584471715E1,-1.497174539E1,2.229902770E1
7.574459000E0,4.631535372E0,1.496610283E1,-1.219738658E1,1.985476248E1
7.584405000E0,2.694456030E0,1.269497878E1,-4.198979115E0,1.364016148E1
7.594351000E0,7.598643851E-1,1.116370995E1,1.038219917E0,1.123760269E1
7.604297000E0,3.797244702E-1,1.007460873E1,3.655824237E0,1.072413085E1
7.614242000E0,1.221487443E0,9.361617377E0,4.462095634E0,1.044232775E1
7.624188000E0,1.669010525E0,8.882666681E0,4.826324544E0,1.024601250E1
7.634134000E0,1.666981541E0,8.975818089E0,4.957691599E0,1.038859200E1
7.644080000E0,1.408407140E0,9.213726091E0,4.731107315E0,1.045273819E1
7.654026000E0,1.100355939E0,9.135307328E0,4.132380499E0,1.008668388E1
7.663972000E0,1.166883950E0,8.775128199E0,3.264146158E0,9.434995665E0
7.673917000E0,1.595782042E0,8.435940574E0,2.174991145E0,8.856760140E0
7.683863000E0,1.720265463E0,8.679420973E0,9.965259071E-1,8.904197076E0
7.693809000E0,1.567822411E0,9.140882063E0,-2.172941915E-1,9.276907285E0
7.703755000E0,1.533923032E0,9.654864598E0,-1.495961008E0,9.889753769E0
7.713701000E0,1.584008674E0,9.930341545E0,-3.011043581E0,1.049700672E1
7.723647000E0,1.554073415E0,1.010558377E1,-5.440638868E0,1.158181846E1
7.733592000E0,1.211222510E0,9.980864997E0,-7.059411285E0,1.228495070E1
7.743538000E0,7.166950498E-1,9.517759085E0,-6.582250421E0,1.159428352E1
7.753484000E0,3.444336367E-1,9.175499918E0,-4.700129936E0,1.031502083E1
7.763430000E0,1.335350748E-1,8.873898781E0,-2.634658309E0,9.257717624E0
7.773376000E0,2.350847837E-1,8.655112343E0,-9.356011359E-1,8.708707368E0
7.783321000E0,5.362086057E-1,8.948093516E0,7.368193388E-1,8.994376019E0
7.793267000E0,9.459436910E-1,9.494188374E0,1.756595676E0,9.701548883E0
7.803213000E0,1.055267401E0,9.549525838E0,2.224961742E0,9.861921100E0
7.813159000E0,6.082144352E-1,8.885333011E0,3.008171428E0,9.400434185E0
7.823105000E0,3.251550012E-1,7.371028118E0,2.104185749E0,7.672377660E0
7.833050000E0,4.769282909E-1,4.015928521E0,-3.735208375E0,5.505172485E0
7.842996000E0,-3.612693786E-1,-1.535283533E0,-8.282433622E0,8.431270236E0
7.852942000E0,-9.889642878E-1,-7.759518296E0,-5.735599322E0,9.699756395E0
7.862888000E0,2.523490168E-2,-1.305678110E1,-9.518331528E-1,1.309145354E1
7.872834000E0,1.982730455E0,-1.864402720E1,-2.041835719E0,1.886001229E1
7.882780000E0,2.583041428E0,-3.158880137E1,-3.524225632E0,3.188956948E1
7.892725000E0,1.387381137E0,-5.278373722E1,1.342704609E0,5.281903631E1
7.902671000E0,-4.903673851E-1,-6.365552141E1,3.042026807E0,6.373005408E1
7.912617000E0,7.619821735E-1,-5.406219584E1,-2.552561063E0,5.412778587E1
7.922563000E0,-1.901892553E0,-3.229722430E1,-5.227904298E0,3.277283747E1
7.932509000E0,-3.888359525E0,-2.032345279E1,1.684409460E0,2.076052283E1
7.942455000E0,-2.707696757E0,-1.385057687E1,7.067023190E0,1.578331138E1
7.952400000E0,-2.245821830E0,-1.006062219E1,7.276309072E0,1.261762688E1
7.962346000E0,-1.717512594E0,-8.206824446E0,5.140748041E0,9.835095699E0
7.972292000E0,-8.832328147E-1,-6.231036243E0,3.114452759E0,7.021803818E0
7.982238000E0,-5.383660090E-1,-4.275295805E0,4.878554213E-1,4.336587955E0
7.992184000E0,-6.585369618E-1,-2.243222889E0,-3.627825429E0,4.315881973E0
8.002129000E0,3.045533236E-1,-1.741727668E-1,-6.574630330E0,6.583984572E0
8.012075000E0,1.953956746E0,1.692551415E0,-5.882757368E0,6.425691520E0
8.022021000E0,2.466460227E0,3.055488852E0,-4.599290024E0,6.047553795E0
8.031967000E0,2.050880777E0,4.840481822E0,-2.702811116E0,5.911138990E0
8.041913000E0,1.827656595E0,7.245688958E0,-7.505626345E-1,7.510238436E0
8.051859000E0,2.269620583E0,9.518440286E0,2.946406120E-1,9.789724008E0
8.061804000E0,2.979308403E0,1.003711638E1,-3.932714091E-1,1.047733965E1
8.071750000E0,2.349799797E0,1.025128703E1,-1.187313391E0,1.058395757E1
8.081696000E0,3.224945254E0,1.147507652E1,-7.424716668E0,1.404293668E1
8.091642000E0,8.203792080E0,1.390138333E1,-2.633426652E1,3.088760684E1
8.101588000E0,5.779929988E0,1.193758660E1,-1.314379234E1,1.867278345E1
8.111533000E0,2.032802063E0,1.128518819E1,-1.137734849E0,1.152311578E1
8.121479000E0,4.222263459E-1,1.196944223E1,3.968329847E0,1.261718923E1
8.131425000E0,6.318833794E-1,1.150810159E1,6.357140805E0,1.316240548E1
8.141371000E0,1.157259287E0,1.104444780E1,7.186646698E0,1.322750796E1
8.151317000E0,1.227691046E0,1.093882135E1,7.274138585E0,1.319386714E1
8.161263000E0,6.814225984E-1,1.055099542E1,6.806275964E0,1.257430847E1
8.171208000E0,-2.840965473E-1,9.917508076E0,6.149198613E0,1.167263127E1
8.181154000E0,-9.991651209E-1,9.294051631E0,5.402983968E0,1.079675703E1
8.191100000E0,-1.285912357E0,8.809032694E0,4.601435952E0,1.002126940E1
8.201046833E0,-1.526698359E0,8.342617258E0,3.696723171E0,9.251801598E0
8.210992833E0,-1.502448932E0,7.834632213E0,2.292603210E0,8.300291813E0
8.220937833E0,-7.688259740E-1,8.257972380E0,1.722713985E-2,8.293702308E0
8.230883833E0,4.523914006E-2,8.930852416E0,-1.689115591E0,9.089294963E0
8.240829833E0,7.248473109E-1,9.208636674E0,-3.140948832E0,9.756533841E0
8.250775833E0,1.697848700E0,9.405466817E0,-5.830042380E0,1.119530662E1
8.260721833E0,2.499266908E0,9.640892091E0,-7.464352019E0,1.244627199E1
8.270667833E0,2.518940742E0,9.663019125E0,-6.270725974E0,1.179156501E1
8.280612833E0,2.178246290E0,9.536724529E0,-4.544100494E0,1.078622830E1
8.290558833E0,1.690309154E0,9.476981188E0,-3.034141252E0,1.009338053E1
8.300504833E0,1.209188409E0,9.587892344E0,-1.321076343E0,9.753720260E0
8.310450833E0,9.717899922E-1,9.881616697E0,-1.752106476E-1,9.930831945E0
8.320396833E0,1.031136234E0,1.035171880E1,4.680731213E-1,1.041347284E1
8.330341833E0,1.189230912E0,1.074380502E1,6.444907804E-1,1.082861878E1
8.340287833E0,1.351142141E0,1.022593350E1,7.293235007E-1,1.034056158E1
8.350233833E0,9.599175131E-1,8.509689167E0,2.030585968E-1,8.566065849E0
8.360179833E0,9.444356027E-2,5.481396884E0,-1.847403958E0,5.785113030E0
8.370125833E0,-9.295936335E-1,9.284372735E-1,-5.014967415E0,5.184210477E0
8.380071833E0,-1.524633122E0,-6.348559431E0,-7.521156549E0,9.959744417E0
8.390016833E0,-1.777508791E-2,-1.432889899E1,-4.695708271E0,1.507870480E1
8.399962833E0,3.783922406E0,-2.163986451E1,-3.426055559E0,2.223375051E1
8.409908833E0,4.954469783E0,-3.123014018E1,-1.029950638E0,3.163746553E1
8.419854833E0,2.963905375E0,-5.291100537E1,2.890356757E0,5.307271791E1
8.429800833E0,-8.429960773E-1,-6.980946796E1,-2.064550105E0,6.984507733E1
8.439746833E0,-3.339057176E0,-6.035928223E1,-6.126064689E0,6.076117940E1
8.449691833E0,-3.722855840E0,-3.285216248E1,2.966883069E0,3.319528025E1
8.459637833E0,-2.880354803E0,-1.865075150E1,8.479264934E0,2.068924622E1
8.469583833E0,-2.258220267E0,-1.144501247E1,7.706077668E0,1.398111234E1
8.479529833E0,-1.443886729E0,-6.229539941E0,6.974812599E0,9.462557136E0
8.489475833E0,-4.887916336E-1,-3.714914444E0,5.856265973E0,6.952363464E0
8.499420833E0,2.583990212E-1,-2.615677662E0,3.327529975E0,4.240400385E0
8.509366833E0,8.022279011E-1,-1.693177652E0,-5.004175794E-1,1.939287993E0
8.519312833E0,2.347036987E0,-9.626370531E-1,-5.069892651E0,5.669132580E0
8.529258833E0,4.365483259E0,-7.191256642E-1,-6.627266965E0,7.968390881E0
8.539204833E0,4.280421474E0,-4.300042391E-3,-5.094384298E0,6.653929506E0
8.549150833E0,3.187026061E0,1.815733538E0,-3.514395878E0,5.079862378E0
8.559095833E0,2.110604530E0,4.018227646E0,-2.363025321E0,5.117098159E0
8.569041833E0,1.143266315E0,6.184623384E0,-2.169409978E0,6.653041705E0
8.578987833E0,5.868393537E-1,8.324573336E0,-3.617062460E0,9.095385780E0
8.588933833E0,4.197810403E-1,1.113741151E1,-1.052326792E1,1.532831755E1
8.598879833E0,-1.245074526E0,1.503157995E1,-2.764934508E1,3.149579162E1
8.608824833E0,-1.605644980E0,1.463269927E1,-2.609646260E1,2.996196495E1
8.618770833E0,-6.790801308E-1,1.155000976E1,-1.134425676E1,1.620358098E1
8.628716833E0,-4.887470486E-1,9.844255328E0,2.799687785E0,1.024629144E1
8.638662833E0,-3.374078051E-1,8.785262593E0,9.406390092E0,1.287535854E1
8.648608833E0,-3.837984812E-1,8.245936471E0,1.046576056E1,1.332947537E1
8.658554833E0,6.264281465E-1,8.854976606E0,1.006786221E1,1.342255089E1
8.668499833E0,2.390684698E0,9.884023411E0,8.973139479E0,1.356195134E1
8.678445833E0,3.399635500E0,1.023087557E1,7.327066412E0,1.303511560E1
8.688391833E0,2.991321215E0,1.001741945E1,5.504241371E0,1.181496374E1
8.698337833E0,2.415587405E0,9.690506886E0,3.969018649E0,1.074681791E1
8.708283833E0,1.964432909E0,9.462499389E0,2.983545295E0,1.011431826E1
8.718229833E0,1.449234446E0,9.260030776E0,2.210109522E0,9.629799300E0
8.728174833E0,1.256183651E0,9.317766184E0,1.299501579E0,9.491441849E0
8.738120833E0,1.364289605E0,9.791501164E0,-3.113268479E-1,9.890991132E0
8.748066833E0,1.512061024E0,1.029624978E1,-1.566428143E0,1.052391491E1
8.758012833E0,1.754356777E0,1.041500673E1,-2.151811613E0,1.077870243E1
8.767958833E0,2.016733915E0,1.022352445E1,-2.275135238E0,1.066601651E1
8.777903833E0,1.998869063E0,1.001378131E1,-2.122136993E0,1.042951385E1
8.787849833E0,1.953980281E0,9.760606230E0,-1.976838362E0,1.014866311E1
8.797795833E0,2.171186800E0,9.493359824E0,-2.132752029E0,9.969281021E0
8.807741833E0,2.558246018E0,9.225021157E0,-2.813656783E0,9.978091127E0
8.817687833E0,2.770880308E0,8.998307649E0,-4.156979735E0,1.029212314E1
8.827633833E0,2.211310687E0,9.177376290E0,-5.286912060E0,1.081968436E1
8.837578833E0,1.490044064E0,9.250615590E0,-5.834356456E0,1.103783653E1
8.847524833E0,1.203775130E0,8.181003726E0,-6.271746898E0,1.037847319E1
8.857470833E0,1.341711021E0,6.283293979E0,-6.328978275E0,9.018643895E0
8.867416833E0,1.555852576E0,4.299345403E0,-5.690604998E0,7.299865298E0
8.877362833E0,1.743977238E0,1.553267230E0,-1.225652122E0,2.637483425E0
8.887307833E0,1.229103003E0,-2.528034917E0,3.323155966E0,4.352587771E0
8.897253833E0,4.677372353E-1,-7.692494001E0,3.322714208E0,8.392477095E0
8.907199833E0,-3.416083717E-1,-1.372200011E1,-2.494539142E-1,1.372851815E1
8.917145833E0,9.692362207E-1,-2.297289169E1,-1.166437428E1,2.578276166E1
8.927091833E0,3.465215532E0,-3.014841464E1,-1.664658910E1,3.461276575E1
8.937037833E0,8.764337455E-1,-3.695003856E1,1.829740104E0,3.700569463E1
8.946982833E0,8.496442884E-3,-4.745515088E1,3.330942703E0,4.757190974E1
8.956928833E0,-6.092017376E-1,-3.647979378E1,-6.996173648E0,3.714960198E1
8.966874833E0,-2.984620013E0,-2.047897469E1,-8.351332533E-1,2.071216571E1
8.976820833E0,-3.149129671E0,-1.555067237E1,6.978814434E0,1.733332858E1
8.986766833E0,-2.793297948E0,-1.447587812E1,8.637710445E0,1.708694245E1
8.996712833E0,-2.942412764E0,-1.453206752E1,6.980746354E0,1.638809321E1
9.006657833E0,-1.422414437E0,-1.537311348E1,4.424830159E0,1.606035500E1
9.016603833E0,-7.408348411E-1,-1.529520985E1,2.457892302E0,1.550914296E1
9.026549833E0,-8.564326134E-1,-1.450684614E1,6.043940107E-1,1.454466754E1
9.036495833E0,1.299051234E-1,-1.201889564E1,-3.745784819E-1,1.202543292E1
9.046441833E0,1.884738138E0,-8.480237911E0,-1.614424428E0,8.835894924E0
9.056386833E0,3.747675224E0,-5.525679018E0,-2.621870449E0,7.173033029E0
9.066332833E0,4.694844638E0,-2.835768029E0,-3.404860572E0,6.455712354E0
9.076278833E0,4.888256206E0,1.502705187E-1,-3.773242174E0,6.176972273E0
9.086224833E0,3.989908119E0,3.560410541E0,-2.953424533E0,6.108895685E0
9.096170833E0,2.967643792E0,6.912566650E0,-1.386792322E0,7.649423528E0
9.106116833E0,2.394695888E0,9.912984670E0,-3.264050263E-1,1.020335110E1
9.116061833E0,2.418153894E0,1.190918667E1,-1.398355776E0,1.223239937E1
9.126007833E0,2.540280156E0,1.309393430E1,-5.383084724E0,1.438338416E1
9.135953833E0,2.352626048E0,1.729130777E1,-2.222686883E1,2.825876629E1
9.145899833E0,-1.053150782E-1,1.782948667E1,-3.031978718E1,3.517372856E1
9.155845833E0,-4.242463396E-1,1.401738741E1,-1.597009548E1,2.125349582E1
9.165790833E0,1.759369449E-1,1.172855332E1,-5.708061860E0,1.304499471E1
9.175736833E0,9.377302533E-1,1.042119308E1,1.871836987E0,1.062941094E1
9.185682833E0,1.475644565E0,9.575653537E0,6.785720662E0,1.182863781E1
9.195629083E0,9.846994018E-1,8.113785889E0,8.661208066E0,1.190880681E1
9.205575083E0,1.586864746E0,6.989246451E0,7.981072805E0,1.072684617E1
9.215521083E0,2.439923516E0,7.161480866E0,8.520380216E0,1.139460021E1
9.225466083E0,2.980753834E0,7.621399460E0,9.341981843E0,1.241947052E1
9.235412083E0,2.668064329E0,7.628445355E0,8.562931573E0,1.177435956E1
9.245358083E0,1.456402255E0,7.968622913E0,6.548373992E0,1.041639384E1
9.255304083E0,5.601019734E-1,8.462088738E0,4.090709732E0,9.415655375E0
9.265250083E0,3.875120113E-1,8.988790137E0,1.231337078E0,9.081007911E0
9.275195083E0,8.067865366E-1,9.464078722E0,-1.620188613E0,9.635595556E0
9.285141083E0,1.631676345E0,9.527993467E0,-3.433396153E0,1.025832522E1
9.295087083E0,2.427589400E0,9.511245872E0,-4.257029103E0,1.069949929E1
9.305033083E0,2.828090050E0,9.420857858E0,-4.297337469E0,1.073395386E1
9.314979083E0,2.943519642E0,9.599027197E0,-3.572440603E0,1.065682705E1
9.324925083E0,2.505912561E0,1.007490226E1,-2.206429285E0,1.061374503E1
9.334870083E0,2.504958295E0,1.027008933E1,-9.935144448E-1,1.061775032E1
9.344816083E0,2.573138584E0,1.014063432E1,-8.269681283E-1,1.049463591E1
9.354762083E0,2.907226267E0,9.994905331E0,-1.228504686E0,1.048137972E1
9.364708083E0,3.273524214E0,9.677533668E0,-1.809862787E0,1.037526973E1
9.374654083E0,2.823764865E0,9.186366969E0,-1.771514262E0,9.772474041E0
9.384599083E0,1.934870703E0,9.006214254E0,-1.069865048E0,9.273630953E0
9.394545083E0,1.162441090E-1,8.832434421E0,-2.414571451E0,9.157268467E0
9.404491083E0,-3.297975808E0,7.732398909E0,-9.683142318E0,1.282302158E1
9.414437083E0,-5.207472373E0,6.252399631E0,-6.564548560E0,1.045483464E1
9.424383083E0,-3.052959346E0,4.440629336E0,2.402292590E0,5.900064352E0
9.434329083E0,-1.561189622E0,1.145259047E0,3.443781393E0,3.950767217E0
9.444274083E0,-2.619423974E-1,-4.122534372E0,4.332311712E0,5.986052810E0
9.454220083E0,1.404523712E0,-1.571162282E1,5.713374056E0,1.677708025E1
9.464166083E0,2.996693929E0,-3.831327479E1,-2.347175128E0,3.850190165E1
9.474112083E0,1.919480977E0,-5.612864862E1,-1.486476357E1,5.809535953E1
9.484058083E0,-8.769131441E-1,-7.336763434E1,-1.416274568E-1,7.337301142E1
9.494003083E0,-9.518397309E-2,-6.695577413E1,3.171328333E0,6.703090386E1
9.503949083E0,-2.077137114E0,-3.767477054E1,-1.646726786E0,3.776790360E1
9.513895083E0,-3.350539646E0,-2.050581107E1,5.211342645E0,2.142130939E1
9.523841083E0,-1.783203577E0,-1.189115035E1,7.065244467E0,1.394621637E1
9.533787083E0,-1.726944007E0,-7.423609205E0,5.293900652E0,9.279961926E0
9.543733083E0,-6.168768659E-1,-4.336792726E0,3.618067596E0,5.681436556E0
9.553678083E0,2.880253646E-1,-1.701953153E0,1.043038096E0,2.016812241E0
9.563624083E0,9.511723443E-1,4.224671781E-1,-4.034943666E0,4.167010648E0
9.573570083E0,2.315070259E0,1.364396317E0,-8.517833169E0,8.931663311E0
9.583516083E0,4.003587973E0,5.542195648E-1,-8.140256234E0,9.088434824E0
9.593462083E0,4.399776594E0,-2.549929816E-1,-5.079981437E0,6.725270767E0
9.603408083E0,3.501507445E0,4.280775815E-1,-2.751414927E0,4.473710865E0
9.613353083E0,2.610780035E0,2.409467416E0,-2.189789863E0,4.173354198E0
9.623299083E0,2.031997048E0,4.895129900E0,-2.058123431E0,5.685699675E0
9.633245083E0,1.125827433E0,7.921965641E0,-2.502811782E0,8.383859126E0
9.643191083E0,8.772672661E-1,1.113778573E1,-6.653964767E0,1.300365779E1
9.653137083E0,1.539035107E0,1.380495339E1,-1.308590725E1,1.908366672E1
9.663082083E0,1.520566530E0,1.472377667E1,-1.509327041E1,2.114021130E1
9.673028083E0,9.952937526E-1,1.426191914E1,-1.055010547E1,1.776788318E1
9.682974083E0,1.374194350E-1,1.313634767E1,-2.958495823E0,1.346607633E1
9.692920083E0,-7.746158139E-1,1.185582849E1,3.748269886E0,1.245833962E1
9.702866083E0,-1.592253833E0,1.027480453E1,8.178238578E0,1.322839622E1
9.712812083E0,-2.449080841E0,9.220476117E0,1.020385675E1,1.396903251E1
9.722757083E0,-2.771023857E0,8.709869764E0,1.076377911E1,1.412088330E1
9.732703083E0,-2.661945803E0,8.407938843E0,1.023128487E1,1.350772302E1
9.742649083E0,-2.259777380E0,8.704651709E0,8.980904582E0,1.270961063E1
9.752595083E0,-1.297872545E0,9.437520669E0,7.244903677E0,1.196828721E1
9.762541083E0,-9.450199040E-1,9.399631881E0,5.311603682E0,1.083786306E1
9.772486083E0,-7.214171880E-1,9.211469066E0,3.972339867E0,1.005738978E1
9.782432083E0,-4.532262733E-1,9.144067626E0,2.922288694E0,9.610367216E0
9.792378083E0,-3.412399971E-1,9.144835950E0,2.201322327E0,9.412241459E0
9.802324083E0,-1.157496721E-1,9.166224480E0,1.538252749E0,9.295121878E0
9.812270083E0,5.950663130E-1,9.103062857E0,1.233388281E-1,9.123325587E0
9.822216083E0,1.863179015E0,9.056518435E0,-2.192450931E0,9.502568248E0
9.832161083E0,3.707693425E0,9.061355252E0,-6.488290343E0,1.174534210E1
9.842107083E0,4.994442519E0,9.095812894E0,-1.004579131E1,1.444285953E1
9.852053083E0,5.599273828E0,8.916227360E0,-1.178314994E1,1.580169612E1
9.861999083E0,5.792833623E0,8.683086008E0,-1.095967136E1,1.513496945E1
9.871945083E0,6.016140543E0,8.639714286E0,-9.483063462E0,1.416923084E1
9.881890083E0,5.915453244E0,8.967050774E0,-7.239120780E0,1.295397454E1
9.891836083E0,5.825776252E0,9.778602206E0,-3.400274016E0,1.187950308E1
9.901782083E0,5.241673322E0,1.052475195E1,1.446064378E0,1.184637687E1
9.911728083E0,3.489199641E0,1.047360518E1,6.411874251E0,1.276648155E1
9.921674083E0,8.693170993E-1,8.402500933E0,3.942130812E0,9.321916621E0
9.931620083E0,-1.179531039E-1,5.214810628E0,-1.050139027E0,5.320803962E0
9.941565083E0,-9.582554421E-1,1.366717662E0,-4.944072264E0,5.218239283E0
9.951511083E0,-3.062984982E0,-1.070281604E1,-1.517262882E1,1.881862943E1
9.961457083E0,-1.318348909E0,-1.763521761E1,-4.457681571E0,1.823759493E1
9.971403083E0,7.305920541E-2,-2.195893070E1,4.686511770E0,2.245358251E1
9.981349083E0,-6.976389009E-1,-3.858881430E1,6.474913083E0,3.913448337E1
9.991294083E0,3.340547924E-1,-6.225885080E1,7.633112018E0,6.272591566E1
1.000124008E1,1.829157137E0,-6.972120775E1,-1.142782020E0,6.975455954E1
1.001118608E1,9.563596286E-2,-5.021188385E1,-8.170937744E0,5.087245472E1
1.002113208E1,-3.526499614E0,-2.997817179E1,-9.410883093E-1,3.019954686E1
1.003107808E1,-3.151467973E0,-1.996559383E1,7.055466753E0,2.140879022E1
1.004102408E1,-1.265226955E0,-1.311292489E1,9.787863611E0,1.641194298E1
1.005096908E1,-9.749949972E-1,-7.294684532E0,1.010413600E1,1.250026407E1
1.006091508E1,-7.784309759E-1,-3.067137675E0,7.482753791E0,8.124339518E0
1.007086108E1,-5.911880741E-1,5.927673340E-2,4.896877048E0,4.932790477E0
1.008080708E1,-3.390283609E-1,3.100348105E0,3.717945056E0,4.852856277E0
1.009075308E1,7.454570468E-2,5.630097426E0,2.453207513E0,6.141806020E0
1.010069908E1,3.254043484E-1,7.435310068E0,7.585779977E-1,7.480986859E0
1.011064408E1,4.374940838E-1,9.214823613E0,-6.768011785E-1,9.249996494E0
1.012059008E1,5.611544356E-1,1.039925316E1,-2.226251346E0,1.064967397E1
1.013053608E1,1.206831470E0,1.233962711E1,-7.194650366E0,1.433477706E1
1.014048208E1,3.311193147E0,1.545599776E1,-1.897162331E1,2.469360965E1
1.015042808E1,4.130057692E0,1.627395189E1,-2.215325706E1,2.779686467E1
1.016037308E1,4.511838774E0,1.422066236E1,-1.475615270E1,2.098399318E1
1.017031908E1,5.248481820E0,1.177614380E1,-9.156689426E0,1.581357283E1
1.018026508E1,4.980104561E0,8.552459795E0,-5.021768897E0,1.109793552E1
1.019021108E1,3.931027827E0,6.947992006E0,-1.940849919E0,8.215501878E0
1.020015771E1,2.570680707E0,6.691713222E0,4.958637313E-1,7.185631912E0
1.021010371E1,7.713396189E-1,6.941723206E0,2.079057047E0,7.287315286E0
1.022004871E1,-6.886561158E-1,7.524311707E0,3.268369017E0,8.232359925E0
1.022999471E1,-1.046151738E0,8.078742941E0,5.333600907E0,9.736930708E0
1.023994071E1,9.654284773E-2,9.336397167E0,7.716392741E0,1.211281757E1
1.024988671E1,4.292819618E-1,1.018790321E1,9.201422964E0,1.373476754E1
1.025983271E1,1.946827528E-1,1.083649508E1,8.801340097E0,1.396177333E1
1.026977771E1,6.557556423E-2,1.113314070E1,7.338486024E0,1.333433535E1
1.027972371E1,8.970293018E-2,1.105766718E1,5.701749791E0,1.244146297E1
1.028966971E1,3.669524702E-1,1.081324187E1,4.256154360E0,1.162650867E1
1.029961571E1,8.870555051E-1,1.056815700E1,2.914102592E0,1.099840005E1
1.030956171E1,2.019785138E0,1.029587555E1,1.206633834E0,1.056127599E1
1.031950771E1,2.740693180E0,9.990440397E0,2.570237195E-1,1.036273900E1
1.032945271E1,2.688820191E0,9.812827713E0,2.902031600E-1,1.017868163E1
1.033939871E1,2.225047258E0,9.517209447E0,2.954408766E-1,9.778312547E0
1.034934471E1,1.603626082E0,9.084437721E0,5.881012559E-2,9.225079075E0
1.035929071E1,1.068936291E0,8.648328404E0,-4.602227958E-1,8.726282943E0
1.036923671E1,4.153942399E-1,8.379195101E0,-7.532030178E-1,8.423228460E0
1.037918271E1,-4.892730787E-1,8.132554282E0,-1.492184876E0,8.282779908E0
1.038912771E1,-3.290382029E0,7.412295427E0,-8.570412501E0,1.179918251E1
1.039907371E1,-7.633818946E0,5.981999236E0,-1.909908325E1,2.142042221E1
1.040901971E1,-6.287148464E0,4.337832946E0,-7.544361809E0,1.073603398E1
1.041896571E1,-3.909737530E0,2.222108594E0,1.110272816E0,4.632118293E0
1.042891171E1,-2.854107529E0,-1.442718601E-1,4.951108804E0,5.716661835E0
1.043885671E1,-1.771501544E0,-4.942149115E0,5.685292218E0,7.738578888E0
1.044880271E1,-3.451218174E-1,-1.608283448E1,8.163940966E0,1.803958442E1
1.045874871E1,-1.085312880E0,-3.373936753E1,9.689411702E0,3.511990211E1
1.046869471E1,-3.286998830E0,-5.445699048E1,2.024252411E0,5.459364222E1
1.047864071E1,1.523124395E0,-7.379874722E1,-1.754572013E1,7.587112292E1
1.048858671E1,5.616010898E0,-6.337831661E1,-1.087876226E1,6.454996563E1
1.049853171E1,-4.548041810E-1,-3.662542220E1,5.097834740E0,3.698129686E1
1.050847771E1,-4.099791335E0,-2.322159950E1,6.525627154E0,2.446701416E1
1.051842371E1,-2.898367735E0,-1.552093226E1,7.783660280E0,1.760355762E1
1.052836971E1,-1.597386811E0,-1.056943637E1,7.526131361E0,1.307315123E1
1.053831571E1,-1.104361062E0,-8.471465333E0,6.105346835E0,1.050050466E1
1.054826171E1,-3.147724659E-1,-6.314741474E0,5.052124132E0,8.093145238E0
1.055820671E1,5.916242399E-1,-4.321482376E0,3.594337256E0,5.651945637E0
1.056815271E1,1.155452132E0,-2.734001334E0,1.054720759E0,3.149963302E0
1.057809871E1,2.122429062E0,-7.265206379E-1,-2.982247798E0,3.731801078E0
1.058804471E1,4.003037750E0,3.621983476E0,-1.281346442E1,1.390424201E1
1.059799071E1,4.165009424E0,7.844720414E0,-1.930187522E1,2.124733698E1
1.060793571E1,3.156614985E0,1.041043420E1,-1.590589306E1,1.927015289E1
1.061788171E1,3.223650388E0,1.348692099E1,-1.310912771E1,1.908240522E1
1.062782771E1,5.246790220E0,1.536410058E1,-1.582166976E1,2.266957495E1
1.063777371E1,6.748022493E0,1.452221145E1,-1.592835572E1,2.258634430E1
1.064771971E1,6.601453847E0,9.583178319E0,-9.267456740E0,1.487623118E1
1.065766571E1,5.158459257E0,5.638622081E0,-1.634775662E0,7.815129707E0
1.066761071E1,3.920790814E0,5.284700643E0,3.028561839E0,7.243814486E0
1.067755671E1,3.653776542E0,5.885043045E0,5.240135504E0,8.685783485E0
1.068750271E1,3.897547255E0,6.593515082E0,6.469666961E0,1.002606136E1
1.069744871E1,4.332373108E0,7.145685198E0,7.133937557E0,1.098741729E1
1.070739471E1,4.527064339E0,7.954133513E0,6.928729523E0,1.147910468E1
1.071733971E1,4.279074568E0,9.386663341E0,6.051776984E0,1.196009751E1
1.072728571E1,3.659680768E0,1.083416789E1,4.080589371E0,1.214181481E1
1.073723171E1,2.941872774E0,1.133664369E1,2.284404244E0,1.193283739E1
1.074717771E1,2.092746549E0,1.127295114E1,1.756537496E0,1.159932927E1
1.075712371E1,1.317369500E0,1.084361465E1,1.826183681E0,1.107494415E1
1.076706971E1,8.720697492E-1,1.053478109E1,1.703709072E0,1.070722853E1
1.077701471E1,5.913431715E-1,1.041890331E1,1.313961743E0,1.051806676E1
1.078696071E1,3.874004026E-1,1.062251388E1,1.208691981E0,1.069807537E1
1.079690671E1,-2.343618851E-2,1.078078047E1,1.488363136E0,1.088306031E1
1.080685271E1,-3.749487934E-1,1.086114226E1,2.048235204E0,1.105894504E1
1.081679871E1,-3.982901474E-1,1.078326905E1,2.228874407E0,1.101841220E1
1.082674371E1,-4.164111438E-1,1.070887609E1,1.973970888E0,1.089724674E1
1.083668971E1,-3.269730468E-1,1.026868366E1,1.111107799E0,1.033379582E1
1.084663571E1,1.911209945E-1,9.643107017E0,-1.789364934E-2,9.645017385E0
1.085658171E1,6.492547262E-1,9.120543108E0,-9.471050942E-1,9.192542975E0
1.086652771E1,8.479066421E-1,8.599893578E0,-1.989905720E0,8.867741539E0
1.087647371E1,4.785738801E-1,8.272179945E0,-4.558642520E0,9.457230864E0
1.088641871E1,-9.920549067E-1,8.416885668E0,-1.274985139E1,1.530969783E1
1.089636471E1,-1.810637397E0,8.926810820E0,-1.697513596E1,1.926451661E1
1.090631071E1,-1.278541650E0,9.427458195E0,-1.479158332E1,1.758700014E1
1.091625671E1,-1.017448341E0,9.163493246E0,-1.094559711E1,1.431121608E1
1.092620271E1,-7.126647102E-1,7.231092553E0,-6.438662685E0,9.708396761E0
1.093614771E1,7.041524068E-1,4.368666483E0,-2.075183852E0,4.887480483E0
1.094609371E1,2.621665211E0,1.477809497E0,6.537130089E-1,3.079673698E0
1.095603971E1,4.426548656E0,-2.755748298E0,2.180287553E0,5.651737388E0
1.096598571E1,5.862097401E0,-8.115394458E0,4.684434839E0,1.105295177E1
1.097593171E1,6.871816235E0,-1.771544375E1,6.786862038E0,2.017722235E1
1.098587771E1,7.391299245E0,-2.784162492E1,6.289355203E0,2.948462941E1
1.099582271E1,7.851102650E0,-4.550454781E1,-5.444161230E0,4.649669424E1
1.100576871E1,2.808741614E0,-6.419843772E1,-2.304327813E1,6.826654453E1
1.101571471E1,-3.286211503E0,-6.120286237E1,-2.586547419E0,6.134557666E1
1.102566071E1,-5.251104296E0,-4.007186700E1,1.149807829E1,4.201826300E1
1.103560671E1,-3.683437713E0,-2.215443352E1,1.078300475E1,2.491304537E1
1.104555271E1,-2.695419651E0,-1.461967167E1,7.129338137E0,1.648719349E1
1.105549771E1,-2.087639006E0,-1.066187851E1,5.058725638E0,1.198434792E1
1.106544371E1,-2.972945536E-1,-8.589366251E0,4.635756769E0,9.765031360E0
1.107538971E1,7.897779364E-2,-7.741173826E0,4.015995179E0,8.721251457E0
1.108533571E1,-1.170996663E0,-7.780105757E0,2.377553898E0,8.219126554E0
1.109528171E1,-1.492542726E0,-6.913454842E0,-4.535564144E0,8.402076157E0
1.110522771E1,6.013288271E-1,-4.251694688E0,-1.334851740E1,1.402217604E1
1.111517271E1,1.138607400E0,-1.292692496E0,-1.240614738E1,1.252517359E1
1.112511871E1,-4.422206806E-1,5.561813056E-1,-7.106621704E0,7.142056344E0
1.113506471E1,-1.047439076E0,2.755971077E0,-4.878006329E0,5.699776394E0
1.114501071E1,-3.955895377E-1,6.749834545E0,-8.145021130E0,1.058575112E1
1.115495671E1,1.097758167E0,1.252380739E1,-2.276012788E1,2.600142776E1
1.116490171E1,5.160004091E-1,1.491314109E1,-2.852630347E1,3.219344689E1
1.117484771E1,-2.073253686E0,1.320630142E1,-1.469235607E1,1.986378879E1
1.118479371E1,-4.124208722E0,1.126446215E1,3.336579126E0,1.245110298E1
1.119473971E1,-5.013367617E0,1.064446667E1,1.312348730E1,1.762567572E1
1.120468433E1,-4.031922995E0,1.094995913E1,1.383804044E1,1.810108757E1
1.121463033E1,-2.178284443E0,1.149343678E1,1.091790119E1,1.600139301E1
1.122457533E1,-9.664881755E-1,1.193684751E1,8.792052380E0,1.485673628E1
1.123452133E1,-6.980537608E-2,1.191057714E1,6.138254964E0,1.339943635E1
1.124446733E1,9.759909242E-2,1.134401469E1,3.764324001E0,1.195267041E1
1.125441333E1,3.288186838E-1,1.080504875E1,2.891777923E0,1.119015549E1
1.126435933E1,5.758388041E-1,1.029657254E1,2.794935168E0,1.068469274E1
1.127430433E1,4.630048644E-1,9.933114295E0,2.860592383E0,1.034717942E1
1.128425033E1,1.834000751E-1,9.684298312E0,2.887117692E0,1.010716172E1
1.129419633E1,-1.927742947E-2,9.384563021E0,2.629989892E0,9.746139828E0
1.130414233E1,-1.385165097E-1,9.205662780E0,2.276063776E0,9.483874755E0
1.131408833E1,-1.191042928E-1,8.940003308E0,1.591067140E0,9.081263107E0
1.132403433E1,5.871889441E-1,8.693163099E0,-2.970264953E-2,8.713022310E0
1.133397933E1,1.433243627E0,8.858745137E0,-1.994862989E0,9.192988145E0
1.134392533E1,2.251556780E0,9.178280270E0,-4.118248948E0,1.030874925E1
1.135387133E1,2.958418932E0,9.327587752E0,-6.900279311E0,1.197372083E1
1.136381733E1,3.194569846E0,9.481424487E0,-8.039057304E0,1.283468461E1
1.137376333E1,2.831682580E0,9.477158943E0,-6.700585202E0,1.194708374E1
1.138370833E1,2.680370964E0,9.490951356E0,-4.867591853E0,1.099799966E1
1.139365433E1,2.870019264E0,9.604469785E0,-3.692424006E0,1.068254864E1
1.140360033E1,3.239651294E0,9.702655061E0,-2.973725481E0,1.065269445E1
1.141354633E1,3.552278234E0,9.883719356E0,-2.149448022E0,1.072038785E1
1.142349233E1,3.031441300E0,1.008686566E1,8.443930502E-1,1.056633782E1
1.143343833E1,9.535072837E-1,1.019050639E1,5.902306949E0,1.181494071E1
1.144338333E1,-1.379511369E0,9.309211122E0,6.435580033E0,1.140092776E1
1.145332933E1,-1.585859317E0,7.070284767E0,2.026771245E0,7.524073241E0
1.146327533E1,-1.738069942E0,3.339304513E0,-5.914893665E0,7.011262998E0
1.147322133E1,-4.058546245E0,-3.004492945E0,-1.057237635E1,1.171639523E1
1.148316733E1,-5.702931513E0,-1.076880888E1,-8.544140961E0,1.488264148E1
1.149311333E1,-4.424570835E0,-1.321570959E1,1.794041683E0,1.405170426E1
1.150305833E1,-3.669076951E0,-1.738244949E1,4.119134216E0,1.823674705E1
1.151300433E1,-4.374794950E0,-4.165241149E1,-2.178581628E0,4.193815007E1
1.152295033E1,-2.493635454E0,-6.515269396E1,-1.883902834E1,6.786752343E1
1.153289633E1,-9.341529999E-1,-6.176921432E1,-2.467156631E0,6.182552338E1
1.154284233E1,1.981926609E0,-4.491822176E1,1.001334628E1,4.606345388E1
1.155278833E1,7.913349769E-1,-2.673244319E1,5.482552879E0,2.730033180E1
1.156273333E1,-5.116817105E-2,-1.766613886E1,6.704666559E0,1.889570411E1
1.157267933E1,6.359670749E-1,-1.294369127E1,7.535650628E0,1.499098490E1
1.158262533E1,2.813439851E0,-9.860562043E0,7.247678765E0,1.255686964E1
1.159257133E1,2.418162811E0,-8.222324830E0,5.532179368E0,1.020093846E1
1.160251733E1,1.979947619E0,-6.893676635E0,3.352478875E0,7.917201824E0
1.161246333E1,2.599435559E0,-5.428036948E0,1.629614325E0,6.235085660E0
1.162240833E1,3.814290213E0,-3.468113412E0,-2.093057621E0,5.563947400E0
1.163235433E1,5.368163214E0,-1.348839800E0,-6.012417036E0,8.172252059E0
1.164230033E1,5.518755915E0,3.634044528E-1,-6.506424898E0,8.539455170E0
1.165224633E1,4.006563036E0,2.048275550E0,-4.757801608E0,6.548637739E0
1.166219233E1,2.622013998E0,4.263908352E0,-3.441248964E0,6.074377851E0
1.167213733E1,1.654922536E0,7.199199500E0,-2.997863372E0,7.972103037E0
1.168208333E1,1.087713016E0,1.007832873E1,-3.853826746E0,1.084471346E1
1.169202933E1,-1.341300838E-1,1.299853932E1,-8.605878788E0,1.558977758E1
1.170197533E1,-2.763525680E0,1.574695638E1,-2.102788323E1,2.641544212E1
1.171192133E1,-4.281522212E0,1.496345170E1,-2.167606346E1,2.668497791E1
1.172186733E1,-2.460674407E0,1.266125087E1,-9.070596192E0,1.576825632E1
1.173181233E1,-3.523795277E-1,1.090207277E1,1.938472441E0,1.107867490E1
1.174175833E1,1.059826256E0,9.837505302E0,7.576361282E0,1.246198189E1
1.175170433E1,2.322076393E0,9.652805793E0,9.849676867E0,1.398516474E1
1.176165033E1,4.515821605E0,9.694277755E0,1.050681737E1,1.499216052E1
1.177159633E1,6.281220556E0,9.626098636E0,1.032679797E1,1.545180452E1
1.178154133E1,6.720651677E0,9.217454275E0,9.105618675E0,1.459592113E1
1.179148733E1,5.712658941E0,8.642488790E0,6.546692333E0,1.225505060E1
1.180143333E1,4.074158895E0,8.410026884E0,4.015523894E0,1.017112359E1
1.181137933E1,2.841189860E0,8.258370575E0,1.498035600E0,8.860990635E0
1.182132533E1,2.670519283E0,8.431330630E0,-2.272907449E0,9.131545198E0
1.183127133E1,2.268625094E0,9.474008464E0,-3.601914078E0,1.038639886E1
1.184121633E1,1.920921439E0,1.000180388E1,-2.930277160E0,1.059776128E1
1.185116233E1,1.645505449E0,9.954896343E0,-1.747043957E0,1.024010801E1
1.186110833E1,1.165909366E0,9.688014218E0,-8.231932390E-1,9.792579397E0
1.187105433E1,6.801501712E-1,9.352435495E0,-3.870213568E-1,9.385117978E0
1.188100033E1,5.991175929E-1,9.070339499E0,-6.972488916E-1,9.116806268E0
1.189094533E1,9.517179626E-1,8.921247779E0,-1.873195295E0,9.165330852E0
1.190089133E1,1.468022427E0,8.685997337E0,-4.735161774E0,1.000116976E1
1.191083733E1,1.182267609E0,8.420247817E0,-7.248256470E0,1.117298312E1
1.192078333E1,9.205434593E-1,8.609811040E0,-6.864327121E0,1.104967118E1
1.193072933E1,1.359633467E0,9.086823385E0,-4.623395755E0,1.028565752E1
1.194067533E1,1.737398097E0,9.961884935E0,-1.652940037E0,1.024645863E1
1.195062033E1,1.353383086E0,1.054516341E1,1.413728106E0,1.072523866E1
1.196056633E1,6.539992301E-1,1.043018142E1,4.822515668E0,1.150969404E1
1.197051233E1,1.864198331E-2,8.835694828E0,5.815727227E0,1.057792672E1
1.198045833E1,4.860088706E-2,6.244176691E0,3.280544089E0,7.053656790E0
1.199040433E1,-3.471733131E-2,3.101557894E0,1.075862098E0,3.283039129E0
1.200035033E1,-4.902508794E-1,-2.915604157E0,-3.691255148E0,4.729318988E0
1.201029533E1,-1.404223165E0,-1.265266716E1,-1.157664148E1,1.720698861E1
1.202024133E1,-2.540424289E0,-1.965509733E1,-1.159949240E1,2.296355440E1
1.203018733E1,-3.094793543E0,-2.067228598E1,-1.392302738E0,2.094897758E1
1.204013333E1,-3.263101552E0,-3.359632592E1,6.779597458E0,3.442853307E1
1.205007933E1,-4.317126786E0,-5.219023079E1,1.206733865E1,5.374084514E1
1.206002533E1,-4.234113280E0,-5.826753204E1,3.209101639E0,5.850924148E1
1.206997033E1,-6.804152694E-1,-4.967509074E1,-7.741182597E0,5.027925530E1
1.207991633E1,-2.371420900E0,-2.868779421E1,-6.275679735E0,2.946179441E1
1.208986233E1,-4.432452589E0,-1.823087230E1,1.981647989E0,1.886632634E1
1.209980833E1,-3.520014175E0,-1.240958788E1,5.218827081E0,1.391490306E1
1.210975433E1,-2.536150267E0,-8.014702481E0,5.292587367E0,9.933730169E0
1.211969933E1,-1.466934991E0,-5.265793086E0,4.384173299E0,7.007242725E0
1.212964533E1,-4.096788058E-1,-3.144919091E0,2.971163231E0,4.345821414E0
1.213959133E1,2.776015698E-1,-1.031256468E0,2.255012776E0,2.495122273E0
1.214953733E1,7.956301953E-1,8.736880392E-1,1.078215895E0,1.599658624E0
1.215948333E1,1.325172464E0,3.102030934E0,-1.091245977E0,3.545348467E0
1.216942933E1,2.087635205E0,5.158766236E0,-3.049473821E0,6.345894768E0
1.217937433E1,2.221924845E0,6.317477971E0,-2.875629083E0,7.288121881E0
1.218932033E1,1.839852425E0,7.258500792E0,-1.781087615E0,7.696958086E0
1.219926708E1,1.738440363E0,8.524617108E0,-5.370550632E-1,8.716633517E0
1.220921308E1,2.041197057E0,9.924698982E0,1.292931647E0,1.021458798E1
1.221915908E1,2.832611117E0,1.061237832E1,1.083849834E0,1.103725463E1
1.222910508E1,2.442595109E0,1.074873773E1,-7.442476416E-1,1.104787483E1
1.223905008E1,3.462679887E0,1.083158810E1,-4.557177792E0,1.225076823E1
1.224899608E1,9.262118232E0,1.139603620E1,-2.043873649E1,2.516740798E1
1.225894208E1,1.093575157E1,9.917244952E0,-1.880976068E1,2.391128409E1
1.226888808E1,8.165615024E0,8.546002715E0,-9.367743505E0,1.508197764E1
1.227883408E1,6.644584664E0,8.490760560E0,-4.669660680E0,1.174943620E1
1.228877908E1,4.547628704E0,9.489391903E0,-3.307992089E-1,1.052800616E1
1.229872508E1,1.958836247E0,1.057961754E1,3.358817257E0,1.127151277E1
1.230867108E1,1.741424344E-1,1.053974889E1,5.203959950E0,1.175575737E1
1.231861708E1,2.821840692E-2,1.002645925E1,5.599365045E0,1.148405722E1
1.232856308E1,-1.947834345E-1,9.777232788E0,5.256946249E0,1.110259904E1
1.233850908E1,-3.655910556E-1,9.778629688E0,4.994175886E0,1.098622083E1
1.234845408E1,-7.835979411E-1,9.627973838E0,4.339817491E0,1.058989716E1
1.235840008E1,-1.148962234E0,9.420759625E0,3.394753075E0,1.007944317E1
1.236834608E1,-1.183683586E0,9.437594928E0,2.609553874E0,9.863015577E0
1.237829208E1,-6.608139407E-1,9.787094702E0,1.060548095E0,9.866542456E0
1.238823808E1,2.879526764E-1,1.033984662E1,-1.028678430E0,1.039487971E1
1.239818308E1,1.034741408E0,1.055716423E1,-2.394274596E0,1.087460148E1
1.240812908E1,1.578811815E0,1.057513390E1,-3.204888135E0,1.116232107E1
1.241807508E1,1.937285603E0,1.060122417E1,-3.585520824E0,1.135759609E1
1.242802108E1,1.880469524E0,1.052042969E1,-3.114697173E0,1.113179882E1
1.243796708E1,1.585763716E0,1.020605297E1,-2.058385971E0,1.053162459E1
1.244791308E1,1.361715076E0,9.213632535E0,-1.067683963E0,9.374712875E0
1.245785808E1,1.167946024E0,7.512983896E0,-2.344953478E-1,7.606839883E0
1.246780408E1,1.181782071E0,5.477233667E0,-2.290598492E-1,5.607955592E0
1.247775008E1,9.863468548E-1,2.145259808E0,-3.552825533E0,4.265863222E0
1.248769608E1,-3.059993766E-1,-3.693214842E0,-9.107961069E0,9.833027323E0
1.249764208E1,-9.637288745E-1,-9.732044921E0,-9.961151694E0,1.395944178E1
1.250758808E1,4.454971679E-1,-1.583358171E1,-6.049804133E0,1.695585172E1
1.251753308E1,2.770093565E0,-1.877393245E1,-2.693656715E0,1.916741361E1
1.252747908E1,4.007344809E0,-2.215111231E1,1.105634805E0,2.253781305E1
1.253742508E1,4.292527549E0,-3.964740124E1,8.024326998E0,4.067839773E1
1.254737108E1,3.695154071E0,-5.645425434E1,5.014030691E0,5.679680889E1
1.255731708E1,2.170406051E0,-5.161114127E1,-1.404237023E1,5.353138077E1
1.256726308E1,5.871938777E-1,-3.311216244E1,-1.194732104E1,3.520651329E1
1.257720808E1,-6.543464085E-1,-2.093498501E1,1.801325998E0,2.102252463E1
1.258715408E1,-2.458779581E-1,-1.435707205E1,4.653559202E0,1.509442238E1
1.259710008E1,-6.188152179E-1,-9.893273706E0,3.826658828E0,1.062558773E1
1.260704608E1,-9.591324879E-2,-7.007127821E0,3.146462756E0,7.681748989E0
1.261699208E1,2.728850595E-1,-4.530293464E0,1.596926196E0,4.811257466E0
1.262693808E1,3.132323093E-1,-2.025881299E0,-1.719420175E-1,2.057151811E0
1.263688308E1,4.620671172E-1,4.304117900E-1,-2.998780800E0,3.064546723E0
1.264682908E1,1.038111963E0,2.872009072E0,-6.430690591E0,7.118981250E0
1.265677508E1,1.788175903E0,4.098768364E0,-6.854706112E0,8.184404135E0
1.266672108E1,1.347053475E0,5.001224704E0,-5.136867828E0,7.294807242E0
1.267666708E1,-6.268655548E-2,6.319568936E0,-3.419563980E0,7.185701006E0
1.268661208E1,-1.171840416E0,7.691137447E0,-1.794133338E0,7.984091660E0
1.269655808E1,-2.190078570E0,9.091025779E0,-4.942242086E-1,9.364157806E0
1.270650408E1,-2.479126174E0,9.817613075E0,-6.474949336E-1,1.014646947E1
1.271645008E1,-2.314396368E0,1.061046043E1,-5.557977283E-1,1.087415341E1
1.272639608E1,-1.596384306E0,1.133070175E1,-8.291761100E-1,1.147260990E1
1.273634208E1,-4.446773517E-1,1.157348516E1,-2.288511329E0,1.180595531E1
1.274628708E1,1.193500768E-2,1.158594674E1,-2.559087725E0,1.186521110E1
1.275623308E1,-4.670967825E-1,1.150848049E1,-1.060279196E0,1.156665443E1
1.276617908E1,-1.614049037E0,1.133201503E1,1.636008840E0,1.156270919E1
1.277612508E1,-2.337410716E0,1.102406674E1,4.342828807E0,1.207699045E1
1.278607108E1,-2.711132289E0,1.096708212E1,5.968491583E0,1.277693313E1
1.279601708E1,-2.503232782E0,1.105913132E1,6.472026898E0,1.305594471E1
1.280596208E1,-2.222207265E0,1.102157232E1,6.149558802E0,1.281523839E1
1.281590808E1,-1.777287510E0,1.110967933E1,5.355504577E0,1.246054393E1
1.282585408E1,-1.008931871E0,1.124460267E1,4.169514996E0,1.203511063E1
1.283580008E1,3.023902650E-2,1.104992079E1,2.661007032E0,1.136585335E1
1.284574608E1,9.071194947E-1,1.056230394E1,9.219702530E-1,1.064120103E1
1.285569108E1,1.438740887E0,1.022863257E1,-5.285366202E-1,1.034283572E1
1.286563708E1,1.924153049E0,1.011699870E1,-1.599419303E0,1.042181221E1
1.287558308E1,2.424311304E0,1.001570855E1,-2.655689574E0,1.064163476E1
1.288552908E1,3.061847406E0,9.850701299E0,-3.616118134E0,1.093103545E1
1.289547508E1,3.810243940E0,9.705345365E0,-4.760006593E0,1.146164693E1
1.290542108E1,4.607892448E0,9.628895359E0,-6.011129479E0,1.225079492E1
1.291536608E1,5.620896247E0,9.508832141E0,-7.527776767E0,1.336711586E1
1.292531208E1,6.577998326E0,9.555575953E0,-9.048242286E0,1.471223240E1
1.293525808E1,7.161145236E0,9.736484127E0,-9.805688263E0,1.556382493E1
1.294520408E1,6.500747836E0,9.674477329E0,-7.610230694E0,1.392015967E1
1.295515008E1,4.450472538E0,8.771408785E0,-1.251463194E0,9.915164044E0
1.296509608E1,4.647262482E-1,6.967038141E0,3.714075076E0,7.908852295E0
1.297504108E1,-1.858098954E0,5.424165507E0,4.373649480E0,7.211304525E0
1.298498708E1,-2.110389060E0,3.322566274E0,2.243684235E0,4.530707182E0
1.299493308E1,-4.839390732E0,-5.785152136E0,-8.764487436E0,1.156304146E1
1.300487908E1,-4.645898180E0,-1.168258485E1,-4.965200593E0,1.351741009E1
1.301482508E1,-2.566673318E0,-1.415231074E1,4.110577693E0,1.495902939E1
1.302477008E1,-4.330250861E0,-2.877612926E1,8.371652777E0,3.028037744E1
1.303471608E1,-5.334790231E0,-5.031254016E1,1.151404587E1,5.188819650E1
1.304466208E1,-2.127920621E0,-5.744322900E1,-4.383263180E0,5.764950651E1
1.305460808E1,6.400454347E-1,-4.939236149E1,-7.814023701E0,5.001073883E1
1.306455408E1,-3.315815956E0,-3.245614928E1,4.807770452E0,3.297743044E1
1.307450008E1,-6.370060812E0,-2.171112804E1,8.135271483E0,2.404440470E1
1.308444508E1,-5.144407813E0,-1.380686309E1,9.980334070E0,1.779610823E1
1.309439108E1,-4.672795664E0,-9.164847461E0,1.020277969E1,1.448882886E1
1.310433708E1,-4.341382498E0,-7.391907356E0,8.205777794E0,1.186687345E1
1.311428308E1,-3.366024242E0,-6.420056260E0,5.666056048E0,9.200621322E0
1.312422908E1,-3.374739225E0,-5.779611315E0,2.515725943E0,7.149940475E0
1.313417508E1,-3.218865027E0,-5.215021713E0,-2.521974277E0,6.627058004E0
1.314412008E1,-3.895322974E-1,-4.257261822E0,-6.171039133E0,7.507179072E0
1.315406608E1,2.898841652E0,-3.368377454E0,-6.106339692E0,7.552260194E0
1.316401208E1,5.108055089E0,-2.068325652E0,-4.461686329E0,7.090616524E0
1.317395808E1,5.945481620E0,-4.610517848E-1,-2.799636329E0,6.587813296E0
1.318390408E1,5.542790310E0,1.596124397E0,-1.712318512E0,6.016824095E0
1.319385008E1,4.396096357E0,3.823667393E0,-1.360138375E0,5.982981857E0
1.320379471E1,3.448205397E0,6.254150872E0,-1.221710222E0,7.245488213E0
1.321374071E1,3.243184182E0,8.526022194E0,-9.774287546E-1,9.174239209E0
1.322368671E1,3.123066292E0,1.048384600E1,-6.385954714E-1,1.095775406E1
1.323363271E1,2.961689280E0,1.161263811E1,-1.341725492E0,1.205923690E1
1.324357871E1,3.056499251E0,1.251929802E1,-4.152726470E0,1.353957709E1
1.325352371E1,4.768733563E0,1.417401093E1,-1.244036294E1,1.945266141E1
1.326346971E1,6.644487015E0,1.440241487E1,-1.424217777E1,2.131709148E1
1.327341571E1,6.978513887E0,1.306101448E1,-8.768871678E0,1.720996414E1
1.328336171E1,6.419511884E0,1.186540038E1,-5.115913746E0,1.442811258E1
1.329330771E1,5.079085059E0,1.089646880E1,-1.930426673E0,1.217607016E1
1.330325371E1,3.721613307E0,1.060711583E1,2.005139617E-1,1.124284295E1
1.331319871E1,2.431543287E0,1.048764552E1,1.400010538E0,1.085647921E1
1.332314471E1,1.425601170E0,9.710302050E0,2.349786494E0,1.009176898E1
1.333309071E1,4.503686294E-1,8.742419459E0,4.249097940E0,9.730753476E0
1.334303671E1,-5.149664752E-1,8.068094577E0,6.393938502E0,1.030736582E1
1.335298271E1,-1.098289825E0,8.198026725E0,8.046937011E0,1.153980407E1
1.336292871E1,-1.331880389E0,8.821472061E0,8.441873159E0,1.228240600E1
1.337287371E1,-1.152408729E0,9.568041632E0,7.540423125E0,1.223656191E1
1.338281971E1,-8.601816288E-1,1.018659577E1,6.097677627E0,1.190329023E1
1.339276571E1,-7.159604202E-1,1.043395872E1,4.828634486E0,1.151936652E1
1.340271171E1,-4.101515167E-1,1.052106001E1,3.807925519E0,1.119648270E1
1.341265771E1,4.092934469E-2,1.055552935E1,2.600224056E0,1.087115634E1
1.342260271E1,1.243787408E0,1.028548154E1,1.912318723E-1,1.036217677E1
1.343254871E1,1.836673002E0,1.002927526E1,-1.233693506E0,1.027042987E1
1.344249471E1,1.380392253E0,1.012782658E1,-1.152169286E0,1.028619696E1
1.345244071E1,-3.570187817E-1,1.012999940E1,-4.287400711E0,1.100573283E1
1.346238671E1,-4.335187665E0,9.063049191E0,-1.751699393E1,2.019350858E1
1.347233271E1,-5.901211765E0,6.423669840E0,-1.825499791E1,2.023197428E1
1.348227771E1,-2.364354978E0,5.542327795E0,-2.662925796E-1,6.031457833E0
1.349222371E1,-2.504640938E-1,4.275006952E0,7.490715945E0,8.628397422E0
1.350216971E1,-1.091675254E-1,-6.570679951E-1,6.223881590E0,6.259421535E0
1.351211571E1,1.166078789E0,-9.927826073E0,6.105718718E0,1.171329464E1
1.352206171E1,3.029365539E0,-3.248747632E1,1.597416164E1,3.632887300E1
1.353200771E1,-4.996007965E-1,-5.665258721E1,7.656262314E0,5.716977866E1
1.354195271E1,-1.378268982E0,-8.203938260E1,-3.694165132E1,8.998358475E1
1.355189871E1,7.965121016E-1,-8.361630650E1,-3.618190621E1,9.111230148E1
1.356184471E1,-2.163078467E0,-4.386625621E1,8.365365851E0,4.470913428E1
1.357179071E1,-3.038192203E0,-2.235220975E1,1.129381049E1,2.522701028E1
1.358173671E1,-2.004017098E0,-1.357085426E1,7.235407798E0,1.550920037E1
1.359168271E1,-1.545720959E0,-8.167027127E0,4.213196036E0,9.318830732E0
1.360162771E1,-8.119578141E-1,-4.338144017E0,2.238022960E0,4.948486211E0
1.361157371E1,-4.925253366E-1,-1.074407750E0,-2.289020840E-1,1.203880968E0
1.362151971E1,-5.270540587E-1,1.733350947E0,-2.043143449E0,2.730700760E0
1.363146571E1,-2.044925534E-1,4.258982073E0,-3.498387371E0,5.515383912E0
1.364141171E1,3.320453967E-1,5.931305630E0,-4.469179536E0,7.433989934E0
1.365135771E1,1.293406441E0,6.891756409E0,-4.075831491E0,8.110586229E0
1.366130271E1,1.975383575E0,7.250833338E0,-2.676544254E0,7.977506722E0
1.367124871E1,2.112375067E0,7.799488108E0,-9.652402335E-1,8.137925526E0
1.368119471E1,2.483820026E0,8.742905948E0,-6.688878492E-2,9.089127595E0
1.369114071E1,2.843922556E0,9.920878412E0,-1.322203978E0,1.040480405E1
1.370108671E1,5.855418711E0,1.169887519E1,-1.227669938E1,1.794065095E1
1.371103171E1,9.323026339E0,1.267358265E1,-2.611935795E1,3.049195594E1
1.372097771E1,5.439575844E0,1.031476908E1,-1.711222042E1,2.070776507E1
1.373092371E1,9.979779169E-1,9.791508180E0,-5.748687730E0,1.139811401E1
1.374086971E1,-1.219252710E0,1.041027750E1,2.955237170E0,1.089008179E1
1.375081571E1,-1.987951726E0,1.017628830E1,7.812629725E0,1.298252590E1
1.376076171E1,-2.092099554E0,1.003114871E1,8.929805764E0,1.359199235E1
1.377070671E1,-1.623004632E0,1.026984492E1,9.007856737E0,1.375664718E1
1.378065271E1,-7.721049464E-1,1.068054633E1,8.512017528E0,1.367935153E1
1.379059871E1,-4.304412454E-1,1.050775175E1,7.469049672E0,1.289902436E1
1.380054471E1,-7.619029438E-1,1.014418475E1,6.381696771E0,1.200878986E1
1.381049071E1,-1.088709089E0,9.906350420E0,5.077056659E0,1.118470252E1
1.382043671E1,-9.193221952E-1,9.776563867E0,3.807760627E0,1.053211258E1
1.383038171E1,-5.956090808E-1,9.745268984E0,2.996698022E0,1.021299255E1
1.384032771E1,-2.382144693E-1,9.680314019E0,2.298035274E0,9.952195324E0
1.385027371E1,1.173455051E-1,9.675977724E0,1.681594902E0,9.821714530E0
1.386021971E1,7.040515423E-1,9.695629631E0,8.682671586E-1,9.759857088E0
1.387016571E1,1.145351798E0,9.636290333E0,2.814908087E-1,9.708200616E0
1.388011171E1,1.328931200E0,9.582860815E0,9.704623818E-2,9.675055426E0
1.389005671E1,1.503184366E0,9.502461015E0,-2.208271158E-1,9.623154015E0
1.390000271E1,1.728053954E0,9.428938125E0,-8.134845221E-1,9.620436669E0
1.390994871E1,2.273540118E0,9.355835066E0,-2.273025563E0,9.892789276E0
1.391989471E1,4.340466532E0,9.260204439E0,-7.780237319E0,1.285002446E1
1.392984071E1,6.834565378E0,9.134282895E0,-1.382711901E1,1.792583689E1
1.393978571E1,7.343835642E0,9.141103672E0,-1.304947675E1,1.754367527E1
1.394973171E1,7.253241221E0,9.399620186E0,-1.058245578E1,1.590442511E1
1.395967771E1,6.874130563E0,9.923775122E0,-7.784889364E0,1.436452178E1
1.396962371E1,6.920370929E0,1.027270538E1,-6.673375769E0,1.406961100E1
1.397956971E1,5.744574798E0,9.525025420E0,-1.507529286E0,1.122492287E1
1.398951571E1,1.346417737E0,8.015663763E0,6.532421619E0,1.042766697E1
1.399946071E1,-1.166786814E0,6.431020374E0,5.553124094E0,8.576514544E0
1.400940671E1,-1.309905822E0,4.288319893E0,2.445305586E0,5.107353539E0
1.401935271E1,-5.048355601E0,-4.391393441E0,-9.427423697E0,1.156056003E1
1.402929871E1,-6.716659198E0,-1.167602310E1,-8.643998541E0,1.600505348E1
1.403924471E1,-4.130498572E0,-1.698416406E1,1.557748536E0,1.754848791E1
1.404919071E1,-6.745846159E0,-3.824829351E1,1.355584855E-1,3.883885649E1
1.405913571E1,-8.077495145E0,-6.237379771E1,-7.040110795E0,6.328743737E1
1.406908171E1,-6.405609545E0,-6.186370065E1,-7.393023589E-1,6.219884130E1
1.407902771E1,-1.188539187E0,-4.424776598E1,7.414035559E0,4.488034473E1
1.408897371E1,-7.289048401E-1,-2.731288226E1,4.355801147E0,2.766763168E1
1.409891971E1,-2.386321506E0,-1.774650065E1,4.389411235E0,1.843637021E1
1.410886571E1,-1.828323909E0,-1.327844086E1,6.177825412E0,1.475890534E1
1.411881071E1,-6.293300465E-1,-1.127007197E1,6.785871520E0,1.317036942E1
1.412875671E1,-5.923872650E-1,-1.021810291E1,4.375705361E0,1.113136771E1
1.413870271E1,-8.833162107E-1,-9.844764036E0,7.115408023E-1,9.909889846E0
1.414864871E1,-1.440293469E-2,-9.652626284E0,-1.615561273E0,9.786901442E0
1.415859471E1,2.286472405E0,-9.307138284E0,-2.056107895E0,9.801956885E0
1.416854071E1,4.027663298E0,-8.196146260E0,-2.925432158E0,9.589423261E0
1.417848571E1,4.885308332E0,-5.839461660E0,-4.373541892E0,8.780285796E0
1.418843171E1,5.168660894E0,-2.918153543E0,-4.835369017E0,7.655812764E0
1.419837771E1,4.850703340E0,9.243103087E-2,-4.384465075E0,6.539220166E0
1.420832371E1,4.227193393E0,2.839994397E0,-4.106884884E0,6.542265327E0
1.421826971E1,3.658932032E0,5.961315880E0,-3.611133968E0,7.871807872E0
1.422821571E1,3.420243427E0,9.039688395E0,-4.136554826E0,1.051309266E1
1.423816071E1,3.691661822E0,1.279510182E1,-9.419141700E0,1.631144470E1
1.424810671E1,3.701332532E0,1.753854209E1,-2.473896365E1,3.055023148E1
1.425805271E1,4.521044046E0,1.767817944E1,-2.587366731E1,3.166077269E1
1.426799871E1,5.479580154E0,1.450067616E1,-1.285994043E1,2.014133748E1
1.427794471E1,4.033028703E0,1.177800907E1,-2.097861693E0,1.262488977E1
1.428788971E1,1.846018168E0,9.793471676E0,5.888584703E0,1.157563391E1
1.429783571E1,8.037673268E-1,8.782103927E0,9.543604363E0,1.299429781E1
1.430778171E1,4.694706789E-1,8.169091778E0,9.408311487E0,1.246879257E1
1.431772771E1,9.865482183E-1,8.271660712E0,9.421913280E0,1.257641039E1
1.432767371E1,1.640934534E0,8.994672436E0,1.047096575E1,1.390100436E1
1.433761971E1,2.185862873E0,9.977941389E0,1.043272964E1,1.460065610E1
1.434756471E1,2.333425839E0,1.018666126E1,8.883928510E0,1.371630889E1
1.435751071E1,1.682974553E0,9.575605590E0,6.664940575E0,1.178753828E1
1.436745671E1,1.026220553E0,9.040086005E0,4.398054589E0,1.010540290E1
1.437740271E1,9.130737144E-1,8.872935160E0,2.540885342E0,9.274631005E0
1.438734871E1,8.629908505E-1,8.953884598E0,1.449934065E0,9.111482393E0
1.439729471E1,9.030335335E-1,9.094751624E0,6.060417560E-1,9.159544928E0
1.440723971E1,1.409877422E0,9.503486617E0,-1.085653773E0,9.668642942E0
1.441718571E1,2.114093125E0,9.668044222E0,-2.472410939E0,1.020065119E1
1.442713171E1,2.623313834E0,9.460840534E0,-2.977237319E0,1.025929925E1
1.443707771E1,2.780709769E0,9.141580220E0,-3.346442209E0,1.012420423E1
1.444702371E1,2.767010036E0,8.888964132E0,-4.049359392E0,1.015220860E1
1.445696971E1,2.537574941E0,8.853390841E0,-5.470299454E0,1.071195557E1
1.446691471E1,1.517248089E0,9.158486860E0,-6.624425218E0,1.140451370E1
1.447686071E1,5.783578212E-1,9.539083296E0,-6.346834502E0,1.147218009E1
1.448680671E1,5.162434340E-1,1.004233794E1,-4.603012362E0,1.105905880E1
1.449675271E1,1.125730370E0,9.943152795E0,-2.750159529E0,1.037771332E1
1.450669871E1,1.528388935E0,8.506780177E0,-7.297290051E-1,8.673741184E0
1.451664371E1,1.424643250E0,5.681024335E0,-2.033317788E0,6.199840894E0
1.452658971E1,4.351467191E-1,2.103751009E0,-4.991879100E0,5.434517266E0
1.453653571E1,-1.361984925E0,-1.358477765E0,-3.251526697E0,3.777947940E0
1.454648171E1,-3.519991371E0,-5.322409337E0,-1.386416054E0,6.529971659E0
1.455642771E1,-4.573503511E0,-9.453408723E0,6.878149939E-1,1.052411328E1
1.456637371E1,-5.068902717E0,-1.468918454E1,2.145505683E0,1.568659019E1
1.457631871E1,-6.449808063E0,-1.997899799E1,4.572431131E0,2.148644948E1
1.458626471E1,-8.269869125E0,-3.420828850E1,4.863145630E0,3.552812861E1
1.459621071E1,-1.004869621E1,-4.714874743E1,-2.537399232E0,4.827441428E1
1.460615671E1,-1.022262164E1,-5.124587740E1,-9.860350374E0,5.317770635E1
1.461610271E1,-7.299735357E0,-4.515514159E1,-1.767374579E0,4.577550176E1
1.462604871E1,-3.649073626E0,-3.251302397E1,3.523998760E0,3.290639806E1
1.463599371E1,-5.534608886E-2,-2.388872003E1,3.035417114E0,2.408085889E1
1.464593971E1,2.728259076E0,-1.880649794E1,4.237736800E0,1.947013547E1
1.465588571E1,5.018356462E0,-1.495930836E1,4.947271861E0,1.653603058E1
1.466583171E1,5.207982835E0,-1.242902870E1,3.534954103E0,1.393196828E1
1.467577771E1,4.444618599E0,-9.960196259E0,1.459527007E0,1.100410665E1
1.468572371E1,5.130183876E0,-7.007847614E0,-7.772352934E-1,8.719679437E0
1.469566871E1,6.599993797E0,-3.335618429E0,-3.187404376E0,8.052689928E0
1.470561471E1,7.188511959E0,-2.819673568E-1,-4.715076588E0,8.601520622E0
1.471556071E1,6.640410921E0,2.091817426E0,-4.521033813E0,8.301235094E0
1.472550671E1,5.516457374E0,4.566549125E0,-2.798858065E0,7.688841222E0
1.473545271E1,4.681796283E0,7.517319607E0,-1.992031183E0,9.077306800E0
1.474539871E1,4.563363854E0,1.161546349E1,-4.380294841E0,1.322612054E1
1.475534371E1,3.876777068E0,1.770164198E1,-2.100405933E1,2.774072886E1
1.476528971E1,1.939301577E0,1.917817035E1,-3.690367950E1,4.163465707E1
1.477523571E1,2.527968843E0,1.308833267E1,-2.185980402E1,2.560363471E1
1.478518171E1,1.764787040E0,9.484876683E0,-4.436727489E0,1.061894109E1
1.479512771E1,1.773129409E0,8.107120063E0,6.585659348E0,1.059435192E1
1.480507271E1,1.394673346E0,6.827969134E0,9.828445626E0,1.204842810E1
1.481501871E1,1.515536170E0,6.054335725E0,1.166335452E1,1.322821491E1
1.482496471E1,2.828173373E0,6.429764977E0,1.324449894E1,1.499190430E1
1.483491071E1,4.077568114E0,7.331406215E0,1.448277198E1,1.673698788E1
1.484485671E1,3.818937580E0,8.267707994E0,1.433341889E1,1.698193678E1
1.485480271E1,2.249313495E0,8.760440578E0,1.062476155E1,1.395314618E1
1.486474771E1,1.168637384E0,9.175454310E0,6.486301121E0,1.129720219E1
1.487469371E1,4.665279946E-1,9.363114849E0,4.187203993E0,1.026733877E1
1.488463971E1,1.306455088E-1,9.542803295E0,2.437773203E0,9.850121885E0
1.489458571E1,1.814557663E-1,9.795154504E0,1.100348922E0,9.858435256E0
1.490453171E1,5.114123914E-1,1.033983492E1,-4.796576981E-1,1.036358048E1
1.491447771E1,8.498017247E-1,1.066908696E1,-1.578359971E0,1.081863206E1
1.492442271E1,8.894272819E-1,1.031227115E1,-1.500809519E0,1.045879756E1
1.493436871E1,7.066917063E-1,1.001057587E1,-1.305556955E0,1.012005540E1
1.494431471E1,5.849844707E-1,9.730772567E0,-1.294330301E0,9.833892032E0
1.495426071E1,6.311111815E-1,9.415273182E0,-1.841822644E0,9.614467280E0
1.496420671E1,9.567112655E-1,9.029789643E0,-4.223702313E0,1.001459229E1
1.497415271E1,6.864810247E-1,8.564823148E0,-8.787760524E0,1.229032899E1
1.498409771E1,-2.431628218E-1,8.285177720E0,-1.098857648E1,1.376416038E1
1.499404371E1,-3.875988425E-1,8.104491740E0,-1.094454461E1,1.362409909E1
1.500398971E1,-2.349583011E-1,7.609187551E0,-1.096814748E1,1.335122465E1
1.501393571E1,-2.945450100E-1,7.164464700E0,-1.191971049E1,1.391027711E1
1.502388171E1,-4.140432042E-1,7.309666852E0,-1.219098855E1,1.422050854E1
1.503382771E1,-3.370441083E-2,7.575997585E0,-1.008928524E1,1.261707383E1
1.504377271E1,4.344992861E-1,7.304123107E0,-2.434368954E0,7.711365391E0
1.505371871E1,-4.827631177E-1,7.804824861E0,1.107320206E1,1.355596383E1
1.506366471E1,-1.978313469E0,6.538013896E0,1.155896301E1,1.342642826E1
1.507361071E1,-1.458227317E0,4.134608288E0,7.330642569E0,8.541646977E0
1.508355671E1,-1.553523338E0,2.100652569E0,5.949762951E0,6.498142439E0
1.509350171E1,-2.471899600E0,-1.653151122E0,5.372457994E0,6.140561958E0
1.510344771E1,-4.463220053E0,-1.045365916E1,5.104628620E0,1.246019889E1
1.511339371E1,-3.742523242E0,-1.933747657E1,7.986405466E0,2.125387383E1
1.512333971E1,-1.229842822E0,-3.515502522E1,-7.003631186E0,3.586696476E1
1.513328571E1,2.016984175E0,-5.906992440E1,-3.092273101E1,6.670486854E1
1.514323171E1,-4.133080410E0,-6.338121215E1,2.308030212E0,6.355774863E1
1.515317771E1,-4.307654589E0,-5.473340006E1,4.030909088E0,5.505042414E1
1.516312271E1,-2.248914569E0,-3.278736832E1,-3.477817451E0,3.304790995E1
1.517306871E1,-2.980454164E0,-1.915900084E1,-4.383561096E-1,1.939439549E1
1.518301471E1,-2.503322537E0,-1.373868572E1,2.921689939E0,1.426724855E1
1.519296071E1,-1.378226736E0,-1.045736629E1,5.449362913E0,1.187230285E1
1.520290633E1,-1.002544739E0,-8.090272481E0,5.717743095E0,9.957418886E0
1.521285133E1,-1.382842967E0,-6.653242051E0,3.611725706E0,7.695612194E0
1.522279733E1,-1.518014367E0,-4.407224193E0,1.584372224E0,4.923233495E0
1.523274333E1,-6.146809441E-1,-1.518041849E0,-8.343814476E-1,1.838063143E0
1.524268933E1,1.253828685E-1,1.180554594E0,-3.474341866E0,3.671577510E0
1.525263533E1,1.543122749E0,3.484545842E0,-3.900023843E0,5.452840867E0
1.526258133E1,2.371153828E0,4.961416276E0,-3.166637989E0,6.345519529E0
1.527252633E1,2.571463357E0,6.629028146E0,-1.813846056E0,7.338015772E0
1.528247233E1,2.337472989E0,8.470781209E0,-6.834225655E-2,8.787638188E0
1.529241833E1,2.305692641E0,9.507313619E0,-6.290317655E-2,9.783107258E0
1.530236433E1,2.731361901E0,9.742412619E0,-1.815745817E0,1.027968260E1
1.531231033E1,2.929873118E0,1.132333192E1,-7.721005610E0,1.401484676E1
1.532225633E1,3.886417957E0,1.489261034E1,-3.484777976E1,3.809543072E1
1.533220133E1,3.230269729E0,1.141771767E1,-2.410353503E1,2.686595095E1
1.534214733E1,1.720411643E0,8.913373919E0,-7.474370638E0,1.175900792E1
1.535209333E1,8.109094083E-1,9.140941705E0,3.289180427E0,9.748492047E0
1.536203933E1,9.394402716E-1,9.011440496E0,8.437906408E0,1.238090758E1
1.537198533E1,1.206377945E0,7.832814898E0,8.794489499E0,1.183855492E1
1.538193133E1,1.643056781E0,7.499837601E0,7.861981394E0,1.098899227E1
1.539187633E1,2.920739767E0,8.733799494E0,7.798491157E0,1.206757800E1
1.540182233E1,3.976541677E0,1.011351727E1,8.120958084E0,1.356635822E1
1.541176833E1,4.252011023E0,1.054820396E1,7.297845536E0,1.351305865E1
1.542171433E1,3.689413275E0,1.029711399E1,5.335970199E0,1.217024671E1
1.543166033E1,2.831486405E0,9.896983180E0,3.414633608E0,1.084561266E1
1.544160633E1,2.187653729E0,9.736133879E0,2.019751078E0,1.018123402E1
1.545155133E1,1.823753725E0,9.645204998E0,9.464256477E-1,9.861631640E0
1.546149733E1,2.467545471E0,9.755026233E0,-1.653508387E0,1.019722548E1
1.547144333E1,3.419053518E0,1.026959115E1,-3.979149535E0,1.153204493E1
1.548138933E1,3.497676934E0,1.050296171E1,-3.525876886E0,1.161799279E1
1.549133533E1,3.004978264E0,1.013418016E1,-1.965515814E0,1.075150010E1
1.550128033E1,2.260334620E0,9.507498976E0,-8.041313159E-1,9.805522757E0
1.551122633E1,1.779550821E0,9.167850006E0,-2.349411249E-2,9.338994958E0
1.552117233E1,1.491596792E0,9.234276715E0,5.946453866E-1,9.372850718E0
1.553111833E1,9.914552017E-1,9.416102902E0,9.292160495E-1,9.513643873E0
1.554106433E1,1.133962226E-1,9.683208976E0,1.135455678E0,9.750213042E0
1.555101033E1,-7.721737973E-1,1.005191101E1,7.642884616E-1,1.011045519E1
1.556095533E1,-1.411488769E0,1.006481932E1,-2.534310441E-1,1.016647017E1
1.557090133E1,-1.807386637E0,8.927861565E0,-1.418355592E0,9.218735877E0
1.558084733E1,-2.355225136E0,6.345414214E0,-4.687311670E0,8.232998097E0
1.559079333E1,-3.283794264E0,2.981120455E0,-9.866223317E0,1.081724302E1
1.560073933E1,-3.149127625E0,-6.304426986E-1,-8.650230503E0,9.227185408E0
1.561068533E1,-2.314816782E0,-6.202598895E0,-7.677999923E0,1.013816022E1
1.562063033E1,-2.239820979E0,-1.336838156E1,-6.357810895E0,1.497171276E1
1.563057633E1,-1.494930144E0,-1.861196458E1,-9.798147109E-1,1.869759553E1
1.564052233E1,-2.259098080E0,-2.775084105E1,3.695040343E0,2.808675891E1
1.565046833E1,-7.089554266E0,-4.551019388E1,3.864477157E0,4.622092286E1
1.566041433E1,-1.206581955E1,-5.937406381E1,-9.875023377E-1,6.059569800E1
1.567036033E1,-1.109985835E1,-5.815617767E1,-4.091993780E0,5.934721788E1
1.568030533E1,-5.373564872E0,-3.622578840E1,2.231437534E0,3.669008392E1
1.569025133E1,-2.521279628E0,-2.053295619E1,4.767882208E0,2.122950403E1
1.570019733E1,6.237414971E-1,-1.378956586E1,3.878989069E0,1.433833101E1
1.571014333E1,3.009973833E0,-1.012294766E1,4.399588898E0,1.144073399E1
1.572008933E1,3.868288665E0,-8.467048931E0,4.076963220E0,1.016249004E1
1.573003533E1,3.406650404E0,-7.774954360E0,2.112218946E0,8.747379674E0
1.573998033E1,3.981701260E0,-6.895162413E0,-9.128228688E-1,8.014390507E0
1.574992633E1,5.883157318E0,-5.047609497E0,-5.567446264E0,9.543917412E0
1.575987233E1,6.426515095E0,-2.660028793E0,-8.559367111E0,1.102898974E1
1.576981833E1,5.007823872E0,-4.365671539E-1,-7.347493075E0,8.902502193E0
1.577976433E1,3.130979622E0,1.610076438E0,-4.827619702E0,5.975055775E0
1.578971033E1,1.543423004E0,3.867013972E0,-3.044677350E0,5.158101569E0
1.579965533E1,6.051878433E-1,5.973544162E0,-2.082129759E0,6.354899410E0
1.580960133E1,4.676313642E-1,7.877023357E0,-2.537433731E0,8.288832607E0
1.581954733E1,1.089472224E-1,1.029492831E1,-5.780012434E0,1.180703020E1
1.582949333E1,-6.063846222E0,1.498378949E1,-3.237000108E1,3.618150285E1
1.583943933E1,-7.902262278E0,1.377029577E1,-2.961602332E1,3.360320866E1
1.584938533E1,-3.698884887E0,1.126390783E1,-9.546686431E0,1.522158306E1
1.585933033E1,-4.156785607E-1,1.124711931E1,4.575080212E0,1.214914978E1
1.586927633E1,1.503870537E0,1.144692802E1,1.189033876E1,1.657329006E1
1.587922233E1,2.539898917E0,1.036270572E1,1.149496056E1,1.568345863E1
1.588916833E1,2.704363844E0,9.923181045E0,9.526657963E0,1.401928378E1
1.589911433E1,3.588795850E0,1.056331550E1,7.789235015E0,1.360644230E1
1.590906033E1,4.341148902E0,1.116379999E1,6.100740398E0,1.344228543E1
1.591900533E1,4.319195238E0,1.104354733E1,4.663177872E0,1.274208040E1
1.592895133E1,3.670517120E0,1.073468102E1,3.519661295E0,1.187830325E1
1.593889733E1,2.975992447E0,1.048279934E1,2.512168497E0,1.118287099E1
1.594884333E1,2.467426772E0,1.037697877E1,1.567295870E0,1.078083020E1
1.595878933E1,2.210526867E0,1.032460877E1,8.402086365E-1,1.059197460E1
1.596873433E1,2.318701819E0,1.032263709E1,6.767450452E-2,1.058006590E1
1.597868033E1,3.219184285E0,1.038833173E1,-1.832629652E0,1.102901242E1
1.598862633E1,4.024593510E0,1.028597505E1,-2.697046931E0,1.136981520E1
1.599857233E1,4.334243048E0,1.013292769E1,-2.354601238E0,1.126969535E1
1.600851833E1,4.335237951E0,9.894750713E0,-1.856322570E0,1.096112737E1
1.601846433E1,4.220384603E0,9.512367368E0,-1.771359018E0,1.055625369E1
1.602840933E1,4.303810044E0,8.947450907E0,-2.489905808E0,1.023617553E1
1.603835533E1,4.637704477E0,8.062339162E0,-4.523544023E0,1.034273011E1
1.604830133E1,4.011874062E0,7.295704871E0,-8.256310601E0,1.172557495E1
1.605824733E1,2.947828163E0,7.819081542E0,-9.497651095E0,1.265041910E1
1.606819333E1,3.524609794E0,8.772353695E0,-7.423358359E0,1.202012117E1
1.607813933E1,4.858055044E0,9.445722558E0,-4.869598618E0,1.168483479E1
1.608808433E1,4.706626192E0,9.326278560E0,6.712262969E-1,1.046815870E1
1.609803033E1,1.348261802E0,8.776597604E0,6.174487821E0,1.081530283E1
1.610797633E1,-3.489562022E-1,7.287001875E0,5.293052806E0,9.013244408E0
1.611792233E1,3.572889961E-2,6.601821637E0,4.375352190E0,7.920166176E0
1.612786833E1,-2.045100220E-3,5.062890610E0,4.118819636E0,6.526679148E0
1.613781433E1,-1.334579318E0,-4.730894476E-1,2.358509517E0,2.750905800E0
1.614775933E1,-4.813848340E0,-1.247038255E1,-3.903346816E-1,1.337295547E1
1.615770533E1,-7.108044916E0,-2.158474866E1,-2.240543257E0,2.283518582E1
1.616765133E1,-1.208195435E1,-4.703742579E1,-3.021398298E1,5.719595977E1
1.617759733E1,-1.495177364E1,-6.209320620E1,-1.427389658E1,6.544360866E1
1.618754333E1,-1.366302158E1,-6.338154428E1,1.587843804E1,6.675345016E1
1.619748933E1,-8.256176115E0,-4.495137314E1,6.491777623E0,4.616203600E1
1.620743837E1,-6.754862566E0,-2.487999148E1,6.566095734E-1,2.578901472E1
1.621738437E1,-3.836652012E0,-1.596714147E1,1.978156325E0,1.654033276E1
1.622733037E1,-4.350547716E-1,-1.182616440E1,3.415371526E0,1.231715063E1
1.623727638E1,2.118210150E0,-9.950920236E0,4.162257432E0,1.099236165E1
1.624722237E1,4.096954558E0,-9.368995394E0,3.862810993E0,1.093089292E1
1.625716837E1,5.164238645E0,-9.545431618E0,2.665109439E0,1.117530464E1
1.626711337E1,5.741064130E0,-9.734699557E0,1.318927199E0,1.137821435E1
1.627705937E1,6.710281055E0,-8.661540772E0,-3.126319464E-1,1.096119971E1
1.628700537E1,7.820256833E0,-6.932041386E0,-2.401283069E0,1.072267574E1
1.629695137E1,7.885562630E0,-4.422143363E0,-4.145550767E0,9.946006288E0
1.630689737E1,6.286933286E0,-1.510190792E0,-4.729217495E0,8.010724342E0
1.631684337E1,4.793877760E0,1.566923987E0,-3.990964419E0,6.431509290E0
1.632678837E1,3.751662440E0,4.727686109E0,-3.177864643E0,6.820909815E0
1.633673437E1,2.295121752E0,8.164559017E0,-3.107030303E0,9.032233672E0
1.634668037E1,8.337188119E-1,1.211628920E1,-7.049763379E0,1.404274599E1
1.635662637E1,-7.740937306E-1,1.586062157E1,-1.949466961E1,2.514360119E1
1.636657238E1,-3.250268961E0,1.640632584E1,-2.399012010E1,2.924478822E1
1.637651837E1,-2.628252100E0,1.443394072E1,-1.370485373E1,2.007658760E1
1.638646337E1,-3.529819371E-1,1.299524032E1,-1.956494145E0,1.314643437E1
1.639640937E1,1.283602853E0,1.241010711E1,6.555528646E0,1.409373445E1
1.640635537E1,1.141672072E0,1.186832984E1,8.987880310E0,1.493126454E1
1.641630137E1,2.074470784E-1,1.101676708E1,9.267602921E0,1.439793926E1
1.642624737E1,-9.384664178E-2,1.057079877E1,8.442961911E0,1.352901326E1
1.643619337E1,2.840233840E-1,1.044924685E1,7.217082624E0,1.270250805E1
1.644613837E1,6.535101105E-1,1.034337015E1,6.465324819E0,1.221526940E1
1.645608437E1,1.141861668E0,1.018259511E1,5.032752306E0,1.141567724E1
1.646603037E1,1.657989839E0,9.840686188E0,3.419451714E0,1.054896606E1
1.647597637E1,2.138029141E0,9.570310351E0,2.422004431E0,1.010089671E1
1.648592237E1,2.367419212E0,9.436671653E0,1.713872702E0,9.878907088E0
1.649586838E1,2.389547561E0,9.400993112E0,9.747939992E-1,9.748786201E0
1.650581337E1,2.535877202E0,9.348535402E0,-1.910647881E-1,9.688255421E0
1.651575938E1,3.172612090E0,9.256660441E0,-2.238835723E0,1.003810816E1
1.652570537E1,3.914505642E0,9.181139558E0,-3.261380424E0,1.050015620E1
1.653565137E1,4.502108130E0,8.751996614E0,-4.070609928E0,1.065064728E1
1.654559737E1,4.761011145E0,8.257061968E0,-4.851271105E0,1.069491144E1
1.655554237E1,5.143020269E0,7.745499596E0,-6.018596374E0,1.107551009E1
1.656548837E1,5.301513142E0,7.220261756E0,-6.944273762E0,1.133407074E1
1.657543437E1,5.047365083E0,6.607456014E0,-7.809802011E0,1.140733872E1
1.658538037E1,4.078654527E0,5.906626872E0,-8.415580570E0,1.106099725E1
1.659532637E1,2.884120117E0,5.837802805E0,-7.452130169E0,9.896076722E0
1.660527237E1,2.561516658E0,7.273678994E0,-3.244743927E0,8.366369395E0
