"Time (s)","Linear Acceleration x (m/s^2)","Linear Acceleration y (m/s^2)","Linear Acceleration z (m/s^2)","Absolute acceleration (m/s^2)"
5.379833339E-3,-4.177439435E-1,2.602174687E-1,-1.328068736E0,1.416329658E0
1.532683335E-2,-5.984863494E-1,1.624488071E-1,-1.313341938E0,1.452392017E0
2.527283336E-2,-6.375827336E-1,1.305630630E-1,-9.427050644E-1,1.145535374E0
3.521883336E-2,-3.774602456E-1,2.342292264E-1,-5.663168693E-1,7.197599349E-1
4.516483337E-2,-4.381419553E-1,8.693757176E-2,-2.538171065E-1,5.137602923E-1
5.511083337E-2,-2.254043162E-2,-3.563205510E-2,-6.057329500E-1,6.071985846E-1
6.505783333E-2,5.256059226E-1,1.195001310E-1,2.057997715E-1,5.769708946E-1
7.500383334E-2,1.332375356E0,-4.796438840E-1,8.712959433E-1,1.662660208E0
8.494983334E-2,4.542135391E-1,-3.180180725E-1,9.567863292E-1,1.105841541E0
9.489583335E-2,1.302634663E-1,-5.697684807E-1,1.832616788E0,1.923561536E0
1.048428334E-1,9.795029081E-2,-9.264968750E-1,2.617682088E0,2.778533828E0
1.147888334E-1,3.816896463E-1,-1.082210274E0,3.401749268E0,3.590092498E0
1.247348334E-1,6.061755842E-1,-1.097160435E0,3.971632939E0,4.164742256E0
1.346808334E-1,7.479559457E-1,-1.055517735E0,4.040800822E0,4.242832435E0
1.446278333E-1,6.762686433E-1,-6.791511744E-1,3.852818686E0,3.970238963E0
1.545738333E-1,1.233611060E0,-1.008448818E0,2.528816105E0,2.988925586E0
1.645198333E-1,1.855658765E0,-9.080828235E-1,8.553938556E-1,2.236019345E0
1.744658333E-1,2.047734683E0,-5.627459747E-1,-2.188624513E-1,2.134900732E0
1.844118334E-1,2.351808608E0,-1.918225873E-1,-8.298526329E-1,2.501290672E0
1.943588334E-1,2.318982631E0,-4.342668593E-1,-9.576026005E-1,2.546226795E0
2.043048334E-1,2.166601852E0,-8.154573727E-1,-1.457016213E0,2.735330064E0
2.142508334E-1,2.378295325E0,-4.715457827E-1,-1.264846886E0,2.734681284E0
2.241968334E-1,2.213260294E0,-5.372898290E-1,-1.294679380E0,2.619808426E0
2.341438333E-1,1.166764521E0,3.785402629E-1,-2.304469550E-1,1.248093737E0
2.440898333E-1,1.664837367E0,-9.078094661E-2,2.737561119E-1,1.689635182E0
2.540358333E-1,1.808062575E0,-1.069206067E0,-6.161901104E-1,2.189059648E0
2.639818334E-1,1.500392320E0,-4.673992297E-1,-8.257022792E-1,1.775224890E0
2.739288334E-1,9.040209820E-1,1.191253245E-1,-1.547757983E-1,9.248785469E-1
2.838748334E-1,9.461645696E-1,1.242717513E-1,-2.325577998E-1,9.822189120E-1
2.938208334E-1,1.004617942E0,3.494819400E-1,-6.296270120E-1,1.236052187E0
3.037668334E-1,4.271757947E-1,7.031060475E-1,-8.359109330E-1,1.172853086E0
3.137138333E-1,-4.994695996E-1,1.123562661E0,-4.941370851E-1,1.325154478E0
3.236598333E-1,8.280494978E-1,1.348595971E-1,-2.131597204E0,2.290755273E0
3.336058334E-1,4.365754862E-1,5.443073648E-1,-3.223276459E0,3.297935687E0
3.435518334E-1,-2.919637567E-1,1.617439544E0,-2.551827822E0,3.035321852E0
3.534978334E-1,2.671073160E-1,1.632814506E0,-2.290326304E0,2.825424589E0
3.634448334E-1,5.883414303E-1,1.811867651E0,-1.836339126E0,2.645968898E0
3.733908334E-1,6.816043738E-1,1.911057186E0,-7.004987741E-1,2.146490769E0
3.833368333E-1,7.364010436E-1,1.740668737E0,-8.886013627E-3,1.890051087E0
3.932828333E-1,6.027812755E-1,1.711705432E0,8.266559601E-2,1.816621686E0
4.032298333E-1,6.867712659E-1,1.710353848E0,-9.193986475E-2,1.845377467E0
4.131758334E-1,8.476607667E-1,1.728874319E0,-6.748037696E-2,1.926678174E0
4.231208750E-1,8.490576665E-1,1.669030698E0,2.323244959E-1,1.886938542E0
4.330668750E-1,8.221303613E-1,1.541045672E0,5.568642604E-1,1.833253365E0
4.430138750E-1,7.505104481E-1,1.476958434E0,9.204569936E-1,1.895234346E0
4.529598751E-1,5.617030507E-1,1.259250516E0,1.254196182E0,1.863928712E0
4.629058750E-1,3.773977169E-1,1.119120531E0,1.514807169E0,1.920807267E0
4.728518750E-1,3.690672619E-1,1.120084444E0,1.612241077E0,1.997528748E0
4.827988750E-1,2.855424906E-1,1.116593657E0,1.476793835E0,1.873295476E0
4.927448750E-1,-3.564469971E-2,1.139009542E0,1.071257855E0,1.564035381E0
5.026908750E-1,-2.900227004E-1,1.152081578E0,5.186491978E-1,1.296303251E0
5.126368750E-1,-4.523889155E-1,1.324037957E0,1.248485792E-1,1.404748878E0
5.225838750E-1,-6.112466551E-1,1.515329033E0,-2.166153663E-1,1.648261741E0
5.325298750E-1,-5.798928615E-1,1.676261072E0,-5.261862588E-1,1.850134831E0
5.424758750E-1,-5.184188906E-1,1.864939904E0,-6.381861663E-1,2.038146357E0
5.524218750E-1,-6.218744811E-1,1.982741711E0,-6.727069581E-1,2.184153661E0
5.623688750E-1,-8.281226610E-1,1.943424741E0,-7.415818959E-1,2.238890478E0
5.723148750E-1,-1.100984514E0,1.823123541E0,-5.893543142E-1,2.209815570E0
5.822608750E-1,-1.202394530E0,1.738253545E0,-3.150596738E-2,2.113828427E0
5.922068750E-1,-1.040707103E0,1.640844487E0,4.951083076E-1,2.005136938E0
6.021528750E-1,-8.093720292E-1,1.676273644E0,8.128752422E-1,2.031192401E0
6.120998750E-1,-6.876113646E-1,1.768920144E0,7.570471966E-1,2.043283711E0
6.220458750E-1,-7.800523357E-1,1.831331570E0,4.350702667E-1,2.037533583E0
6.319918750E-1,-1.019740742E0,1.872656767E0,5.733194947E-2,2.133073252E0
6.419378750E-1,-9.006043808E-1,1.920554234E0,-1.081717354E-1,2.123986332E0
6.518848750E-1,-4.379573295E-1,1.946880445E0,-6.832646906E-2,1.996701930E0
6.618308750E-1,-5.099788003E-2,1.759769252E0,6.582339299E-1,1.879537313E0
6.717768750E-1,5.592350140E-3,1.318060057E0,1.974072044E0,2.373662576E0
6.817228750E-1,-1.970829617E-1,5.374000490E-1,3.038488657E0,3.091933671E0
6.916698750E-1,-4.992131261E-1,-3.745644486E-1,3.693519482E0,3.745877525E0
7.016158750E-1,-7.975961754E-1,-9.679135805E-1,4.025475855E0,4.216333978E0
7.115618750E-1,-7.986746943E-1,-1.220560074E0,3.709586461E0,3.986060696E0
7.215078750E-1,-6.037347371E-1,-1.277661936E0,3.010517916E0,3.325677943E0
7.314548750E-1,-4.318427499E-1,-1.299610629E0,2.271419917E0,2.652324337E0
7.414008750E-1,-4.021925426E-1,-1.320126463E0,1.811225334E0,2.277066080E0
7.513468750E-1,-4.171027963E-1,-1.436975466E0,1.515213550E0,2.129494150E0
7.612928750E-1,-3.805384026E-1,-1.414268389E0,1.211095771E0,1.900451925E0
7.712398750E-1,-3.808852156E-1,-1.326936422E0,7.858260226E-1,1.588507587E0
7.811858750E-1,-5.197993451E-1,-1.334753273E0,1.635507149E-1,1.441702637E0
7.911318750E-1,-6.732821779E-1,-1.329458034E0,-4.829899532E-1,1.566539770E0
8.010778750E-1,-7.332763647E-1,-1.342592927E0,-6.182728887E-1,1.650003442E0
8.110238750E-1,-5.957442977E-1,-1.433651909E0,-2.274713069E-1,1.569080068E0
8.209708750E-1,-3.348777880E-1,-1.379808408E0,-6.072976649E-2,1.421162369E0
8.309168750E-1,-3.519863024E-1,-8.211876440E-1,1.603727531E-1,9.077240350E-1
8.408628750E-1,-6.111611395E-1,-4.221979138E-1,1.287380301E0,1.486309879E0
8.508088751E-1,1.205473162E0,-2.541568590E0,-8.746539992E-1,2.945803126E0
8.607558750E-1,4.650416324E-1,-1.471973683E0,-1.829439411E0,2.393703992E0
8.707018750E-1,-1.373910029E-1,-4.752970639E-1,-1.254176302E0,1.348236546E0
8.806478750E-1,6.046269491E-1,-1.025801308E0,-2.308371397E0,2.597387259E0
8.905938750E-1,5.810890556E-1,-6.380785775E-1,-2.245646560E0,2.405771651E0
9.005408750E-1,6.327310795E-1,-7.611218289E-1,-1.782150639E0,2.038557323E0
9.104868750E-1,3.498539691E-1,-9.630434346E-1,-1.608446819E0,1.907079345E0
9.204328750E-1,2.015628060E-1,-1.131216081E0,-1.550493895E0,1.929846809E0
9.303788750E-1,3.985747240E-2,-1.265458505E0,-1.494959965E0,1.959050571E0
9.403258750E-1,4.312021874E-2,-1.242571041E0,-1.513480436E0,1.958689657E0
9.502718750E-1,2.502190223E-1,-1.111843671E0,-1.612576123E0,1.974641147E0
9.602178750E-1,2.373194068E-1,-1.124835892E0,-1.582851217E0,1.956270498E0
9.701638750E-1,1.084027735E-1,-1.102442225E0,-1.236896026E0,1.660434220E0
9.801108750E-1,-3.745274650E-1,-1.391814204E0,-1.037104268E0,1.775669694E0
9.900568750E-1,-5.600902424E-1,-1.037434636E0,-3.931492388E-1,1.242794443E0
1.000002875E0,6.248184080E-1,-2.201657957E0,-1.193095118E0,2.580924594E0
1.009948875E0,5.043830880E-1,-1.436446585E0,-1.645657915E0,2.241867763E0
1.019895875E0,1.831223689E-1,-8.011685318E-1,-9.481938457E-1,1.254781410E0
1.029841875E0,3.712494428E-1,-1.171653086E0,-1.504097993E0,1.942397456E0
1.039787875E0,1.351841906E-1,-9.724518970E-1,-1.184686237E0,1.538641913E0
1.049733875E0,4.974032667E-1,-8.098764977E-1,-8.039769495E-1,1.244865007E0
1.059679875E0,6.909624039E-1,-4.041031203E-1,-4.809837735E-1,9.338488988E-1
1.069626875E0,4.077368724E-1,1.256274283E-2,2.817492557E-1,4.957719463E-1
1.079572875E0,1.160044535E0,-7.459263772E-1,-4.002091670E-1,1.436062973E0
1.089518875E0,8.956956433E-1,-1.449203163E0,-1.672710643E0,2.387555526E0
1.099464875E0,5.697069387E-1,-5.751876801E-1,-1.913415953E0,2.077635067E0
1.109411875E0,3.146869869E-1,2.022113353E-1,-1.031023749E0,1.096780422E0
1.119357875E0,1.274897957E0,-5.912412107E-2,-8.214735729E-1,1.517787631E0
1.129303875E0,1.533032209E0,2.142770648E-1,-2.893044430E-1,1.574737907E0
1.139249875E0,1.578538019E0,3.072776145E-1,1.370417780E-1,1.613995743E0
1.149196875E0,1.309816360E0,2.885864049E-1,1.523644066E-1,1.349857741E0
1.159142875E0,8.671255629E-1,2.409386140E-1,1.387731385E-1,9.106130580E-1
1.169088875E0,2.693141649E-1,6.333791703E-1,5.519713104E-1,8.822537165E-1
1.179034875E0,2.956528016E-1,7.066360116E-1,1.390626926E0,1.587636067E0
1.188981875E0,1.237985362E0,-2.208054811E-1,4.211766976E-1,1.326179711E0
1.198927875E0,4.346493768E-1,3.536191374E-1,1.966652513E-2,5.606722281E-1
1.208873875E0,1.472263851E0,1.238112831E-1,-2.543766850E-1,1.499198979E0
1.218819875E0,2.789601338E0,-1.909466743E-1,-5.329175735E-1,2.846460503E0
1.228766875E0,3.311936328E0,-1.673391259E-1,-1.676759255E-1,3.320397543E0
1.238712875E0,2.612402345E0,5.902275959E-1,1.974309441E0,3.327298062E0
1.248658875E0,3.208243852E0,-1.270363149E-1,3.356107072E0,4.644612096E0
1.258604875E0,2.751055323E0,-1.893278727E-1,4.290821332E0,5.100519398E0
1.268550875E0,2.717312796E0,-1.353841800E0,4.371348601E0,5.322157931E0
1.278497875E0,1.683640258E0,-1.038517540E0,4.006816805E0,4.468528182E0
1.288443875E0,7.887065072E-1,-1.086936871E0,3.211380299E0,3.480869595E0
1.298389875E0,-2.994216610E-2,-7.299818972E-1,2.526873659E0,2.630372710E0
1.308335875E0,-9.132369979E-1,3.810308844E-1,2.741013315E0,2.914162031E0
1.318282875E0,2.803060532E-1,-3.882133117E-1,1.838960432E0,1.900278014E0
1.328228875E0,1.787290634E0,-1.833883295E0,7.877433246E-1,2.679193031E0
1.338174875E0,1.714254818E0,-1.026997648E0,3.684891915E-1,2.032037902E0
1.348120875E0,6.384756035E-1,6.799516582E-1,1.415995656E0,1.695591063E0
1.358067875E0,2.000043915E0,3.513913482E-1,1.683202887E0,2.637579098E0
1.368013875E0,2.399334776E0,3.728003436E-1,2.141350944E0,3.237463719E0
1.377959875E0,2.178678253E0,4.098664284E-1,2.789121282E0,3.562839730E0
1.387905875E0,2.085797718E0,4.143831101E-1,2.722154875E0,3.454329550E0
1.397852875E0,1.749504465E0,4.055602464E-1,1.839545154E0,2.570830869E0
1.407798875E0,1.033740365E0,4.298992816E-1,6.800574929E-1,1.309927757E0
1.417745958E0,3.621012546E-1,3.830142599E-1,-6.083402234E-1,8.049192937E-1
1.427691958E0,-1.065402891E-1,2.864349219E-1,-1.640031139E0,1.668261950E0
1.437638958E0,-3.587695477E-1,2.759795156E-1,-2.328303970E0,2.371893686E0
1.447584958E0,-3.338204287E-1,3.172237283E-1,-2.860140393E0,2.896976017E0
1.457530958E0,-3.960630891E-1,6.455428407E-1,-2.798075123E0,2.898761101E0
1.467476958E0,-3.393312467E-1,8.065140563E-1,-2.145834004E0,2.317372260E0
1.477423958E0,5.292560105E-1,1.686284369E-1,-2.555465959E0,2.615139335E0
1.487369958E0,7.470798866E-1,-6.481062600E-1,-3.463885875E0,3.602315288E0
1.497315958E0,-3.144807629E-1,1.036371027E0,-3.358317904E0,3.528634609E0
1.507261958E0,-4.656181678E-2,1.213643403E0,-3.376563556E0,3.588353350E0
1.517207958E0,1.524474736E-1,1.101793769E0,-3.543302173E0,3.713782443E0
1.527154958E0,-1.890784524E-1,1.293981515E0,-3.023350216E0,3.294053027E0
1.537100958E0,-2.401155453E-1,1.128406494E0,-2.439958307E0,2.698954100E0
1.547046958E0,-3.781828518E-1,1.228898496E0,-1.753895139E0,2.174709623E0
1.556992958E0,-2.731021373E-1,1.310701628E0,-1.368634964E0,1.914597921E0
1.566939958E0,-4.128697045E-2,1.606625704E0,-1.264028276E0,2.044680476E0
1.576885958E0,1.797485620E-1,1.890806524E0,-1.043725070E0,2.167215005E0
1.586831958E0,4.776969805E-1,1.923318505E0,-4.085601604E-1,2.023430226E0
1.596777958E0,8.995168718E-1,1.873579165E0,3.613444787E-1,2.109502150E0
1.606724958E0,1.267873551E0,1.803811065E0,1.231824735E0,2.525594955E0
1.616670958E0,1.488963060E0,1.762230345E0,1.727483266E0,2.882128592E0
1.626616958E0,1.478653542E0,1.752406730E0,2.022053711E0,3.057130494E0
1.636562958E0,1.294170088E0,1.564558788E0,1.985330274E0,2.839763496E0
1.646509958E0,9.173277830E-1,1.301684929E0,1.496130577E0,2.185012728E0
1.656455958E0,3.769108631E-1,1.204836327E0,9.612723130E-1,1.586737796E0
1.666401958E0,-1.653610859E-1,1.133706118E0,3.960675842E-1,1.212230746E0
1.676347958E0,-6.051839695E-1,1.041296137E0,-2.347709709E-1,1.227054477E0
1.686294958E0,-6.175440332E-1,1.124472195E0,-5.856442559E-1,1.410240244E0
1.696240958E0,-2.397145725E-1,1.162063944E0,-5.844455767E-1,1.322661075E0
1.706186958E0,1.884454548E-1,1.071014026E0,-4.098886478E-1,1.162149490E0
1.716132958E0,4.166541687E-1,1.019094844E0,5.784416556E-2,1.102497594E0
1.726078958E0,7.185081983E-1,9.230087185E-1,6.113509548E-1,1.319829199E0
1.736025958E0,1.108214597E0,9.588147283E-1,1.239381092E0,1.919252658E0
1.745971958E0,1.528691382E0,1.028035821E0,1.803226928E0,2.577863912E0
1.755917958E0,1.858713496E0,9.422425497E-1,2.028139493E0,2.907917930E0
1.765863958E0,1.707465323E0,9.751132572E-1,1.827155489E0,2.684172288E0
1.775810958E0,1.072243330E0,8.498501104E-1,1.130167383E0,1.774606796E0
1.785756958E0,9.637877852E-2,7.011881608E-1,2.056418967E-1,7.370497239E-1
1.795702958E0,-7.679010907E-1,6.441824859E-1,-7.580406386E-1,1.256689608E0
1.805648958E0,-1.321296198E0,5.240070015E-1,-1.005804707E0,1.741278292E0
1.815595958E0,-1.092604431E0,3.636307400E-1,-3.877972823E-1,1.215071393E0
1.825541958E0,-1.485116762E-1,3.007527065E-1,9.087684095E-1,9.686939303E-1
1.835487958E0,8.490931883E-1,2.230397022E-1,2.412245429E0,2.567028235E0
1.845433958E0,1.722527751E0,-1.530356669E-1,3.761191063E0,4.139695638E0
1.855380958E0,2.380428389E0,-5.573413932E-1,4.549935431E0,5.165170004E0
1.865326958E0,2.734589271E0,-4.786267608E-1,4.079925712E0,4.934861282E0
1.875272958E0,2.767129026E0,-1.656907958E-1,2.617730035E0,3.812737471E0
1.885218958E0,2.458036436E0,-1.666895002E-1,1.187112831E0,2.734769713E0
1.895164958E0,2.045916052E0,-3.655024338E-1,3.725951064E-1,2.111443022E0
1.905111958E0,1.802994794E0,-6.860807097E-1,4.153686583E-2,1.929565308E0
1.915057958E0,1.707403635E0,-9.628077918E-1,8.746323645E-2,1.962110047E0
1.925003958E0,1.652621364E0,-1.365240655E0,8.571158606E-1,2.308611491E0
1.934949958E0,1.341233742E0,-1.981091627E0,2.186684992E0,3.241176212E0
1.944896958E0,1.204233917E0,-2.339488817E0,2.698792325E0,3.769199817E0
1.954842958E0,1.022873315E0,-2.502927265E0,2.323613334E0,3.565121826E0
1.964788958E0,5.813593066E-1,-2.506397295E0,1.439485091E0,2.948240725E0
1.974734958E0,3.481678879E-1,-2.358659205E0,8.232177973E-2,2.385638489E0
1.984681958E0,4.097400920E-1,-2.143278186E0,-1.171796050E0,2.476819394E0
1.994627958E0,5.068188918E-1,-1.930112970E0,-2.208728995E0,2.976690316E0
2.004573958E0,5.733779669E-1,-1.839000778E0,-2.966845647E0,3.537352011E0
2.014519958E0,6.964133245E-1,-1.789261731E0,-3.224183362E0,3.752573439E0
2.024466958E0,7.446663753E-1,-1.668698868E0,-2.988565714E0,3.502942899E0
2.034412958E0,8.934961400E-1,-1.568097523E0,-2.648965861E0,3.205352606E0
2.044358958E0,9.204144551E-1,-1.551606913E0,-2.211540921E0,2.854042751E0
2.054304958E0,9.551463313E-1,-1.502333011E0,-2.115220322E0,2.764681899E0
2.064251958E0,8.459328414E-1,-1.269580499E0,-2.505740653E0,2.933627999E0
2.074197958E0,6.040744603E-1,-1.030774657E0,-2.857713214E0,3.097406522E0
2.084143958E0,3.663396089E-1,-8.883598727E-1,-2.953768349E0,3.106144786E0
2.094089958E0,-4.162101092E-2,-8.398320758E-1,-2.778760015E0,2.903197797E0
2.104036958E0,-4.247358978E-1,-6.861011750E-1,-2.644404448E0,2.764780333E0
2.113982958E0,-6.197892179E-1,-4.613672420E-1,-2.574506248E0,2.687951046E0
2.123928958E0,-5.431413204E-1,-1.551544055E-1,-2.323870026E0,2.391536595E0
2.133874958E0,-4.266188839E-1,9.988272250E-2,-1.888096924E0,1.938269905E0
2.143820958E0,-4.765769828E-1,2.467405137E-1,-1.355728405E0,1.458082991E0
2.153767958E0,-5.976673738E-1,3.410657501E-1,-6.549881405E-1,9.500218944E-1
2.163713958E0,-8.292698848E-1,4.472380301E-1,-1.964921737E-1,9.624549712E-1
2.173659958E0,-1.120670189E0,5.433981228E-1,-8.554885805E-2,1.248399696E0
2.183605958E0,-1.292929747E0,7.050356287E-1,-4.725953579E-2,1.473423236E0
2.193552958E0,-1.471550637E0,8.777711499E-1,-2.690806782E-1,1.734458959E0
2.203498958E0,-1.496238605E0,1.127746051E0,-5.341209304E-1,1.948288040E0
2.213444958E0,-1.126232134E0,1.302634517E0,-5.601135582E-1,1.810796151E0
2.223390958E0,-3.241007117E-1,1.487226437E0,-5.014262241E-1,1.602595397E0
2.233337958E0,6.425378104E-1,1.850848407E0,-4.404175454E-1,2.008099170E0
2.243283958E0,1.270912349E0,2.003166620E0,-5.684709835E-1,2.439478216E0
2.253229958E0,1.484747803E0,1.872129933E0,-5.849349886E-1,2.459978753E0
2.263175958E0,1.459395153E0,1.753129154E0,-4.208703035E-1,2.319574930E0
2.273122958E0,1.552231980E0,1.675292189E0,-5.600580096E-2,2.284549121E0
2.283068958E0,1.591514598E0,1.475795715E0,6.046155471E-1,2.253098238E0
2.293014958E0,1.534497668E0,1.330871891E0,1.212530678E0,2.365614873E0
2.302960958E0,1.360561713E0,1.235150924E0,1.590915697E0,2.430584032E0
2.312906958E0,9.723909397E-1,1.223725172E0,1.901865363E0,2.461735018E0
2.322853958E0,4.446830162E-1,1.123706794E0,1.768019089E0,2.141576859E0
2.332799958E0,-2.593960080E-2,1.108788208E0,1.174551843E0,1.615443031E0
2.342745958E0,-1.455853640E-1,1.234339623E0,5.778563493E-1,1.370659463E0
2.352691958E0,4.241581198E-2,1.293491226E0,4.388768041E-1,1.366576563E0
2.362638958E0,6.091302188E-1,1.298611633E0,7.653590137E-1,1.625794026E0
2.372584958E0,1.400863501E0,1.377966535E0,1.208697243E0,2.306980569E0
2.382530958E0,2.060661561E0,1.379072244E0,1.178811539E0,2.745498674E0
2.392476958E0,2.365519305E0,1.296622117E0,8.874155474E-1,2.839791692E0
2.402423958E0,2.308881274E0,1.023392840E0,9.146893001E-1,2.686060714E0
2.412369958E0,2.281753263E0,5.720480177E-1,1.532465175E0,2.807505370E0
2.422315750E0,2.292495329E0,1.376721078E-1,2.484553851E0,3.383414885E0
2.432261750E0,2.141505603E0,-3.567509061E-1,3.400921302E0,4.034796545E0
2.442208750E0,1.931154505E0,-9.284001437E-1,3.993453578E0,4.531992501E0
2.452154750E0,1.707542653E0,-1.455174925E0,4.156486815E0,4.723305899E0
2.462100750E0,1.245568616E0,-1.437263734E0,3.621037982E0,4.090120326E0
2.472046750E0,1.135323165E0,-1.336493404E0,2.250373449E0,2.852955305E0
2.481993750E0,1.331529995E0,-1.265830680E0,4.529440355E-1,1.892209750E0
2.491939750E0,1.451154818E0,-9.539735261E-1,-1.187691706E0,2.103931411E0
2.501885750E0,1.659038537E0,-6.546434471E-1,-2.328667667E0,2.933199620E0
2.511831750E0,1.883311563E0,-6.260470542E-1,-2.688536893E0,3.341710338E0
2.521778750E0,1.946716577E0,-6.968834406E-1,-2.348352318E0,3.128915239E0
2.531724750E0,1.879288679E0,-8.194299710E-1,-1.744193439E0,2.691728472E0
2.541670750E0,1.829679293E0,-9.688356864E-1,-8.554453111E-1,2.240124011E0
2.551616750E0,1.861242563E0,-1.040319944E0,2.229496551E-1,2.143874067E0
2.561562750E0,1.694304264E0,-8.339921692E-1,9.728755277E-1,2.124310869E0
2.571509750E0,1.285529657E0,-5.068807992E-1,9.381892598E-1,1.670243614E0
2.581455750E0,1.999284069E0,-1.071394387E0,6.521095562E-1,2.360141859E0
2.591401750E0,1.755319959E0,-7.388760969E-1,2.989248669E-1,1.927807595E0
2.601347750E0,1.260187093E0,-2.306147701E-1,-2.215621108E-1,1.300132475E0
2.611294750E0,1.014101541E0,1.045341825E-1,-1.029498210E0,1.448860205E0
2.621240750E0,8.184498315E-1,1.237598276E-1,-1.892179450E0,2.065313461E0
2.631186750E0,3.979329190E-1,2.193708667E-1,-2.704381093E0,2.742289424E0
2.641132750E0,-1.334407885E-1,5.376821771E-1,-3.323526971E0,3.369382747E0
2.651079750E0,6.139387314E-2,5.339770889E-1,-3.614426535E0,3.654172945E0
2.661025750E0,8.420970862E-2,6.824425721E-1,-3.362996262E0,3.432573815E0
2.670971750E0,1.688681545E-1,6.864701343E-1,-2.887183181E0,2.972471097E0
2.680917750E0,5.201286165E-1,7.033273646E-1,-2.452358497E0,2.603702241E0
2.690864750E0,7.223900186E-1,7.145098722E-1,-2.166208627E0,2.392662014E0
2.700810750E0,6.724178132E-1,7.704107156E-1,-1.857361035E0,2.120251967E0
2.710756750E0,6.249463890E-1,8.516469598E-1,-1.423988800E0,1.773021330E0
2.720702750E0,5.080411061E-1,7.601409584E-1,-1.449498448E0,1.713757799E0
2.730648750E0,3.828419498E-1,6.978684041E-1,-1.605291662E0,1.791800655E0
2.740595750E0,2.359527298E-1,7.261616188E-1,-1.577777004E0,1.752816208E0
2.750541750E0,9.760468382E-2,8.577999848E-1,-1.459060984E0,1.695348473E0
2.760487750E0,-8.417719262E-2,1.231951912E0,-1.022334786E0,1.603109394E0
2.770433750E0,4.928528173E-1,9.475763798E-1,-4.267064095E-1,1.150166620E0
2.780380750E0,1.027144559E0,6.241309217E-1,2.567904156E-1,1.229026717E0
2.790326750E0,1.220121168E0,2.465838084E-1,1.184572216E0,1.718345301E0
2.800272750E0,1.409361990E0,-3.131417871E-2,2.235368909E0,2.642755372E0
2.810218750E0,2.359878862E-1,6.789792663E-1,2.717407520E0,2.810872953E0
2.820165750E0,-3.010554461E-1,5.307660905E-1,2.682882636E0,2.751400782E0
2.830111750E0,-2.779655590E-1,2.546292847E-1,2.423966757E0,2.453103293E0
2.840057750E0,-5.039347162E-1,4.783189049E-1,1.564860504E0,1.712170427E0
2.850003750E0,-4.367017130E-1,7.450484177E-1,4.910123330E-1,9.934277236E-1
2.859950750E0,-4.221259931E-1,1.037576138E0,-3.763659757E-1,1.181696215E0
2.869896750E0,-4.525707639E-1,1.225826077E0,-1.136622709E0,1.731872123E0
2.879842750E0,-2.600924480E-1,1.369130515E0,-1.673239231E0,2.177589487E0
2.889788750E0,9.702851381E-2,1.415874327E0,-1.600006363E0,2.138722751E0
2.899734750E0,5.758788210E-1,1.414875622E0,-9.816954678E-1,1.815829131E0
2.909681750E0,9.782929730E-1,1.403144061E0,-3.385438460E-1,1.743697890E0
2.919627750E0,1.120120478E0,1.324673257E0,3.030073929E-1,1.761034527E0
2.929573750E0,1.073376374E0,1.214324896E0,9.776860321E-1,1.892773566E0
2.939519750E0,9.393755867E-1,9.996563601E-1,1.327740707E0,1.909092642E0
2.949466750E0,5.729394988E-1,9.069198123E-1,1.095692784E0,1.533396848E0
2.959412750E0,1.726919594E-1,8.550819066E-1,2.542053616E-1,9.086297077E-1
2.969358750E0,6.061808467E-3,7.754103774E-1,-5.555731952E-1,9.539180123E-1
2.979304750E0,3.614865661E-2,6.157372436E-1,-5.956196058E-1,8.574390901E-1
2.989251750E0,2.836291355E-1,2.301297435E-1,4.401836568E-1,5.719849972E-1
2.999197750E0,5.782761429E-1,-3.323267940E-1,2.415024025E0,2.505431188E0
3.009143750E0,7.331279916E-1,-1.068803778E0,4.442974069E0,4.628156949E0
3.019089750E0,7.032599755E-1,-1.720546422E0,5.658002678E0,5.955488971E0
3.029036750E0,6.736600542E-1,-1.989917414E0,5.839677422E0,6.206079405E0
3.038982750E0,6.175380398E-1,-2.032335455E0,5.262998117E0,5.675463841E0
3.048928750E0,4.332515999E-1,-2.124800692E0,3.974326167E0,4.527444468E0
3.058874750E0,3.706249967E-1,-2.061240289E0,2.372921149E0,3.164937471E0
3.068821750E0,5.635643656E-1,-1.834556602E0,9.805657858E-1,2.155159386E0
3.078767750E0,7.443907522E-1,-1.652936529E0,-5.349617600E-2,1.813609275E0
3.088713750E0,8.158706246E-1,-1.603770801E0,-7.953359342E-1,1.967303969E0
3.098659750E0,8.270715509E-1,-1.524452443E0,-1.131609891E0,2.070879897E0
3.108606750E0,8.382115200E-1,-1.464642152E0,-1.212065240E0,2.077709635E0
3.118552750E0,7.331468488E-1,-1.409966300E0,-1.201308117E0,1.992147198E0
3.128498750E0,4.718059472E-1,-1.307505832E0,-1.142127278E0,1.799062832E0
3.138444750E0,2.112013197E-1,-1.213077100E0,-1.124982657E0,1.667857316E0
3.148390750E0,-1.299931057E-2,-1.085309591E0,-1.158590114E0,1.587575807E0
3.158337750E0,-2.110934751E-1,-9.347174755E-1,-1.211025605E0,1.544292793E0
3.168283750E0,-3.488869127E-1,-7.452559939E-1,-1.057988183E0,1.340323681E0
3.178229750E0,-3.198009251E-1,-5.673930493E-1,-8.730647260E-1,1.089242636E0
3.188175750E0,-1.931184764E-1,-3.911863285E-1,-1.066038045E0,1.151850079E0
3.198122750E0,-1.701961485E-1,-2.126614791E-1,-1.275430931E0,1.304191586E0
3.208068750E0,-2.653810352E-1,-1.123650661E-1,-1.363674771E0,1.393794060E0
3.218014750E0,-2.123504803E-1,-7.333256274E-2,-1.455634516E0,1.472868709E0
3.227960750E0,-2.105048798E-2,6.570984006E-2,-1.460668384E0,1.462297177E0
3.237907750E0,1.792672631E-1,1.602265728E-1,-1.322676433E0,1.344351983E0
3.247853750E0,3.077459034E-1,2.444367108E-1,-1.171918257E0,1.236061992E0
3.257799750E0,4.818487959E-1,3.446275815E-1,-1.171339967E0,1.312624756E0
3.267745750E0,6.630127130E-1,5.225691712E-1,-1.442278891E0,1.671177069E0
3.277692750E0,8.305078134E-1,6.898509943E-1,-1.709438174E0,2.021834932E0
3.287638750E0,9.915362587E-1,8.538633469E-1,-1.779830464E0,2.209077465E0
3.297584750E0,1.047569322E0,9.582019401E-1,-1.763585730E0,2.264020112E0
3.307530750E0,9.322131130E-1,1.085637912E0,-1.705491888E0,2.226282449E0
3.317476750E0,7.446948074E-1,1.189374827E0,-1.600761824E0,2.128760496E0
3.327423750E0,5.438789466E-1,1.148199611E0,-1.502681798E0,1.967795528E0
3.337369750E0,2.820795137E-1,1.178060172E0,-1.296117210E0,1.774067204E0
3.347315750E0,3.455554616E-2,1.221175494E0,-1.006997539E0,1.583195413E0
3.357261750E0,-1.849236402E-1,1.103053552E0,-7.043345475E-1,1.321745454E0
3.367208750E0,-4.393124948E-1,9.418092710E-1,-4.008605468E-1,1.113862356E0
3.377154750E0,-6.470814624E-1,8.155711010E-1,-7.614828944E-3,1.041118929E0
3.387100750E0,-5.351999244E-1,7.482915759E-1,3.088417447E-1,9.704444677E-1
3.397046750E0,-2.944398698E-1,6.547855344E-1,5.825159955E-1,9.245343791E-1
3.406993750E0,-1.012535657E-1,5.926243696E-1,9.023101598E-1,1.084259910E0
3.416939375E0,1.711724874E-1,4.779496533E-1,1.146659455E0,1.254019057E0
3.426885375E0,3.942429240E-1,3.195982826E-1,1.420656472E0,1.508587205E0
3.436831375E0,5.213802495E-1,1.922175667E-1,1.640583116E0,1.732136807E0
3.446778375E0,5.101015187E-1,9.700267643E-2,1.597986150E0,1.680229989E0
3.456724375E0,4.600728147E-1,7.756887048E-2,1.358415200E0,1.436306298E0
3.466670375E0,4.939540672E-1,9.003221065E-2,1.098485414E0,1.207794115E0
3.476616375E0,5.026385346E-1,1.223263827E-1,1.011168358E0,1.135812788E0
3.486563375E0,4.957654981E-1,1.331551337E-1,1.024467266E0,1.145882584E0
3.496509375E0,6.034970478E-1,1.244141310E-1,8.383562386E-1,1.040446416E0
3.506455375E0,6.435797842E-1,2.654393247E-1,4.390036887E-1,8.230292901E-1
3.516401375E0,7.257143068E-1,4.506352624E-1,2.100161988E-1,8.796818735E-1
3.526347375E0,9.016128793E-1,5.483542228E-1,2.368812311E-1,1.081531717E0
3.536294375E0,1.050952010E0,5.948422185E-1,2.666026282E-1,1.236694931E0
3.546240375E0,1.099106389E0,6.128583670E-1,1.959530604E-1,1.273588565E0
3.556186375E0,1.261754440E0,6.754250363E-1,-1.233423364E-1,1.436466699E0
3.566132375E0,1.479687330E0,7.157506514E-1,-6.845557559E-1,1.780558949E0
3.576079375E0,1.666325483E0,8.008390412E-1,-1.103412863E0,2.153022000E0
3.586025375E0,1.848796911E0,7.394450310E-1,-1.158411773E0,2.303637734E0
3.595971375E0,1.935862244E0,4.673828575E-1,-4.217836386E-1,2.035659795E0
3.605917375E0,1.834985057E0,-4.591409147E-2,1.003005061E0,2.091721161E0
3.615864375E0,1.532750373E0,-6.646357539E-1,2.341966574E0,2.876781505E0
3.625810375E0,1.020578063E0,-1.177583624E0,3.288068871E0,3.638637063E0
3.635756375E0,4.906673108E-1,-1.438712381E0,3.655127833E0,3.958611778E0
3.645702375E0,2.469433025E-1,-1.508721679E0,3.194904014E0,3.541840448E0
3.655649375E0,2.891849040E-1,-1.414427141E0,2.026809837E0,2.488411172E0
3.665595375E0,4.520407138E-1,-1.167287847E0,7.025681037E-1,1.435445459E0
3.675541375E0,7.314380001E-1,-9.451752207E-1,-2.816931224E-1,1.227887927E0
3.685487375E0,1.196831854E0,-8.014398426E-1,-7.964913440E-1,1.645937657E0
3.695433375E0,1.744700392E0,-6.238131255E-1,-9.469092125E-1,2.080807375E0
3.705380375E0,2.253439875E0,-4.826107612E-1,-7.525699836E-1,2.424307324E0
3.715326375E0,2.605359373E0,-4.405929619E-1,-4.144237483E-1,2.674652625E0
3.725272375E0,2.656313472E0,-4.652781522E-1,-3.158437854E-1,2.715187345E0
3.735218375E0,2.463962297E0,-5.396281305E-1,-3.816933739E-1,2.551077919E0
3.745165375E0,2.045520050E0,-6.072491330E-1,-4.558524406E-1,2.181904038E0
3.755111375E0,1.572206654E0,-6.556629092E-1,-5.702573079E-1,1.796363273E0
3.765057375E0,1.175615963E0,-6.790009010E-1,-6.603605622E-1,1.509699039E0
3.775003375E0,8.896977156E-1,-6.517727566E-1,-8.624321491E-1,1.400056771E0
3.784950375E0,6.112607980E-1,-5.670331532E-1,-1.209471999E0,1.469009489E0
3.794896375E0,3.765415018E-1,-4.759665701E-1,-1.558964172E0,1.672930652E0
3.804842375E0,8.935722269E-2,-3.825590542E-1,-1.896656079E0,1.936915182E0
3.814788375E0,-1.053070748E-1,-3.055670115E-1,-2.080676141E0,2.105629118E0
3.824735375E0,-1.514086518E-1,-2.463774016E-1,-2.118559082E0,2.138204618E0
3.834681375E0,-2.048498000E-1,-1.474884135E-1,-2.038169807E0,2.053741083E0
3.844627375E0,-2.352729361E-1,-4.578662217E-3,-1.900387772E0,1.914901564E0
3.854573375E0,-2.527891294E-1,8.294275403E-2,-1.781113343E0,1.800873840E0
3.864520375E0,-3.064658748E-1,1.361915928E-1,-1.709224166E0,1.741814207E0
3.874466375E0,-4.077242644E-1,2.007781827E-1,-1.661720216E0,1.722749265E0
3.884412375E0,-4.425403040E-1,2.657042035E-1,-1.529977770E0,1.614705119E0
3.894358375E0,-2.713927769E-1,4.015376544E-1,-1.408466781E0,1.489518446E0
3.904304375E0,-3.388384726E-2,5.200393733E-1,-1.251874253E0,1.356015564E0
3.914251375E0,1.147048477E-1,6.540683734E-1,-9.481961846E-1,1.157600382E0
3.924197375E0,2.368388570E-1,7.404545528E-1,-7.295021331E-1,1.066085809E0
3.934143375E0,4.390411840E-1,8.125603697E-1,-6.263151491E-1,1.115922122E0
3.944089375E0,6.755487049E-1,9.547406808E-1,-5.410989976E-1,1.288675268E0
3.954036375E0,9.055070519E-1,1.060629956E0,-3.640283507E-1,1.441317302E0
3.963982375E0,9.101675020E-1,1.018143502E0,-1.257648379E-1,1.371436425E0
3.973928375E0,6.897923760E-1,9.477947733E-1,8.943784118E-2,1.175639223E0
3.983874375E0,3.609881640E-1,9.258709306E-1,2.030539191E-1,1.014288090E0
3.993821375E0,4.733243412E-2,9.247087964E-1,2.348861611E-1,9.552477303E-1
4.003767375E0,-3.131450761E-1,9.174027005E-1,2.698864245E-1,1.006243626E0
4.013713375E0,-5.209469708E-1,9.336281392E-1,1.775588894E-1,1.083777841E0
4.023659375E0,-5.571463155E-1,9.958413443E-1,-8.902093470E-2,1.144568358E0
4.033606375E0,-6.011983611E-1,1.016176791E0,-3.044551635E-1,1.219322634E0
4.043552375E0,-7.199609390E-1,1.043587953E0,-3.437560540E-1,1.313616304E0
4.053498375E0,-7.216403324E-1,1.118945114E0,-1.508067083E-1,1.339979702E0
4.063444375E0,-4.602242576E-1,1.052937943E0,2.081743258E-1,1.167827568E0
4.073390375E0,-1.915284906E-1,9.888808188E-1,6.805977756E-1,1.215640477E0
4.083337375E0,9.210113827E-2,9.716943902E-1,1.146509181E0,1.505707777E0
4.093283375E0,4.082163807E-1,1.015614289E0,1.474441500E0,1.836325335E0
4.103229375E0,5.836505015E-1,1.013927952E0,1.664588860E0,2.034589362E0
4.113175375E0,5.558936226E-1,9.741385263E-1,1.859363707E0,2.171450433E0
4.123122375E0,2.822735682E-1,9.116037244E-1,1.874965832E0,2.103852797E0
4.133068375E0,-2.492203544E-1,7.675262842E-1,1.451343244E0,1.660603684E0
4.143014375E0,-8.565556973E-1,6.675780728E-1,8.806824785E-1,1.398195185E0
4.152960375E0,-1.361545215E0,6.596705908E-1,3.129178387E-1,1.544955738E0
4.162907375E0,-1.747146575E0,5.990908054E-1,-3.157829744E-1,1.873806243E0
4.172853375E0,-1.766084830E0,4.810708970E-1,-3.484630626E-1,1.863306561E0
4.182799375E0,-1.262631668E0,1.243752471E-1,1.099955404E0,1.679169385E0
4.192745375E0,-7.499396867E-1,-5.106043062E-1,3.573490763E0,3.686863507E0
4.202691375E0,-3.998286229E-1,-1.196987902E0,5.850536286E0,5.985099648E0
4.212638375E0,-1.629368120E-1,-1.668212087E0,7.111226386E0,7.306094763E0
4.222584375E0,-9.792101819E-2,-1.743998142E0,6.965768711E0,7.181438002E0
4.232530375E0,-6.072150730E-3,-1.585383062E0,5.631449302E0,5.850358755E0
4.242476375E0,8.188945122E-2,-1.390811114E0,3.806635038E0,4.053582582E0
4.252423375E0,1.979528264E-1,-1.199520331E0,2.289912322E0,2.592630476E0
4.262369375E0,3.839761635E-1,-1.084187803E0,1.264599549E0,1.709418879E0
4.272315375E0,4.502100968E-1,-1.064920642E0,7.218744403E-1,1.363028911E0
4.282261375E0,4.690227822E-1,-1.080081595E0,5.058706927E-1,1.281586431E0
4.292208375E0,4.901786297E-1,-1.101202615E0,3.285796058E-1,1.249354572E0
4.302154375E0,5.604127163E-1,-1.038236581E0,9.869866133E-2,1.183950606E0
4.312100375E0,5.180724431E-1,-9.981881243E-1,-1.599172550E-1,1.135936669E0
4.322046375E0,2.121323792E-1,-1.021054246E0,-2.646379638E-1,1.075911321E0
4.331993375E0,-4.568996038E-2,-1.094352602E0,-2.584288055E-1,1.125380219E0
4.341939375E0,-9.165634789E-2,-1.089020234E0,-3.553154147E-1,1.149180143E0
4.351885375E0,-8.966390915E-2,-1.050691151E0,-6.042132586E-1,1.215345701E0
4.361831375E0,-1.102509322E-1,-1.007639271E0,-9.957492507E-1,1.420918273E0
4.371778375E0,-1.339610993E-1,-9.299882475E-1,-1.462029031E0,1.737916167E0
4.381724375E0,-7.210274711E-2,-8.207002786E-1,-2.002269073E0,2.165139532E0
4.391670375E0,1.263308849E-1,-6.693038785E-1,-2.588476415E0,2.676590616E0
4.401616375E0,2.138905638E-1,-5.166816097E-1,-3.067370394E0,3.117927227E0
4.411562375E0,1.370883364E-1,-4.498186988E-1,-3.336725891E0,3.369698762E0
4.421509708E0,1.149058275E-1,-3.949215299E-1,-3.422919112E0,3.447541387E0
4.431455708E0,1.998850936E-1,-3.095352244E-1,-3.324898143E0,3.345252422E0
4.441401708E0,2.102361272E-1,-2.227648830E-1,-3.165164491E0,3.179951207E0
4.451347708E0,1.571192893E-1,-1.564671054E-1,-2.873870825E0,2.882412522E0
4.461294708E0,1.823420580E-1,-6.252223045E-2,-2.628026397E0,2.635086412E0
4.471240708E0,2.891899838E-1,1.226605511E-1,-2.421944205E0,2.442230577E0
4.481186708E0,3.904440976E-1,3.145690924E-1,-2.261643373E0,2.316555860E0
4.491132708E0,4.685319816E-1,4.758566424E-1,-2.254389317E0,2.351219461E0
4.501079708E0,4.333119359E-1,6.361475345E-1,-2.062125265E0,2.201091440E0
4.511025708E0,3.556047057E-1,7.650342008E-1,-1.712217355E0,1.908774556E0
4.520971708E0,3.158656394E-1,8.243749613E-1,-1.461693985E0,1.707604898E0
4.530917708E0,2.205522235E-1,9.494252694E-1,-1.250626457E0,1.585597099E0
4.540864708E0,1.470821051E-1,1.117321050E0,-9.479412460E-1,1.472627611E0
4.550810708E0,1.991520355E-1,1.180296732E0,-6.930494213E-1,1.383141139E0
4.560756708E0,1.586827616E-1,1.243845734E0,-2.604513574E-1,1.280690180E0
4.570702708E0,9.498381559E-2,1.261966840E0,5.333742410E-1,1.373342751E0
4.580648708E0,1.556154950E-1,1.169619716E0,1.425809038E0,1.850718206E0
4.590595708E0,3.096574312E-1,1.124678017E0,1.923197760E0,2.249328342E0
4.600541708E0,5.506095304E-1,1.073980318E0,1.770113561E0,2.142406730E0
4.610487708E0,7.649822337E-1,1.112417867E0,1.153949178E0,1.776026474E0
4.620433708E0,9.501218189E-1,1.236552209E0,2.849190313E-1,1.585235532E0
4.630380708E0,1.013483490E0,1.377981153E0,-5.223890769E-1,1.788538843E0
4.640326708E0,9.805896132E-1,1.435368651E0,-8.880949938E-1,1.952063491E0
4.650272708E0,8.732766876E-1,1.436403608E0,-9.006045270E-1,1.907080495E0
4.660218708E0,6.461092166E-1,1.396092027E0,-5.788620704E-1,1.643657921E0
4.670165708E0,3.812782947E-1,1.322163633E0,-5.773072958E-2,1.377251846E0
4.680111708E0,8.818836428E-2,1.199366257E0,4.212626517E-1,1.274252262E0
4.690057708E0,-1.782105616E-1,1.077664064E0,8.536110395E-1,1.386279426E0
4.700003708E0,-3.469226868E-1,9.488320693E-1,1.160676400E0,1.538768128E0
4.709950708E0,-3.614999416E-1,8.949932465E-1,1.224033905E0,1.558831011E0
4.719896708E0,-3.337299065E-1,9.406176084E-1,1.181488395E0,1.546625993E0
4.729842708E0,-4.825363554E-2,9.590682051E-1,1.124369284E0,1.478629948E0
4.739788708E0,2.583802736E-1,9.190985392E-1,1.028285497E0,1.403165548E0
4.749734708E0,3.919661278E-1,7.692683159E-1,8.259466928E-1,1.194821797E0
4.759681708E0,4.362595904E-1,5.010566801E-1,8.169384724E-1,1.052980861E0
4.769627708E0,3.146657907E-1,6.371301591E-2,1.448868703E0,1.484012947E0
4.779573708E0,1.613424773E-1,-5.764727519E-1,2.776276118E0,2.840081216E0
4.789519708E0,3.736242894E-2,-1.302934918E0,4.489855875E0,4.675237013E0
4.799466708E0,-1.149048042E-1,-1.860724646E0,5.969605477E0,6.253933872E0
4.809412708E0,-1.606534195E-1,-2.099217808E0,6.594888008E0,6.922793711E0
4.819358708E0,-5.953890793E-2,-2.102250613E0,6.031823945E0,6.387949798E0
4.829304708E0,-1.467517374E-1,-1.931862457E0,4.399260870E0,4.806987084E0
4.839251708E0,-3.296476728E-1,-1.707358027E0,2.396438066E0,2.960853665E0
4.849197708E0,-2.955268672E-1,-1.463536443E0,5.739357913E-1,1.599586616E0
4.859143708E0,-3.405780192E-2,-1.164920748E0,-7.998061305E-1,1.413467413E0
4.869089708E0,4.186471190E-1,-9.779687449E-1,-1.452079993E0,1.800062383E0
4.879036708E0,1.001640394E0,-9.266854477E-1,-1.337127242E0,1.910481264E0
4.888982708E0,1.397539212E0,-8.915369573E-1,-7.321719718E-1,1.812189227E0
4.898928708E0,1.585920421E0,-8.165151340E-1,-1.452126771E-1,1.789672391E0
4.908874708E0,1.743749197E0,-8.164075452E-1,2.272830266E-1,1.938772837E0
4.918821708E0,1.740802785E0,-7.956423283E-1,3.957290304E-1,1.954492905E0
4.928767708E0,1.486210630E0,-7.983405259E-1,4.852896631E-1,1.755470219E0
4.938713708E0,1.087607839E0,-8.835306573E-1,6.051926672E-1,1.526360180E0
4.948659708E0,6.924394105E-1,-1.016746017E0,3.184995908E-1,1.270703266E0
4.958605708E0,4.125524200E-1,-9.290085465E-1,-6.147294760E-1,1.187917803E0
4.968552708E0,2.755880080E-1,-7.128855157E-1,-1.799166037E0,1.954776953E0
4.978498708E0,2.151450474E-1,-4.326790479E-1,-2.897264950E0,2.937284927E0
4.988444708E0,6.387341235E-2,-2.320859295E-1,-3.832466868E0,3.840019008E0
4.998390708E0,-1.837096852E-1,-1.339246273E-2,-4.443348876E0,4.447165146E0
5.008337708E0,-3.430284411E-1,1.714020637E-1,-4.613370704E0,4.629280336E0
5.018283708E0,-4.148219071E-1,2.850304207E-1,-4.383103259E0,4.411905907E0
5.028229708E0,-4.426160620E-1,3.591523576E-1,-3.903343307E0,3.944741863E0
5.038175708E0,-4.634567811E-1,3.763227063E-1,-3.339326733E0,3.392272689E0
5.048122708E0,-5.475606825E-1,3.997326189E-1,-2.800444999E0,2.881336680E0
5.058068708E0,-6.066795776E-1,4.245224744E-1,-2.363663253E0,2.476930240E0
5.068014708E0,-5.525670320E-1,4.617034569E-1,-2.118132235E0,2.237182284E0
5.077960708E0,-3.644238052E-1,6.006669223E-1,-2.099573758E0,2.214004387E0
5.087906708E0,-1.455172440E-1,7.976008531E-1,-2.128500518E0,2.277686731E0
5.097853708E0,8.181683611E-2,9.819021669E-1,-2.064482278E0,2.287556105E0
5.107799708E0,1.930767054E-1,1.129201715E0,-1.843720651E0,2.170640681E0
5.117745708E0,2.032086876E-1,1.143425944E0,-1.371850932E0,1.797412485E0
5.127691708E0,2.223784186E-1,1.063624315E0,-6.200311464E-1,1.251074525E0
5.137638708E0,3.526284729E-1,9.573248577E-1,3.165372652E-1,1.068182364E0
5.147584708E0,5.496733912E-1,7.834038135E-1,1.340141482E0,1.646767003E0
5.157530708E0,7.433631040E-1,6.189286539E-1,2.199016770E0,2.402360534E0
5.167476708E0,7.960556533E-1,5.429473025E-1,2.583973475E0,2.757791742E0
5.177423708E0,6.523049994E-1,4.832407987E-1,2.439760671E0,2.571275095E0
5.187369708E0,3.562718730E-1,5.585397801E-1,2.023219646E0,2.128923218E0
5.197315708E0,1.401368554E-1,7.156760994E-1,1.077458242E0,1.301056064E0
5.207261708E0,9.792916775E-3,8.585130528E-1,-8.493723929E-2,8.627600464E-1
5.217208708E0,-9.397886194E-2,1.008730654E0,-8.048996401E-1,1.293921555E0
5.227154708E0,-9.769564457E-2,1.098528391E0,-1.084643885E0,1.546855334E0
5.237100708E0,5.051928543E-2,1.000895678E0,-9.119528031E-1,1.354991613E0
5.247046708E0,1.365760472E-1,7.898989007E-1,-1.946409452E-1,8.249111392E-1
5.256992708E0,2.158208759E-1,7.626780653E-1,6.197884870E-1,1.006178041E0
5.266939708E0,4.054163318E-1,6.519028571E-1,1.274898834E0,1.488189092E0
5.276885708E0,5.599693512E-1,6.424408928E-1,1.575480217E0,1.791210175E0
5.286831708E0,7.873090227E-1,7.772171670E-1,1.575063896E0,1.924772271E0
5.296777708E0,8.611064391E-1,6.982244995E-1,1.629599122E0,1.970942680E0
5.306724708E0,5.389028565E-1,6.603088143E-1,1.955914101E0,2.133547278E0
5.316670708E0,7.888464019E-2,6.033548874E-1,1.953369393E0,2.045950119E0
5.326616708E0,-3.815072863E-1,6.343664727E-1,1.502829732E0,1.675250977E0
5.336562708E0,-7.265963593E-1,5.841055611E-1,8.746376270E-1,1.278324119E0
5.346509708E0,-1.016891759E0,4.670481044E-1,6.889838523E-1,1.314116255E0
5.356455708E0,-1.054593217E0,1.998171929E-1,1.203734711E0,1.612783624E0
5.366401708E0,-1.024866411E0,-2.302882031E-1,2.155779533E0,2.398076148E0
5.376347708E0,-1.071335111E0,-6.379940853E-1,3.213412791E0,3.446856124E0
5.386294708E0,-1.026383764E0,-8.862107286E-1,3.520015052E0,3.772179616E0
5.396240708E0,-8.636054660E-1,-9.365628567E-1,3.032597587E0,3.289317940E0
5.406186708E0,-5.829193803E-1,-7.795920137E-1,1.905621030E0,2.139848177E0
5.416132708E0,-2.463731624E-1,-5.299047956E-1,6.165701795E-1,8.495043342E-1
5.426079458E0,8.298916630E-3,-3.881150785E-1,-3.152333361E-1,5.000742369E-1
5.436025458E0,1.119190332E-1,-3.981559172E-1,-5.747006071E-1,7.080499927E-1
5.445971458E0,2.599622012E-1,-5.353067458E-1,-1.783494329E-1,6.212424473E-1
5.455917458E0,4.056832207E-1,-7.426533982E-1,4.015967113E-1,9.366925130E-1
5.465863458E0,5.093888162E-1,-8.697470158E-1,9.066727674E-1,1.355725763E0
5.475810458E0,4.838731751E-1,-9.784181035E-1,9.874356794E-1,1.471891455E0
5.485756458E0,2.739390932E-1,-1.086922838E0,7.173902106E-1,1.330824029E0
5.495702458E0,-1.157292616E-1,-1.107745357E0,3.488454705E-1,1.167127329E0
5.505648458E0,-3.789356077E-1,-1.142365844E0,1.202795649E-1,1.209569796E0
5.515595458E0,-3.283294912E-1,-1.072444547E0,1.961974740E-2,1.121749747E0
5.525541458E0,-1.340981800E-1,-1.079069735E0,-2.458976376E-1,1.114827100E0
5.535487458E0,-2.415114950E-1,-1.145107896E0,-5.959710234E-1,1.313309315E0
5.545433458E0,-5.199457813E-1,-1.178222140E0,-1.014720542E0,1.639575800E0
5.555380458E0,-5.365524585E-1,-1.142992373E0,-1.521422124E0,1.977130594E0
5.565326458E0,-4.053415971E-1,-1.020787320E0,-1.870975692E0,2.169529581E0
5.575272458E0,-1.937999329E-1,-9.057725886E-1,-2.092507398E0,2.288355218E0
5.585218458E0,-1.002854495E-1,-8.054033777E-1,-2.141172604E0,2.289836652E0
5.595164458E0,-1.673147868E-1,-7.625017717E-1,-2.132723377E0,2.271103739E0
5.605111458E0,-2.222808432E-1,-7.834605315E-1,-1.907603236E0,2.074167130E0
5.615057458E0,-3.456056014E-1,-7.406214908E-1,-1.689732472E0,1.877008059E0
5.625003458E0,-3.291666663E-1,-6.853629640E-1,-1.639461036E0,1.807181666E0
5.634949458E0,-2.381693727E-1,-5.749075985E-1,-1.640873723E0,1.754910246E0
5.644896458E0,-2.056068500E-1,-3.540421835E-1,-1.845911018E0,1.890769031E0
5.654842458E0,-8.724908218E-2,-1.330875984E-1,-2.226703336E0,2.232382686E0
5.664788458E0,-1.221703717E-1,2.869638026E-2,-2.621925412E0,2.624927037E0
5.674734458E0,-2.061729701E-1,2.450226018E-1,-2.650548118E0,2.669821847E0
5.684681458E0,-1.346522402E-1,3.811177155E-1,-2.334737661E0,2.369468693E0
5.694627458E0,-1.268976993E-1,5.818710476E-1,-1.676589686E0,1.779221716E0
5.704573458E0,-1.947468163E-1,4.929948315E-1,-1.160444266E0,1.275774714E0
5.714519458E0,-4.106788624E-1,3.379447988E-1,-9.732327926E-1,1.109074336E0
5.724466458E0,-6.360651619E-1,5.442363212E-1,-2.580037129E-1,8.759782984E-1
5.734412458E0,-4.535052221E-1,4.459188983E-1,1.057936728E-2,6.360994995E-1
5.744358458E0,-5.498568110E-2,4.705830386E-1,1.548325163E-1,4.984425037E-1
5.754304458E0,5.418835112E-1,6.462810516E-1,3.179119456E-1,9.013239942E-1
5.764250458E0,1.159487369E0,7.443593234E-1,1.287691373E-1,1.383858104E0
5.774197458E0,1.234389470E0,7.813186964E-1,-1.599874216E-1,1.469616360E0
5.784143458E0,7.361112410E-1,7.208850914E-1,-5.281953621E-1,1.157810613E0
5.794089458E0,1.977539297E-1,5.547884989E-1,-9.449498105E-1,1.113475208E0
5.804035458E0,-3.114181375E-1,3.473924375E-1,-8.528900778E-1,9.721544357E-1
5.813982458E0,-7.187887915E-1,2.184794587E-1,-2.736192870E-1,7.995361874E-1
5.823928458E0,-8.340038636E-1,1.366666791E-1,2.629808629E-1,8.850983900E-1
5.833874458E0,-8.820502154E-1,2.512630427E-1,7.062892717E-1,1.157579472E0
5.843820458E0,-7.664737123E-1,4.700869024E-1,8.703948873E-1,1.251419557E0
5.853767458E0,-4.419616489E-1,4.951992318E-1,5.101175255E-1,8.371214178E-1
5.863713458E0,-1.502153721E-1,5.834769854E-1,2.034725797E-1,6.359332836E-1
5.873659458E0,5.946201704E-2,6.620126930E-1,4.440071511E-1,7.993365295E-1
5.883605458E0,1.665404328E-1,6.995535716E-1,9.507952720E-1,1.192108453E0
5.893552458E0,3.439198492E-1,7.381536734E-1,1.127619751E0,1.390927033E0
5.903498458E0,6.049856758E-1,6.994214246E-1,6.364705932E-1,1.122627638E0
5.913444458E0,7.648247243E-1,5.190280974E-1,3.963535130E-2,9.251583572E-1
5.923390458E0,8.422389360E-1,1.875859872E-1,-1.671578622E-1,8.789179022E-1
5.933336458E0,7.135229353E-1,-3.392963827E-1,7.044503224E-1,1.058530713E0
5.943283458E0,3.794330596E-1,-9.193097699E-1,2.661343832E0,2.841100296E0
5.953229458E0,-9.777458198E-3,-1.384596401E0,4.604663031E0,4.808339050E0
5.963175458E0,-4.962311192E-1,-1.778140034E0,5.736513242E0,6.026243563E0
5.973121458E0,-9.624336431E-1,-1.965048329E0,5.772525659E0,6.173309156E0
5.983068458E0,-1.188478595E0,-1.844672577E0,4.422110034E0,4.936634020E0
5.993014458E0,-1.034663129E0,-1.548671903E0,2.444639588E0,3.073300371E0
6.002960458E0,-5.495605765E-1,-1.246990659E0,8.582800412E-1,1.610480413E0
6.012906458E0,9.683283309E-2,-9.587723359E-1,-1.783283830E-2,9.638148162E-1
6.022853458E0,7.666604577E-1,-7.999736533E-1,-2.644578695E-1,1.139150591E0
6.032799458E0,1.204475846E0,-8.948844883E-1,-1.062000543E-1,1.504280148E0
6.042745458E0,1.382691524E0,-9.953349754E-1,3.055912775E-1,1.730870761E0
6.052691458E0,1.397017787E0,-1.094377745E0,6.387451601E-1,1.886085026E0
6.062638458E0,1.175030803E0,-1.199366549E0,1.009031786E0,1.958908536E0
6.072584458E0,8.928628866E-1,-1.226923599E0,1.549247269E0,2.168573898E0
6.082530458E0,7.344048773E-1,-1.228107660E0,1.838973296E0,2.330111957E0
6.092476458E0,5.726325565E-1,-1.112960197E0,1.534590054E0,1.980291665E0
6.102422458E0,4.004366968E-1,-9.127532870E-1,7.594047940E-1,1.253061751E0
6.112369458E0,2.045032428E-1,-6.885938430E-1,-2.230946660E-1,7.521663958E-1
6.122315458E0,1.141383439E-1,-5.235462409E-1,-1.141536124E0,1.261044389E0
6.132261458E0,1.743817865E-4,-3.586211380E-1,-1.771056132E0,1.806999993E0
6.142207458E0,-1.712093248E-1,-2.606139100E-1,-2.279717701E0,2.300944380E0
6.152154458E0,-2.124107067E-1,-1.500597265E-1,-2.657854214E0,2.670547744E0
6.162100458E0,-1.271585857E-1,7.126878798E-3,-2.792966995E0,2.795869227E0
6.172046458E0,-4.331845762E-2,1.027300242E-1,-2.796644894E0,2.798866308E0
6.181992458E0,-1.574598165E-1,1.229242605E-1,-2.678656853E0,2.686095029E0
6.191939458E0,-3.454675341E-1,1.788908851E-1,-2.507067971E0,2.537073033E0
6.201885458E0,-3.745269168E-1,1.849316436E-1,-2.273581633E0,2.311632230E0
6.211831458E0,-2.775212437E-1,2.173684877E-1,-2.059650723E0,2.089600010E0
6.221777458E0,-1.627255996E-1,3.036874241E-1,-2.019349959E0,2.048531164E0
6.231724458E0,-1.039377391E-1,3.401038831E-1,-1.991406700E0,2.022912344E0
6.241670458E0,-4.299916767E-3,3.398524529E-1,-1.919351462E0,1.949212203E0
6.251616458E0,2.472501169E-1,3.839901602E-1,-1.848104308E0,1.903699188E0
6.261562458E0,4.927112050E-1,3.747284630E-1,-1.787984991E0,1.892108898E0
6.271508458E0,6.156972633E-1,3.305775994E-1,-1.734487061E0,1.869975945E0
6.281455458E0,8.294583113E-1,2.559642041E-1,-1.797269200E0,1.995919673E0
6.291401458E0,1.068287177E0,1.027443498E-1,-1.768971600E0,2.069070906E0
6.301347458E0,1.206232350E0,-7.365211308E-2,-1.427364398E0,1.870238017E0
6.311293458E0,1.348133748E0,-3.064499411E-1,-1.023253384E0,1.720006877E0
6.321240458E0,1.350259504E0,-5.522528538E-1,-6.017205906E-1,1.578053108E0
6.331186458E0,1.302518742E0,-7.017299053E-1,-3.379556161E-1,1.517627732E0
6.341132458E0,1.333143388E0,-7.891574737E-1,-5.199314922E-1,1.634126546E0
6.351078458E0,1.272450897E0,-7.495612988E-1,-9.422945899E-1,1.751825482E0
6.361025458E0,1.314340058E0,-6.704926175E-1,-1.521738458E0,2.119608000E0
6.370971458E0,1.347575193E0,-6.303620070E-1,-2.115259498E0,2.586046772E0
6.380917458E0,1.288176984E0,-5.903936568E-1,-2.601458403E0,2.962355555E0
6.390863458E0,1.167004549E0,-5.580448133E-1,-2.988379188E0,3.256335948E0
6.400810458E0,1.122365589E0,-5.273767519E-1,-3.223449537E0,3.453759932E0
6.410756458E0,1.058817611E0,-5.982353577E-1,-3.110063254E0,3.339382237E0
6.420702625E0,8.806150894E-1,-7.196858275E-1,-2.508413415E0,2.754191077E0
6.430648625E0,7.507225558E-1,-8.915246782E-1,-1.341065927E0,1.776755027E0
6.440594625E0,6.230048941E-1,-1.255166820E0,2.828748447E-1,1.429544341E0
6.450541625E0,4.099785487E-1,-1.541789730E0,1.799618611E0,2.404958446E0
6.460487625E0,2.850200419E-1,-1.701958123E0,2.779475715E0,3.271602532E0
6.470433625E0,2.846909716E-1,-1.636844991E0,3.220438805E0,3.623746207E0
6.480379625E0,3.441647744E-1,-1.292367683E0,2.721278962E0,3.032164707E0
6.490326625E0,2.586273550E-1,-8.364465380E-1,1.275350824E0,1.546948817E0
6.500272625E0,1.664702296E-2,-2.292140695E-1,-2.002531028E-1,3.048237494E-1
6.510218625E0,-3.142357280E-1,1.478380769E-2,-1.072033780E0,1.117237253E0
6.520164625E0,-7.232106753E-1,1.043824473E-1,-1.025301079E0,1.259036011E0
6.530111625E0,-9.454693356E-1,7.309224218E-2,-9.347826719E-2,9.528866286E-1
6.540057625E0,-1.052196955E0,-1.733588344E-1,1.394593678E0,1.755580600E0
6.550003625E0,-9.323062299E-1,-4.437864187E-1,3.011935866E0,3.184006745E0
6.559949625E0,-5.951064761E-1,-5.390974957E-1,4.230013213E0,4.305553345E0
6.569896625E0,-1.167472619E-1,-5.053991148E-1,4.851496807E0,4.879147411E0
6.579842625E0,6.182226026E-1,-2.953378925E-1,5.036990368E0,5.083374433E0
6.589788625E0,1.175457284E0,-2.219895422E-2,5.179474735E0,5.311228779E0
6.599734625E0,1.613994511E0,7.029668838E-2,5.233530489E0,5.477203784E0
6.609680625E0,1.890867335E0,3.640733743E-1,5.259187487E0,5.600623333E0
6.619627625E0,1.609324340E0,9.482628429E-1,5.027122607E0,5.362936598E0
6.629573625E0,1.860265640E0,9.541895807E-1,4.387364709E0,4.860044763E0
6.639519625E0,1.698707656E0,1.147683887E0,3.686677655E0,4.218338315E0
6.649465625E0,1.008616049E0,1.284579192E0,3.100162164E0,3.504062710E0
6.659412625E0,3.394558289E-1,1.144349805E0,2.554497660E0,2.819614341E0
6.669358625E0,-2.760666391E-1,1.040755270E0,1.853736346E0,2.143763691E0
6.679304625E0,-8.242086080E-1,1.072774915E0,1.307021683E0,1.881082541E0
6.689250625E0,-1.238777952E0,1.025628230E0,9.742969859E-1,1.880356003E0
6.699197625E0,-1.507683798E0,9.863213463E-1,5.070775580E-1,1.871648440E0
6.709143625E0,-1.735273073E0,1.128849713E0,-6.744353950E-2,2.071237056E0
6.719089625E0,-1.978670003E0,1.394141395E0,-7.374151701E-1,2.530325343E0
6.729035625E0,-1.922576786E0,1.737273405E0,-1.507634974E0,2.997896529E0
6.738981625E0,-1.574504902E0,2.503298855E0,-2.191191441E0,3.680610109E0
6.748928625E0,-1.228183236E0,3.089354463E0,-2.446957424E0,4.127971135E0
6.758874625E0,-1.085752810E0,2.906134299E0,-1.358649089E0,3.386798352E0
6.768820625E0,-1.312111246E0,2.255961633E0,4.047366661E-1,2.640986668E0
6.778766625E0,-1.723105894E0,1.610399789E0,1.554954736E0,2.824954094E0
6.788713625E0,-2.091914490E0,9.909945872E-1,2.249619159E0,3.227841827E0
6.798659625E0,-2.315235882E0,5.436913607E-1,2.036103986E0,3.130756606E0
6.808605625E0,-2.100163596E0,3.080210879E-1,6.237160617E-1,2.212371091E0
6.818551625E0,-1.671435365E0,3.928375822E-1,-1.433091745E0,2.236463614E0
6.828498625E0,-1.055672540E0,7.573071054E-1,-3.323004815E0,3.567957338E0
6.838444625E0,-1.407203344E-1,1.180843739E0,-4.673711046E0,4.822630930E0
6.848390625E0,7.152857246E-1,1.531929863E0,-5.341389399E0,5.602578289E0
6.858336625E0,1.369548591E0,1.710539789E0,-5.492603073E0,5.913568993E0
6.868282625E0,1.737690458E0,1.718403417E0,-5.296659368E0,5.833273429E0
6.878229625E0,1.606994371E0,1.498954198E0,-5.017141410E0,5.477317092E0
6.888175625E0,1.042464264E0,1.268306976E0,-4.373631354E0,4.671614876E0
6.898121625E0,3.385687332E-1,8.655399442E-1,-3.602226904E0,3.720191776E0
6.908067625E0,-9.244515555E-2,6.691442496E-1,-2.761055816E0,2.842486473E0
6.918014625E0,5.614611587E-2,6.747061211E-1,-2.236668745E0,2.336892769E0
6.927960625E0,2.943085450E-1,5.877574396E-1,-2.171044859E0,2.268372127E0
6.937906625E0,3.723845335E-1,7.576371807E-1,-2.038597823E0,2.206482591E0
6.947852625E0,5.577158343E-1,9.771425334E-1,-1.696109446E0,2.035348062E0
6.957799625E0,9.153039155E-1,1.203773011E0,-1.034627972E0,1.832295216E0
6.967745625E0,1.043293034E0,1.379746135E0,-1.245702517E-1,1.734265695E0
6.977691625E0,6.894874437E-1,1.258153286E0,9.300908661E-1,1.709798715E0
6.987637625E0,1.042198216E-1,8.918547535E-1,2.029054583E0,2.218857628E0
6.997583625E0,-5.657968325E-1,5.828472403E-1,3.055537384E0,3.161668177E0
7.007530625E0,-1.109907439E0,2.340757370E-1,3.886837202E0,4.048973871E0
7.017476625E0,-1.396099920E0,1.263419580E-1,4.355514926E0,4.575540137E0
7.027422625E0,-1.290567618E0,9.812475711E-2,4.358814510E0,4.546917326E0
7.037368625E0,-8.596151798E-1,1.127179456E-1,4.112856061E0,4.203240247E0
7.047315625E0,-5.303329580E-2,1.815180391E-1,3.930307742E0,3.934854544E0
7.057261625E0,8.590393753E-1,5.447383046E-2,3.915848747E0,4.009337534E0
7.067207625E0,1.468396356E0,-3.172860011E-1,4.258560489E0,4.515771883E0
7.077153625E0,1.885897494E0,-8.731267065E-1,4.888381044E0,5.311800903E0
7.087100625E0,2.024827923E0,-1.444873300E0,5.064071163E0,5.642021244E0
7.097046625E0,2.189428798E0,-2.303973121E0,4.991820627E0,5.917783688E0
7.106992625E0,1.525049736E0,-2.588673174E0,4.423192354E0,5.347114745E0
7.116938625E0,1.478418776E0,-2.849002032E0,3.248934041E0,4.567067666E0
7.126885625E0,1.897578185E0,-2.673976157E0,1.437520427E0,3.580141957E0
7.136831625E0,2.658535707E0,-2.198193774E0,-3.239684916E-1,3.464797765E0
7.146777625E0,3.364797496E0,-1.709184989E0,-1.655586487E0,4.121182129E0
7.156723625E0,3.678700883E0,-1.504388308E0,-2.551223220E0,4.722792001E0
7.166669625E0,3.570764498E0,-1.653797824E0,-2.718052468E0,4.782595066E0
7.176616625E0,3.090747562E0,-2.105111948E0,-1.888595692E0,4.189392616E0
7.186562625E0,2.250212359E0,-2.622037094E0,-3.402114719E-1,3.471927135E0
7.196508625E0,1.495589856E0,-2.985898507E0,1.334421151E0,3.596256209E0
7.206454625E0,1.251483221E0,-2.974124261E0,2.722017465E0,4.221493154E0
7.216401625E0,1.388760788E0,-2.709604119E0,3.333093016E0,4.514434633E0
7.226347625E0,1.547090524E0,-2.221003324E0,2.761651647E0,3.866919274E0
7.236293625E0,1.721175144E0,-1.576279239E0,1.282485597E0,2.663056406E0
7.246239625E0,1.689968700E0,-9.393660119E-1,-6.995842695E-1,2.056166545E0
7.256186625E0,1.372613555E0,-4.241029367E-1,-2.309979381E0,2.720282341E0
7.266132625E0,1.082316401E0,-6.243042916E-2,-3.082017084E0,3.267129575E0
7.276078625E0,1.169366532E0,1.669295284E-1,-3.361128076E0,3.562648663E0
7.286024625E0,1.122831612E0,3.145497966E-1,-3.413886334E0,3.607535489E0
7.295970625E0,9.380131124E-1,5.224358547E-1,-3.428463442E0,3.592654923E0
7.305917625E0,7.751464487E-1,5.916440839E-1,-3.530268729E0,3.662470756E0
7.315863625E0,5.616297412E-1,6.941346645E-1,-3.495366114E0,3.607607957E0
7.325809625E0,5.676005524E-1,8.488768414E-1,-3.174361576E0,3.334566493E0
7.335755625E0,8.253840445E-1,9.877026048E-1,-2.834697989E0,3.113250382E0
7.345702625E0,1.077195702E0,1.239478448E0,-2.757777282E0,3.209671781E0
7.355648625E0,1.150520590E0,1.423982076E0,-2.997552300E0,3.512369908E0
7.365594625E0,1.092677521E0,1.554232313E0,-3.418551242E0,3.911019668E0
7.375540625E0,8.022537019E-1,1.709324445E0,-3.788912712E0,4.233350990E0
7.385487625E0,6.018198105E-1,1.825384367E0,-3.908200005E0,4.355254579E0
7.395433625E0,5.350956613E-1,1.839799800E0,-3.984376361E0,4.421136240E0
7.405379625E0,-3.541313170E-2,1.616595791E0,-3.410451679E0,3.774363085E0
7.415325625E0,-7.251091200E-1,1.113564506E0,-2.273433698E0,2.633307792E0
7.425272375E0,-1.025849840E0,7.429554069E-1,-1.271034409E0,1.794402157E0
7.435218375E0,-1.092430184E0,6.020834103E-1,-3.671186042E-1,1.300263131E0
7.445164375E0,-9.079663177E-1,4.665806195E-1,6.058282596E-1,1.187067053E0
7.455110375E0,-3.302870659E-1,4.972112587E-1,1.328789113E0,1.456704873E0
7.465056375E0,5.436060278E-1,5.926091668E-1,1.326188271E0,1.550957275E0
7.475003375E0,1.416211711E0,8.586495852E-1,1.095648345E0,1.985794556E0
7.484949375E0,2.017710838E0,1.086764671E0,9.804160970E-1,2.492675310E0
7.494895375E0,2.220603228E0,1.229947487E0,8.489782906E-1,2.676679595E0
7.504841375E0,2.046468029E0,1.203776811E0,6.471727520E-1,2.460882480E0
7.514788375E0,1.663714994E0,9.573011765E-1,5.722430223E-1,2.002956615E0
7.524734375E0,1.239977508E0,6.597895816E-1,7.454410583E-1,1.590141152E0
7.534680375E0,9.104573777E-1,3.075196892E-1,1.125767353E0,1.480153076E0
7.544626375E0,5.810175734E-1,-1.326674759E-1,1.534235128E0,1.645922084E0
7.554573375E0,1.958109000E-1,-5.730008215E-1,1.843711295E0,1.940603821E0
7.564519375E0,-5.958517402E-2,-8.403042385E-1,1.926095055E0,2.102261584E0
7.574465375E0,-3.005859878E-1,-9.356091759E-1,1.615410268E0,1.890837592E0
7.584411375E0,-6.394928728E-1,-7.725791556E-1,9.345218861E-1,1.370824876E0
7.594357375E0,-9.525260478E-1,-4.908535811E-1,8.159906387E-2,1.074663444E0
7.604304375E0,-1.438280272E0,-3.134750783E-1,-5.654684383E-1,1.576918299E0
7.614250375E0,-1.858122489E0,-2.529391471E-1,-6.523054379E-1,1.985472181E0
7.624196375E0,-1.920729066E0,-2.974993157E-1,-2.057372063E-1,1.954490671E0
7.634142375E0,-1.796565634E0,-4.279582983E-1,7.886934972E-1,2.008191678E0
7.644089375E0,-1.637629980E0,-6.437193865E-1,1.944093955E0,2.622157109E0
7.654035375E0,-1.551081687E0,-7.723107684E-1,2.759761827E0,3.258619902E0
7.663981375E0,-1.363964500E0,-6.748926473E-1,3.165003693E0,3.511855296E0
7.673927375E0,-9.142206457E-1,-4.205118692E-1,3.342311152E0,3.490511919E0
7.683874375E0,-4.382233047E-1,-1.018836397E-1,3.501042591E0,3.529832739E0
7.693820375E0,-2.315725440E-1,-1.051294291E-1,3.741494717E0,3.750128099E0
7.703766375E0,-1.906237619E-1,-1.969175586E-1,4.201498681E0,4.210428138E0
7.713712375E0,-2.794159243E-1,-3.665929395E-1,4.583073941E0,4.606194784E0
7.723658375E0,-4.512252465E-1,-5.191812944E-1,4.542607700E0,4.594392034E0
7.733605375E0,-6.989597869E-1,-5.020711720E-1,3.951281120E0,4.043914284E0
7.743551375E0,-9.121665189E-1,-4.911012107E-1,2.876449447E0,3.057317383E0
7.753497375E0,-1.131220613E0,-4.351246458E-1,1.676080978E0,2.068390915E0
7.763443375E0,-1.169996569E0,-3.844936055E-1,6.485287213E-1,1.391875284E0
7.773390375E0,-1.119046344E0,-3.414022574E-1,-9.805371344E-2,1.174067610E0
7.783336375E0,-1.017707300E0,-3.508466801E-1,-7.505468470E-1,1.312304123E0
7.793282375E0,-9.362040570E-1,-4.976623714E-1,-1.349972990E0,1.716558460E0
7.803228375E0,-8.628450356E-1,-5.354529262E-1,-1.824857533E0,2.088376500E0
7.813175375E0,-5.205567057E-1,-5.858430612E-1,-2.192162663E0,2.328039630E0
7.823121375E0,-3.215796116E-1,-7.030925989E-1,-2.416096405E0,2.536784281E0
7.833067375E0,-3.829967914E-1,-8.236578003E-1,-2.452499415E0,2.615311090E0
7.843013375E0,-4.552927159E-1,-1.006435037E0,-2.334994354E0,2.583099219E0
7.852959375E0,-5.204334757E-1,-1.160029698E0,-2.142940217E0,2.491728853E0
7.862906375E0,-6.054857589E-1,-1.319744639E0,-1.742567328E0,2.268232751E0
7.872852375E0,-5.979620004E-1,-1.423566631E0,-1.478156821E0,2.137533180E0
7.882798375E0,-3.400764743E-1,-1.364320011E0,-1.778370999E0,2.267073998E0
7.892744375E0,-3.454173211E-2,-1.221019958E0,-2.473135409E0,2.758347625E0
7.902691375E0,1.591315720E-1,-9.777898201E-1,-3.323656195E0,3.468153153E0
7.912637375E0,3.553643120E-1,-7.901041380E-1,-3.861446838E0,3.957438569E0
7.922583375E0,5.367098948E-1,-7.104653531E-1,-3.973988782E0,4.072518308E0
7.932529375E0,4.519687930E-1,-6.644299319E-1,-3.868907885E0,3.951479615E0
7.942476375E0,1.987980232E-1,-7.013510057E-1,-3.481068503E0,3.556578666E0
7.952422375E0,2.872013457E-2,-7.961820263E-1,-2.804401810E0,2.915373077E0
7.962368375E0,-8.455852244E-2,-9.409087998E-1,-2.129219726E0,2.329385360E0
7.972314375E0,-2.935474385E-1,-1.057795518E0,-1.597929432E0,1.938679944E0
7.982260375E0,-5.361268909E-1,-1.051606825E0,-1.407542921E0,1.836977417E0
7.992207375E0,-5.073338488E-1,-9.729670367E-1,-1.462231929E0,1.828161564E0
8.002153375E0,-4.098520662E-1,-8.609060258E-1,-1.570417113E0,1.837211967E0
8.012099375E0,-7.454388656E-2,-6.373315957E-1,-1.544133879E0,1.672153638E0
8.022045375E0,4.943079334E-1,-4.976076999E-1,-1.541471642E0,1.693543202E0
8.031992375E0,8.541567309E-1,-3.147649741E-1,-1.539837930E0,1.788787735E0
8.041938375E0,1.006941991E0,-2.889702746E-1,-1.510855036E0,1.838509976E0
8.051884375E0,1.030750976E0,-2.767747369E-1,-1.544952489E0,1.877745995E0
8.061830375E0,7.168910046E-1,-3.002489689E-1,-1.445964975E0,1.641614104E0
8.071777375E0,5.690981705E-2,-5.287265816E-1,-1.122563079E0,1.242150712E0
8.081723375E0,-5.616649707E-1,-6.452879021E-1,-5.563637388E-1,1.020492345E0
8.091669375E0,-7.157016078E-1,-5.468696147E-1,1.162894249E-2,9.007943157E-1
8.101615375E0,-5.517850400E-1,-4.552875996E-1,5.892730379E-1,9.268205014E-1
8.111561375E0,-2.466633670E-1,-1.498501039E-1,1.437384771E0,1.466073958E0
8.121508375E0,1.030064513E-1,1.652089852E-1,2.070979119E0,2.080110297E0
8.131454375E0,3.956857975E-1,3.729509094E-1,2.205796616E0,2.271827093E0
8.141400375E0,6.389572679E-1,5.497049296E-1,1.869946582E0,2.051131912E0
8.151346375E0,6.558396412E-1,5.821081522E-1,1.382228571E0,1.636927414E0
8.161293375E0,7.018793748E-1,5.545227429E-1,1.197299266E0,1.494541957E0
8.171239375E0,8.578724172E-1,4.173762998E-1,1.722207323E0,1.968793063E0
8.181185375E0,7.783641715E-1,1.139563859E-2,3.054665564E0,3.152294775E0
8.191131375E0,2.744291447E-1,-6.294665059E-1,4.741241124E0,4.790710473E0
8.201077375E0,-3.985188100E-1,-1.221044809E0,6.101975915E0,6.235693845E0
8.211024375E0,-1.215539509E0,-1.680357339E0,6.675427557E0,6.990169536E0
8.220970375E0,-1.824751845E0,-1.901667289E0,6.342400559E0,6.868195004E0
8.230916375E0,-1.928622514E0,-1.576290788E0,5.104826256E0,5.680099344E0
8.240862375E0,-1.514811700E0,-1.019904976E0,3.350852764E0,3.816159705E0
8.250809375E0,-1.049463089E0,-6.009009571E-1,1.649743364E0,2.045509204E0
8.260755375E0,-5.841873856E-1,-3.110875140E-1,3.518731588E-1,7.495765890E-1
8.270701375E0,1.799382859E-2,-1.401656529E-1,-5.045679331E-1,5.239837662E-1
8.280647375E0,7.148531768E-1,-8.469618782E-2,-6.725011361E-1,9.851123219E-1
8.290594375E0,1.170032968E0,-1.619950631E-1,-2.314228553E-1,1.203651148E0
8.300540375E0,1.390912124E0,-3.640545170E-1,8.090839076E-1,1.649784531E0
8.310486375E0,1.232624635E0,-6.340904841E-1,2.229145133E0,2.624980429E0
8.320432375E0,8.710696560E-1,-8.485295168E-1,3.375315176E0,3.587689677E0
8.330379375E0,6.478578995E-1,-9.077533329E-1,3.809340545E0,3.969233095E0
8.340325375E0,6.714299992E-1,-8.004469854E-1,3.278827931E0,3.441256489E0
8.350271375E0,4.899349470E-1,-6.041104938E-1,1.790071278E0,1.951753294E0
8.360217375E0,3.931562189E-1,-3.940071715E-1,1.901426822E-1,5.881901931E-1
8.370163375E0,6.454261887E-1,-1.200819290E-1,-9.473343050E-1,1.152578379E0
8.380110375E0,9.596741959E-1,1.179550043E-1,-1.828340135E0,2.068263908E0
8.390056375E0,1.023795786E0,2.465177348E-1,-2.388239685E0,2.610099155E0
8.400002375E0,8.824358393E-1,3.100401315E-1,-2.759220960E0,2.913437522E0
8.409948375E0,7.246724792E-1,3.588715450E-1,-3.110399469E0,3.213802086E0
8.419895208E0,5.615852658E-1,4.679437517E-1,-3.461194401E0,3.537543788E0
8.429841208E0,4.489257558E-1,5.417015532E-1,-3.732768332E0,3.798491060E0
8.439787208E0,3.081820326E-1,6.244797081E-1,-3.855009638E0,3.917403525E0
8.449733208E0,1.484308384E-1,6.983279952E-1,-3.908454359E0,3.973123353E0
8.459679208E0,6.537150554E-3,7.049224851E-1,-3.722957289E0,3.789111957E0
8.469626208E0,2.668484671E-2,7.865770975E-1,-3.367203918E0,3.457958623E0
8.479572208E0,1.207847095E-1,7.923021063E-1,-3.000388784E0,3.105586004E0
8.489518208E0,1.239208088E-1,7.624473926E-1,-2.656915151E0,2.766926185E0
8.499464208E0,1.374039216E-1,8.855280662E-1,-2.390831171E0,2.553255467E0
8.509411208E0,2.835735139E-1,9.948218822E-1,-2.179770659E0,2.412775299E0
8.519357208E0,3.870914503E-1,1.040138388E0,-1.979874821E0,2.269720680E0
8.529303208E0,4.356109149E-1,1.060392559E0,-1.686030015E0,2.038844393E0
8.539249208E0,4.461458433E-1,1.057930881E0,-1.284581823E0,1.722908681E0
8.549196208E0,4.461222718E-1,1.049993578E0,-8.338275701E-1,1.413074666E0
8.559142208E0,3.908884860E-1,1.017557319E0,-4.535468835E-1,1.180644519E0
8.569088208E0,2.378153603E-1,9.966242865E-1,-2.702243936E-1,1.059640192E0
8.579034208E0,3.200415015E-2,9.997186330E-1,-2.683222944E-1,1.035595705E0
8.588980208E0,-2.166661275E-1,1.033824565E0,-4.378704983E-1,1.143445676E0
8.598927208E0,-4.719440512E-1,1.111968801E0,-4.906205696E-1,1.303807634E0
8.608873208E0,-7.355797291E-1,1.115905147E0,-3.597335708E-1,1.384099013E0
8.618819208E0,-8.871038908E-1,1.085162534E0,1.656457722E-2,1.401715172E0
8.628765208E0,-8.393939732E-1,1.062572693E0,4.698448277E-1,1.433316829E0
8.638712208E0,-6.222168356E-1,1.087792026E0,7.484324938E-1,1.459656289E0
8.648658208E0,-4.435456962E-1,1.079084060E0,7.576243168E-1,1.391096618E0
8.658604208E0,-3.184466004E-1,1.135834212E0,7.038369495E-1,1.373649899E0
8.668550208E0,-1.033701481E-1,1.218081732E0,6.700043750E-1,1.394028104E0
8.678497208E0,2.225027816E-1,1.267779557E0,6.460980338E-1,1.440213582E0
8.688443208E0,4.605273626E-1,1.258893836E0,4.903054047E-1,1.427339669E0
8.698389208E0,4.205445405E-1,1.322202809E0,5.334531784E-2,1.388496922E0
8.708335208E0,1.393610030E-1,1.557555870E0,-4.961105204E-1,1.640587525E0
8.718281208E0,-1.223617584E-1,1.628332323E0,-6.870455003E-1,1.771572768E0
8.728228208E0,-2.974805316E-1,1.451947846E0,-2.609553874E-2,1.482338758E0
8.738174208E0,-4.135539018E-1,8.312097716E-1,1.766571318E0,1.995673003E0
8.748120208E0,-7.721756977E-1,-1.978671464E-1,3.961064681E0,4.040475235E0
8.758066208E0,-1.184679074E0,-1.335451430E0,6.150508974E0,6.404346623E0
8.768013208E0,-1.456171875E0,-2.092312685E0,7.754835845E0,8.163068534E0
8.777959208E0,-1.375257812E0,-2.305853586E0,7.901130842E0,8.344828542E0
8.787905208E0,-1.049300829E0,-2.108130573E0,6.511517238E0,6.924240282E0
8.797851208E0,-6.027710794E-1,-1.711255196E0,4.364378720E0,4.726471086E0
8.807798208E0,-1.511285610E-1,-1.362411187E0,2.366747074E0,2.735049506E0
8.817744208E0,2.330668730E-1,-1.154256450E0,8.247690636E-1,1.437662035E0
8.827690208E0,5.573762938E-1,-1.044440185E0,-6.255936027E-3,1.183876163E0
8.837636208E0,7.842323640E-1,-1.030943934E0,-8.212706745E-2,1.297925518E0
8.847582208E0,1.004806880E0,-1.049913763E0,2.593421406E-1,1.476216150E0
8.857529208E0,9.232317898E-1,-1.057743770E0,3.907349235E-1,1.457344366E0
8.867475208E0,4.990884342E-1,-1.151185200E0,7.758436561E-2,1.257114141E0
8.877421208E0,-8.216617070E-3,-1.250652477E0,-4.132086968E-1,1.317171424E0
8.887367208E0,-4.070498246E-1,-1.332136936E0,-7.763079250E-1,1.594657446E0
8.897314208E0,-6.410416541E-1,-1.349269278E0,-8.825611889E-1,1.735043584E0
8.907260208E0,-8.221665410E-1,-1.396862397E0,-8.799901682E-1,1.844333233E0
8.917206208E0,-9.473925579E-1,-1.390223469E0,-7.674078780E-1,1.849104865E0
8.927152208E0,-9.429450195E-1,-1.299330694E0,-6.656750965E-1,1.737966886E0
8.937099208E0,-9.033521336E-1,-1.168384054E0,-7.626336265E-1,1.662160167E0
8.947045208E0,-1.010012949E0,-1.037735475E0,-9.959042019E-1,1.757511380E0
8.956991208E0,-1.165932389E0,-9.158355005E-1,-1.300754637E0,1.972337604E0
8.966937208E0,-1.348394388E0,-8.490702380E-1,-1.623350787E0,2.274720966E0
8.976884208E0,-1.419748545E0,-7.451348104E-1,-1.896651986E0,2.483586232E0
8.986830208E0,-1.333599763E0,-5.862048577E-1,-2.172359313E0,2.615582048E0
8.996776208E0,-1.152706133E0,-4.461174113E-1,-2.310700927E0,2.620513490E0
9.006722208E0,-9.309322073E-1,-2.763880898E-1,-2.380268176E0,2.570739531E0
9.016668208E0,-7.695868430E-1,-3.656366274E-2,-2.502363301E0,2.618286253E0
9.026615208E0,-5.670868014E-1,2.552232157E-1,-2.659889629E0,2.731618416E0
9.036561208E0,-2.423596153E-1,5.454654059E-1,-2.712495275E0,2.777391097E0
9.046507208E0,-2.040306645E-2,8.770370319E-1,-2.655695422E0,2.796842579E0
9.056453208E0,-6.858652398E-2,1.086226727E0,-2.617407854E0,2.834681020E0
9.066400208E0,-2.077807899E-1,1.212343275E0,-2.462509264E0,2.752617109E0
9.076346208E0,-2.463215425E-1,1.337944390E0,-2.132497090E0,2.529488749E0
9.086292208E0,-3.138626391E-1,1.444697007E0,-1.751662672E0,2.292156477E0
9.096238208E0,-3.686693589E-1,1.484738155E0,-1.469110594E0,2.121002221E0
9.106185208E0,-5.049611583E-1,1.434892980E0,-1.200184867E0,1.937613829E0
9.116131208E0,-8.281268272E-1,1.336030304E0,-8.297713566E-1,1.777439597E0
9.126077208E0,-1.005711225E0,1.302744445E0,-5.501610124E-1,1.735302652E0
9.136023208E0,-8.677878331E-1,1.423881504E0,-5.855746740E-1,1.767312072E0
9.145970208E0,-8.311429672E-1,1.600592547E0,-8.069555211E-1,1.975821942E0
9.155916208E0,-8.578463240E-1,1.766044191E0,-1.083293763E0,2.242395545E0
9.165862208E0,-7.267503604E-1,1.921720169E0,-1.406364707E0,2.489786373E0
9.175808208E0,-4.205611320E-1,2.051218454E0,-1.599870708E0,2.635138534E0
9.185754208E0,-9.620676074E-2,2.115021809E0,-1.395421059E0,2.535699691E0
9.195701208E0,1.418254947E-1,1.951283399E0,-6.833143920E-1,2.072327178E0
9.205647208E0,1.854144957E-1,1.586446086E0,3.963166755E-1,1.645678166E0
9.215593208E0,-7.672550099E-2,1.229376799E0,1.454843972E0,1.906259452E0
9.225539208E0,-4.121670154E-1,9.587167874E-1,2.376460469E0,2.595492995E0
9.235486208E0,-6.763025571E-1,7.284952426E-1,3.091529920E0,3.247406305E0
9.245432208E0,-8.404843327E-1,7.218900816E-1,3.393348573E0,3.569643364E0
9.255378208E0,-7.368123952E-1,9.085032383E-1,2.870094109E0,3.099308121E0
9.265324208E0,-3.468165598E-1,1.075975534E0,1.824972138E0,2.146748328E0
9.275271208E0,-9.503965650E-2,1.209176569E0,1.116995945E0,1.648884608E0
9.285217208E0,8.370892201E-2,9.888727789E-1,1.358375439E0,1.682278333E0
9.295163208E0,1.177272644E-1,3.301894905E-1,2.751193902E0,2.773436982E0
9.305109208E0,5.845040306E-2,-6.219252057E-1,4.858857867E0,4.898847536E0
9.315056208E0,1.020645745E-1,-1.559189875E0,7.048636621E0,7.219748503E0
9.325002208E0,1.562840876E-1,-2.163772092E0,8.650297746E0,8.918182857E0
9.334948208E0,1.702751042E-1,-2.483204022E0,8.911492285E0,9.252566701E0
9.344894208E0,2.485875578E-1,-2.437791183E0,7.527512473E0,7.916316420E0
9.354841208E0,6.523350395E-1,-2.127713337E0,4.800879216E0,5.291610935E0
9.364787208E0,1.151447959E0,-1.567324229E0,2.003560138E0,2.792237609E0
9.374733208E0,1.460969808E0,-9.194898641E-1,-3.972545689E-1,1.771356989E0
9.384679208E0,1.603076152E0,-4.743188247E-1,-2.184474159E0,2.750774227E0
9.394626208E0,1.594966356E0,-2.524409643E-1,-2.816994374E0,3.247014231E0
9.404572208E0,1.682688624E0,-2.375881594E-1,-2.251415423E0,2.820773041E0
9.414518208E0,1.912272384E0,-4.447816148E-1,-1.090451340E0,2.245818443E0
9.424463875E0,1.841408954E0,-7.442473492E-1,-2.071791297E-1,1.996901160E0
9.434409875E0,1.431846873E0,-9.580338326E-1,-1.246193683E-1,1.727293918E0
9.444356875E0,9.362196252E-1,-1.007283030E0,-5.948471886E-1,1.498322217E0
9.454302875E0,4.411267396E-1,-1.103072701E0,-9.202692980E-1,1.502750068E0
9.464248875E0,1.903154126E-1,-1.156216144E0,-8.325774354E-1,1.437442491E0
9.474194875E0,1.703426761E-1,-1.218709285E0,-5.062893534E-1,1.330638139E0
9.484141875E0,1.655752036E-1,-1.296128612E0,-2.672844136E-1,1.333718668E0
9.494087875E0,2.043262549E-1,-1.358863974E0,-2.881496179E-1,1.404026610E0
9.504033875E0,3.528833384E-1,-1.418112348E0,-4.792307782E-1,1.537930890E0
9.513979875E0,4.551498976E-1,-1.346003169E0,-9.727743709E-1,1.721968623E0
9.523926875E0,5.508027443E-1,-1.231920630E0,-1.499471676E0,2.017282184E0
9.533872875E0,5.033343533E-1,-1.203652558E0,-1.963619562E0,2.357525553E0
9.543818875E0,2.314391544E-1,-1.086262980E0,-2.356710913E0,2.605305677E0
9.553764875E0,-8.952439824E-2,-9.347280005E-1,-2.704833083E0,2.863189316E0
9.563711875E0,-3.851669489E-1,-8.216115671E-1,-2.987718453E0,3.122476693E0
9.573657875E0,-6.340986702E-1,-6.573393059E-1,-3.048034821E0,3.181932174E0
9.583603875E0,-6.606920993E-1,-4.290882728E-1,-2.988566299E0,3.090656778E0
9.593549875E0,-5.557214221E-1,-2.154760364E-1,-2.987804992E0,3.046676039E0
9.603496875E0,-4.009931324E-1,9.796132743E-3,-3.068122346E0,3.094231114E0
9.613442875E0,-3.152246384E-1,1.569340056E-1,-3.050766640E0,3.071021320E0
9.623388875E0,-2.393775719E-1,2.884352544E-1,-2.880313872E0,2.904600578E0
9.633334875E0,-1.122833147E-1,4.668601164E-1,-2.759012214E0,2.800484656E0
9.643281875E0,-8.330250397E-2,6.212742645E-1,-2.591134560E0,2.665876840E0
9.653227875E0,-1.537939777E-1,7.032957897E-1,-2.331155657E0,2.439787748E0
9.663173875E0,-4.001635953E-1,6.402677751E-1,-1.745618405E0,1.901908868E0
9.673119875E0,-7.045141301E-1,5.829124367E-1,-8.216103977E-1,1.229296837E0
9.683065875E0,-9.161576821E-1,4.543567228E-1,1.089324582E-1,1.028421708E0
9.693012875E0,-9.119381120E-1,3.780277544E-1,8.458354121E-1,1.299989864E0
9.702958875E0,-7.023315107E-1,4.221619534E-1,9.821445340E-1,1.279100524E0
9.712904875E0,-5.818711573E-1,4.710511082E-1,4.687502289E-1,8.832836279E-1
9.722850875E0,-6.429455806E-1,5.725301206E-1,-1.566925156E-1,8.750556000E-1
9.732797875E0,-6.878018376E-1,7.061761281E-1,-8.489940780E-1,1.300979261E0
9.742743875E0,-5.725085590E-1,9.094203740E-1,-1.373639596E0,1.744046216E0
9.752689875E0,-3.201012162E-1,1.106684380E0,-1.285346639E0,1.726073894E0
9.762635875E0,5.058974437E-2,1.108363408E0,-7.173124427E-1,1.321198663E0
9.772582875E0,4.742876883E-1,1.128610269E0,9.408345401E-2,1.227828020E0
9.782528875E0,6.720919771E-1,1.001556998E0,9.139040190E-1,1.513289332E0
9.792474875E0,5.494959647E-1,7.459181911E-1,1.535056077E0,1.792968745E0
9.802420875E0,4.320158640E-1,6.460363457E-1,2.090230492E0,2.230036810E0
9.812367875E0,3.839503626E-1,6.273056674E-1,2.398138436E0,2.508385584E0
9.822313875E0,2.196697325E-1,7.488783440E-1,1.916883937E0,2.069666058E0
9.832259875E0,-1.233260008E-1,8.804392344E-1,9.950300431E-1,1.334341536E0
9.842205875E0,-4.839514912E-1,1.064706634E0,5.000351715E-1,1.271945139E0
9.852152875E0,-9.233695648E-1,1.104133240E0,5.359592950E-1,1.535895156E0
9.862098875E0,-1.120199488E0,8.056814128E-1,1.408323525E0,1.971635002E0
9.872044875E0,-1.069680422E0,3.093770573E-1,2.981618053E0,3.182762414E0
9.881990875E0,-1.091457646E0,-2.564021605E-1,4.408490700E0,4.548825355E0
9.891937875E0,-1.207724267E0,-8.119876349E-1,5.403763987E0,5.596301194E0
9.901883875E0,-1.266746939E0,-1.061272272E0,5.727395679E0,5.961040841E0
9.911829875E0,-1.139077736E0,-1.111748361E0,5.343055855E0,5.575098957E0
9.921775875E0,-1.137056499E0,-1.061513762E0,4.693695075E0,4.944742906E0
9.931722875E0,-1.274247016E0,-9.799863267E-1,4.057594026E0,4.364418396E0
9.941668875E0,-1.385684714E0,-1.006273946E0,3.439720502E0,3.842445382E0
9.951614875E0,-1.425262177E0,-1.204862347E0,2.996356544E0,3.530045055E0
9.961560875E0,-1.444161986E0,-1.359215684E0,2.814763661E0,3.443249277E0
9.971507875E0,-1.342108339E0,-1.360107384E0,2.570429569E0,3.202851083E0
9.981453875E0,-1.054008715E0,-1.295932438E0,2.260080997E0,2.810398792E0
9.991399875E0,-7.169783474E-1,-1.099443481E0,1.741943430E0,2.181100830E0
1.000134588E1,-2.890346305E-1,-8.174296385E-1,7.520501661E-1,1.147741994E0
1.001129188E1,-1.331774902E-1,-6.359104300E-1,-1.850368935E-1,6.755419830E-1
1.002123888E1,-2.193106587E-1,-5.542520168E-1,-8.263355327E-1,1.018883151E0
1.003118487E1,-6.001334553E-2,-5.510243538E-1,-1.346593884E0,1.456208958E0
1.004113088E1,-5.417514738E-2,-5.227828869E-1,-1.596063001E0,1.680373172E0
1.005107688E1,-1.920599842E-1,-5.539757359E-1,-1.636876566E0,1.738718220E0
1.006102388E1,-1.199573924E-1,-6.787763679E-1,-1.398597266E0,1.559231043E0
1.007096988E1,6.825744451E-2,-5.752897140E-1,-1.152365168E0,1.289791771E0
1.008091588E1,1.673754152E-1,-5.390954491E-1,-1.419318629E0,1.527450098E0
1.009086188E1,1.141350548E-1,-5.179323292E-1,-1.807525216E0,1.883727187E0
1.010080888E1,-1.451783156E-1,-5.947121179E-1,-2.245537802E0,2.327487759E0
1.011075488E1,-3.005853117E-1,-6.077084318E-1,-2.653921376E0,2.739153106E0
1.012070088E1,-1.429442498E-1,-5.094649762E-1,-2.845473822E0,2.894254463E0
1.013064688E1,1.997061323E-1,-3.594178212E-1,-3.069291789E0,3.096710480E0
1.014059388E1,5.468787510E-1,-2.140110165E-1,-3.360141066E0,3.411073888E0
1.015053988E1,4.288664440E-1,-1.687371951E-1,-3.463333313E0,3.493862662E0
1.016048588E1,2.299829053E-1,-2.544909981E-1,-3.216115374E0,3.234355562E0
1.017043188E1,3.779553951E-1,-1.706767166E-1,-2.890116144E0,2.919717820E0
1.018037887E1,4.329122787E-1,-1.189879149E-2,-2.597464170E0,2.633320098E0
1.019032488E1,2.643920518E-1,4.477476150E-2,-2.526606442E0,2.540796735E0
1.020027088E1,-4.754846133E-2,3.288620263E-2,-2.639787487E0,2.640420484E0
1.021021688E1,-4.124715457E-1,6.622556448E-2,-2.403593888E0,2.439627468E0
1.022016388E1,-7.350603501E-1,4.297118783E-3,-1.775685958E0,1.921820180E0
1.023010988E1,-9.830539222E-1,-1.726653546E-2,-1.166922981E0,1.525910348E0
1.024005588E1,-1.060885040E0,1.678767774E-1,-9.218895614E-1,1.415464604E0
1.025000188E1,-8.202340362E-1,3.611506435E-1,-1.192998054E0,1.492132038E0
1.025994887E1,-2.794827470E-1,6.947123694E-1,-1.531246031E0,1.704538145E0
1.026989488E1,3.781999549E-1,1.070808204E0,-1.533346351E0,1.908092358E0
1.027984088E1,6.827668002E-1,1.108147646E0,-1.191531572E0,1.764627212E0
1.028978688E1,7.007567094E-1,1.067205734E0,-8.372546232E-1,1.526755825E0
1.029973388E1,5.992725076E-1,9.323160240E-1,-2.768305779E-1,1.142355407E0
1.030967988E1,2.143693960E-1,7.199811119E-1,5.038551575E-1,9.045424585E-1
1.031962588E1,-1.757529403E-1,6.218388131E-1,1.228409961E0,1.388007075E0
1.032957188E1,-4.047104998E-1,6.439219925E-1,2.183653210E0,2.312307822E0
1.033951788E1,-5.058123302E-1,6.616522121E-1,3.259884707E0,3.364591812E0
1.034946488E1,-7.337711122E-1,7.172200567E-1,3.748985000E0,3.886864184E0
1.035941088E1,-8.375525388E-1,8.977396837E-1,3.417663635E0,3.631508711E0
1.036935688E1,-4.674440705E-1,1.128741247E0,2.788261156E0,3.044168365E0
1.037930288E1,3.047216138E-1,1.364744519E0,2.021109971E0,2.457695745E0
1.038924988E1,1.073381271E0,1.400078658E0,1.269498931E0,2.173475359E0
1.039919588E1,1.575756791E0,1.300076360E0,6.604874468E-1,2.146963361E0
1.040914188E1,1.882037601E0,9.850403675E-1,5.357850480E-1,2.190761437E0
1.041908788E1,1.856171127E0,3.759613484E-1,1.347470382E0,2.324305190E0
1.042903563E1,1.335815419E0,-3.926522255E-1,2.580563963E0,2.932215710E0
1.043898163E1,6.944067062E-1,-1.106897804E0,3.691233221E0,3.915689736E0
1.044892763E1,3.084216222E-2,-1.649929598E0,4.134163899E0,4.451351488E0
1.045887363E1,-6.047745913E-1,-2.005535035E0,3.707057540E0,4.257957103E0
1.046882063E1,-9.346660200E-1,-2.139469310E0,3.021026532E0,3.818053274E0
1.047876663E1,-8.475214568E-1,-2.159244009E0,2.254536667E0,3.234743095E0
1.048871262E1,-4.704768020E-1,-2.223679448E0,1.693334942E0,2.834339770E0
1.049865863E1,9.578009672E-2,-2.239674506E0,1.528945152E0,2.713482817E0
1.050860563E1,5.063031309E-1,-2.315564641E0,1.619443093E0,2.870675600E0
1.051855163E1,6.822355807E-1,-2.380236893E0,1.827778802E0,3.077620575E0
1.052849763E1,7.177376814E-1,-2.438987669E0,1.821128179E0,3.127349689E0
1.053844363E1,8.389226876E-1,-2.296488977E0,1.464012991E0,2.849734538E0
1.054839063E1,9.882788479E-1,-2.040345849E0,9.158891487E-1,2.445109240E0
1.055833663E1,8.866168908E-1,-1.744610930E0,8.528748751E-2,1.958834032E0
1.056828262E1,8.897035629E-1,-1.423873610E0,-7.211330134E-1,1.827298911E0
1.057822863E1,1.160444119E0,-1.013259030E0,-1.401857089E0,2.082913276E0
1.058817563E1,1.226369868E0,-6.706791437E-1,-2.039292473E0,2.472348551E0
1.059812163E1,1.241396335E0,-4.093319929E-1,-2.489499426E0,2.811801013E0
1.060806763E1,1.229985932E0,-2.370271191E-1,-2.834012695E0,3.098495636E0
1.061801363E1,1.131628602E0,-1.690909517E-1,-2.956665645E0,3.170338590E0
1.062796063E1,1.115672866E0,-4.105768651E-2,-2.970190839E0,3.173081357E0
1.063790663E1,1.013177389E0,-2.359614640E-2,-2.947034111E0,3.116423471E0
1.064785262E1,7.423999214E-1,-9.212083608E-2,-2.763583567E0,2.863046983E0
1.065779863E1,4.558726135E-1,-1.680676889E-1,-2.518171833E0,2.564616145E0
1.066774563E1,3.020241470E-1,-2.081313488E-1,-2.358590793E0,2.386941091E0
1.067769163E1,3.584859212E-1,-1.916135493E-1,-2.327337425E0,2.362567967E0
1.068763763E1,3.295534230E-1,-2.392335659E-1,-2.176052415E0,2.213829774E0
1.069758363E1,3.928033029E-1,-2.142984071E-1,-1.928682448E0,1.979907631E0
1.070752963E1,5.458665980E-1,-1.620041263E-1,-1.755979671E0,1.845990327E0
1.071747662E1,5.005486301E-1,-1.831450269E-1,-1.756038728E0,1.835146601E0
1.072742263E1,4.102115603E-1,-1.263884434E-1,-1.924696986E0,1.971980236E0
1.073736863E1,4.450497097E-1,-8.686389685E-2,-2.087544866E0,2.136225210E0
1.074731563E1,3.513314874E-1,-5.720886558E-2,-2.035437403E0,2.066328166E0
1.075726163E1,2.502266968E-1,-1.251397705E-1,-1.816086709E0,1.837510353E0
1.076720763E1,2.224395586E-1,-1.456684676E-1,-1.602532361E0,1.624441020E0
1.077715363E1,1.528386889E-1,-1.310442889E-1,-1.440158690E0,1.454162757E0
1.078709963E1,1.139108507E-1,-3.262161613E-3,-1.343534621E0,1.348358855E0
1.079704662E1,8.789037555E-2,1.808026323E-1,-1.337609637E0,1.352632194E0
1.080699263E1,-7.928356647E-2,3.096974847E-1,-1.432554971E0,1.467791593E0
1.081693863E1,-2.199097607E-1,4.370179743E-1,-1.429627270E0,1.511019240E0
1.082688463E1,-4.265254381E-1,5.814991647E-1,-1.615259410E0,1.768934196E0
1.083683163E1,-4.168835988E-1,8.014228857E-1,-2.002977755E0,2.197268865E0
1.084677763E1,-3.742215825E-1,1.004568021E0,-2.274231259E0,2.514224835E0
1.085672363E1,-2.492721388E-1,1.180668323E0,-2.098579731E0,2.420774912E0
1.086666963E1,4.159950413E-2,1.271820275E0,-1.446812822E0,1.926791289E0
1.087661662E1,1.532890707E-1,1.062070709E0,-1.602563936E-1,1.084976425E0
1.088656263E1,2.330267465E-1,8.670564196E-1,1.408066832E0,1.669952245E0
1.089650863E1,3.752080809E-1,6.124771285E-1,2.874429234E0,2.962811631E0
1.090645463E1,4.398932695E-1,4.317125031E-1,3.884329916E0,3.932925206E0
1.091640163E1,7.614277844E-1,5.795973578E-1,4.021761119E0,4.134037719E0
1.092634763E1,7.959891412E-1,8.177772555E-1,3.369283773E0,3.557306775E0
1.093629363E1,6.143514535E-1,1.037043457E0,2.179512212E0,2.490614447E0
1.094623963E1,5.288523699E-1,1.369418491E0,8.519194400E-1,1.697279754E0
1.095618663E1,3.762658422E-1,1.646094702E0,-3.136645281E-1,1.717436808E0
1.096613263E1,-2.918156759E-1,1.623625606E0,-1.128430760E0,1.998667676E0
1.097607863E1,-8.143013781E-1,1.368413062E0,-1.166749318E0,1.974068138E0
1.098602463E1,-7.815198407E-1,9.806379989E-1,1.134792531E-1,1.259087641E0
1.099597163E1,-4.348384246E-1,4.444094396E-1,2.091612189E0,2.182069145E0
1.100591763E1,-4.466390560E-1,-1.077179915E-1,3.677995124E0,3.706580331E0
1.101586363E1,-5.253425056E-1,-4.760767901E-1,4.619153016E0,4.673243888E0
1.102580963E1,-4.067717164E-1,-5.462436703E-1,4.631032219E0,4.680844453E0
1.103575663E1,-7.925973907E-3,-4.076921412E-1,3.819565571E0,3.841270214E0
1.104570263E1,3.768537066E-1,-2.375697407E-1,2.812492602E0,2.847555572E0
1.105564863E1,7.401202382E-1,-2.459379834E-1,2.132639177E0,2.270773727E0
1.106559463E1,1.110964177E0,-3.832107264E-1,1.806252862E0,2.154910964E0
1.107554163E1,1.365897297E0,-5.521715775E-1,1.873879420E0,2.383693134E0
1.108548763E1,1.405072180E0,-8.215858394E-1,2.043090824E0,2.612173662E0
1.109543363E1,1.280255761E0,-1.043943464E0,2.000312009E0,2.594247657E0
1.110537963E1,1.083664769E0,-1.218257441E0,1.558994578E0,2.255868927E0
1.111532663E1,7.415585071E-1,-1.330326346E0,9.210458082E-1,1.779888363E0
1.112527263E1,4.968994559E-1,-1.357505666E0,2.946283329E-1,1.475308970E0
1.113521863E1,4.205614974E-1,-1.337387151E0,-1.995683938E-1,1.416087535E0
1.114516463E1,2.724061359E-1,-1.310989311E0,-6.466400707E-1,1.486957114E0
1.115511163E1,7.371270485E-2,-1.300908127E0,-9.830865204E-1,1.632254460E0
1.116505763E1,3.432257116E-2,-1.247835874E0,-1.298215776E0,1.801009886E0
1.117500363E1,2.210166387E-1,-1.155039392E0,-1.643166416E0,2.020633619E0
1.118494963E1,2.443134076E-1,-1.115722129E0,-2.022809172E0,2.322989853E0
1.119489663E1,5.623267293E-2,-1.110863970E0,-2.336638007E0,2.587867471E0
1.120484263E1,-2.917614430E-3,-1.076778211E0,-2.482730105E0,2.706179706E0
1.121478863E1,1.221790329E-2,-1.102566771E0,-2.372886066E0,2.616560919E0
1.122473463E1,-3.717732802E-2,-1.130122359E0,-2.093713093E0,2.379536345E0
1.123468163E1,-2.238273952E-1,-1.165174371E0,-1.908212516E0,2.246999115E0
1.124462763E1,-3.942619640E-1,-1.141030633E0,-1.782564037E0,2.152888280E0
1.125457363E1,-2.266797401E-1,-9.382676125E-1,-1.588417182E0,1.858708950E0
1.126451963E1,9.870838232E-2,-7.331797394E-1,-1.560160512E0,1.726672146E0
1.127446562E1,4.802313099E-1,-3.594914961E-1,-1.765137581E0,1.864287243E0
1.128441263E1,8.671394500E-1,7.197366983E-2,-2.179076010E0,2.346376631E0
1.129435863E1,1.036690578E0,5.259599715E-1,-2.739366154E0,2.975817227E0
1.130430463E1,8.617106026E-1,8.634095111E-1,-3.210789730E0,3.434704039E0
1.131425063E1,5.559753375E-1,1.041454889E0,-3.370636234E0,3.571403853E0
1.132419763E1,3.881046632E-1,1.073285377E0,-3.140909071E0,3.341837297E0
1.133414363E1,3.519428503E-1,1.137386063E0,-2.643830252E0,2.899542934E0
1.134408962E1,9.308957353E-2,9.329785135E-1,-1.761722807E0,1.995690813E0
1.135403563E1,-3.204247865E-1,7.757322666E-1,-8.192586476E-1,1.172867139E0
1.136398263E1,-6.306777567E-1,6.936297575E-1,-2.816755807E-1,9.788860025E-1
1.137392863E1,-5.835744146E-1,7.269998172E-1,-1.070139867E-1,9.383708355E-1
1.138387463E1,-3.669026957E-1,8.679215151E-1,-1.626777256E-1,9.562266399E-1
1.139382063E1,-1.486111519E-1,9.321303749E-1,-5.378140318E-1,1.086368374E0
1.140376763E1,1.395297317E-1,9.440250733E-1,-1.081050187E0,1.441985226E0
1.141371363E1,1.468770505E-1,9.283828944E-1,-1.307371346E0,1.610182444E0
1.142365983E1,5.413688466E-2,7.233444303E-1,-1.096516657E0,1.314726871E0
1.143360583E1,1.296115749E-1,5.200262171E-1,-2.609080249E-1,5.960699827E-1
1.144355283E1,2.077351268E-2,2.615675908E-1,1.300572204E0,1.326776998E0
1.145349883E1,-3.672234521E-1,-2.963018060E-2,3.050441535E0,3.072608756E0
1.146344483E1,-6.405781160E-1,-2.216623905E-1,4.100524283E0,4.156172991E0
1.147339083E1,-7.084399507E-1,-1.217571563E-1,4.229125605E0,4.289780339E0
1.148333783E1,-5.576327673E-1,1.984863666E-1,3.168944131E0,3.223749067E0
1.149328383E1,-2.425909641E-1,6.464596841E-1,1.522257106E0,1.671534384E0
1.150322983E1,8.236205243E-2,1.043133917E0,-1.353864312E-1,1.055102536E0
1.151317583E1,3.172721871E-1,1.293313763E0,-1.365331287E0,1.907210437E0
1.152312283E1,3.760285183E-1,1.131595273E0,-1.342894936E0,1.795904262E0
1.153306883E1,5.049244305E-1,5.747321820E-1,5.235889256E-1,9.270442948E-1
1.154301483E1,5.857164690E-1,-2.709748837E-1,3.474227260E0,3.533659042E0
1.155296083E1,3.491637053E-1,-1.162870568E0,6.257356900E0,6.374064529E0
1.156290783E1,1.065160415E-1,-1.768267595E0,8.017720814E0,8.211087809E0
1.157285383E1,-8.164043292E-2,-2.092938337E0,7.953611941E0,8.224779569E0
1.158279983E1,-3.365792546E-1,-2.052463033E0,6.152129822E0,6.494196752E0
1.159274583E1,-3.016038967E-1,-1.703725152E0,3.623213146E0,4.015136088E0
1.160269283E1,-9.262135774E-3,-1.331703657E0,1.319172782E0,1.874496531E0
1.161263883E1,2.628466510E-1,-9.415294817E-1,-5.830486768E-1,1.138205555E0
1.162258483E1,6.791562907E-1,-6.702300775E-1,-1.875996112E0,2.104714478E0
1.163253083E1,1.178819506E0,-4.269838598E-1,-2.283935882E0,2.605435426E0
1.164247783E1,1.483811225E0,-4.713905391E-1,-1.554853579E0,2.200335076E0
1.165242383E1,1.732575898E0,-6.606543848E-1,-8.873442113E-2,1.856382842E0
1.166236983E1,1.715554654E0,-7.832973942E-1,1.157653974E0,2.212881674E0
1.167231583E1,1.347754995E0,-9.161282998E-1,1.685617202E0,2.344576708E0
1.168226283E1,1.054111333E0,-9.887194356E-1,1.794128076E0,2.303825596E0
1.169220883E1,8.336110038E-1,-9.032240796E-1,1.569276322E0,1.993326169E0
1.170215483E1,6.736813235E-1,-7.931677866E-1,1.064872695E0,1.488930999E0
1.171210083E1,5.569148389E-1,-7.022178555E-1,3.664315563E-1,9.682644989E-1
1.172204783E1,4.533652909E-1,-6.023605683E-1,-3.848169565E-1,8.464410383E-1
1.173199383E1,3.724685141E-1,-4.670931280E-1,-1.118978151E0,1.268471871E0
1.174193983E1,3.589118908E-1,-3.384634468E-1,-1.858255075E0,1.922625073E0
1.175188583E1,2.039760067E-1,-3.022086632E-1,-2.337663023E0,2.365925759E0
1.176183283E1,-1.275145441E-1,-3.678994998E-1,-2.601602245E0,2.630578690E0
1.177177883E1,-4.857503506E-1,-3.878390899E-1,-2.734970802E0,2.804717071E0
1.178172483E1,-7.922233151E-1,-4.151827168E-1,-2.850185509E0,2.987231478E0
1.179167083E1,-9.047914258E-1,-3.766934198E-1,-2.881882095E0,3.043975997E0
1.180161783E1,-9.036497569E-1,-2.958109322E-1,-2.794793665E0,2.952110876E0
1.181156383E1,-7.902848900E-1,-1.967322019E-1,-2.608797829E0,2.732961741E0
1.182150983E1,-5.858486161E-1,-7.023704678E-2,-2.390103777E0,2.461858629E0
1.183145583E1,-5.585469429E-1,2.118446231E-2,-2.221965922E0,2.291190962E0
1.184140183E1,-5.408973417E-1,1.617135197E-1,-2.204664595E0,2.275800337E0
1.185134883E1,-2.859317873E-1,3.075305066E-1,-2.115586942E0,2.156858853E0
1.186129483E1,-9.491255265E-2,4.401617298E-1,-1.878792835E0,1.931997220E0
1.187124083E1,7.227533134E-3,5.444406813E-1,-1.687247990E0,1.772927995E0
1.188118683E1,2.120947743E-1,6.343246651E-1,-1.557863726E0,1.695373517E0
1.189113383E1,3.276237322E-1,6.891662854E-1,-1.400852537E0,1.595203846E0
1.190107983E1,2.891024582E-1,6.693015397E-1,-1.152170455E0,1.363466736E0
1.191102583E1,3.766535126E-1,6.884462008E-1,-8.700516558E-1,1.171672277E0
1.192097183E1,5.472621091E-1,8.059123778E-1,-7.234982121E-1,1.213441486E0
1.193091883E1,6.531688524E-1,8.828669983E-1,-6.906333518E-1,1.297327296E0
1.194086483E1,6.440189832E-1,9.700311497E-1,-7.067283976E-1,1.362052095E0
1.195081083E1,5.347014128E-1,1.073768649E0,-7.834660864E-1,1.432726010E0
1.196075683E1,4.035428839E-1,1.194366595E0,-7.964983606E-1,1.491230385E0
1.197070383E1,2.434097204E-1,1.239991834E0,-6.835541278E-1,1.436688653E0
1.198064983E1,1.096091637E-1,1.310255778E0,-3.740113020E-1,1.366992621E0
1.199059583E1,1.356617620E-1,1.286411417E0,1.634612525E-1,1.303832055E0
1.200054183E1,2.652149743E-1,1.214867518E0,9.392353266E-1,1.558334068E0
1.201048883E1,6.197266527E-1,1.171408964E0,1.718628243E0,2.170240337E0
1.202043483E1,1.066459776E0,1.124615159E0,2.227852314E0,2.713931031E0
1.203038083E1,1.325314697E0,9.934723449E-1,2.506299062E0,3.004160670E0
1.204032683E1,1.444229960E0,9.904543045E-1,2.669666174E0,3.192791473E0
1.205027383E1,1.366265818E0,9.174658504E-1,2.530857368E0,3.018884709E0
1.206021983E1,9.389815575E-1,8.990918523E-1,1.743898154E0,2.175139834E0
1.207016583E1,2.077191201E-1,9.693829858E-1,7.324543923E-1,1.232615124E0
1.208011183E1,-6.441644327E-1,9.221018153E-1,2.217001051E-1,1.146459991E0
1.209005883E1,-1.237810238E0,7.307648394E-1,5.660116446E-1,1.544849707E0
1.210000483E1,-1.446501457E0,3.617742491E-1,1.334275555E0,2.000884387E0
1.210995083E1,-1.356573035E0,-9.764996320E-2,2.406276006E0,2.764053207E0
1.211989683E1,-1.145160813E0,-4.768933538E-1,3.324973572E0,3.548840630E0
1.212984383E1,-9.459339700E-1,-7.527760980E-1,3.601654462E0,3.799128557E0
1.213978983E1,-7.258519357E-1,-7.438684496E-1,3.516923629E0,3.667281434E0
1.214973583E1,-3.919854236E-1,-7.993360144E-1,3.561713886E0,3.671293565E0
1.215968183E1,2.996698022E-3,-9.370984617E-1,3.777751547E0,3.892244758E0
1.216962883E1,3.672782332E-1,-1.141785800E0,3.911030642E0,4.090810286E0
1.217957483E1,3.911157965E-1,-1.371441627E0,3.694839783E0,3.960513190E0
1.218952083E1,1.504666927E-1,-1.574415147E0,3.180024020E0,3.551615977E0
1.219946683E1,-5.865853652E-2,-1.732798677E0,2.620087048E0,3.141796973E0
1.220941383E1,-2.941821903E-2,-1.748036814E0,2.056276295E0,2.699031370E0
1.221935983E1,7.083594784E-2,-1.699486505E0,1.447413331E0,2.233445200E0
1.222930583E1,-6.059630379E-2,-1.564682457E0,8.657147759E-1,1.789235919E0
1.223925183E1,-2.876070694E-1,-1.486182125E0,4.198856324E-1,1.570910271E0
1.224919883E1,-2.420008338E-1,-1.398838756E0,1.833862245E-2,1.419736093E0
1.225914483E1,-2.374042645E-3,-1.298470422E0,-2.078866428E-1,1.315008719E0
1.226909083E1,3.116057966E-1,-1.225259482E0,-2.933249885E-1,1.297843796E0
1.227903683E1,5.569037657E-1,-1.193143942E0,-3.356816339E-1,1.358829066E0
1.228898383E1,5.850849332E-1,-1.201866234E0,-4.285968143E-1,1.403745722E0
1.229892983E1,4.850757281E-1,-1.189156433E0,-6.721514726E-1,1.449544441E0
1.230887583E1,3.109009147E-1,-1.169374426E0,-1.146496317E0,1.666898237E0
1.231882183E1,-1.535127997E-2,-1.234924637E0,-1.669071336E0,2.076312511E0
1.232876883E1,-2.286738599E-1,-1.277774787E0,-2.064972859E0,2.439080370E0
1.233871483E1,-3.011515597E-1,-1.300709614E0,-2.467616222E0,2.805649226E0
1.234866083E1,-2.765988819E-1,-1.232377297E0,-2.734194292E0,3.011823230E0
1.235860683E1,5.208261162E-3,-1.113633796E0,-3.058427662E0,3.254871291E0
1.236855383E1,7.154002570E-2,-9.712114102E-1,-3.365216449E0,3.503291500E0
1.237849983E1,8.550917007E-2,-8.520255670E-1,-3.531333507E0,3.633672485E0
1.238844583E1,1.164437914E-1,-7.212821174E-1,-3.461307837E0,3.537578126E0
1.239839183E1,1.495134504E-1,-5.447760192E-1,-3.381389848E0,3.428255021E0
1.240833883E1,1.700347654E-1,-3.035549846E-1,-3.420479069E0,3.438129508E0
1.241828483E1,7.436349995E-2,-1.393517205E-1,-3.334168319E0,3.337907610E0
1.242823025E1,-1.508376986E-2,8.055036575E-2,-3.268345043E0,3.269372295E0
1.243817625E1,-1.322360245E-1,3.613234288E-1,-3.225762110E0,3.248627738E0
1.244812325E1,-4.493433932E-1,5.201674274E-1,-3.003994178E0,3.081633440E0
1.245806925E1,-8.268574698E-1,5.113685372E-1,-2.472545425E0,2.656816127E0
1.246801525E1,-1.231810994E0,5.397670019E-1,-1.708196810E0,2.174084424E0
1.247796125E1,-1.325178749E0,5.902881145E-1,-8.257437944E-1,1.669248810E0
1.248790825E1,-1.308191857E0,6.209707940E-1,-8.110672832E-2,1.450361666E0
1.249785425E1,-1.407382123E0,5.716097689E-1,4.353298831E-1,1.580181722E0
1.250780025E1,-1.242746457E0,5.387989953E-1,8.019637531E-1,1.574124828E0
1.251774625E1,-7.324778543E-1,7.022769123E-1,1.112821033E0,1.506017038E0
1.252769325E1,-7.697183322E-2,7.661173975E-1,1.167180258E0,1.398274038E0
1.253763925E1,3.864516918E-1,8.844378528E-1,9.989465082E-1,1.389053401E0
1.254758525E1,6.145984983E-1,9.856885314E-1,5.945431334E-1,1.304911772E0
1.255753125E1,7.307066596E-1,1.018938723E0,2.473366374E-1,1.278023379E0
1.256747825E1,8.712423681E-1,9.931574723E-1,2.205610675E-1,1.339429809E0
1.257742425E1,7.514330656E-1,7.985422549E-1,6.900117928E-1,1.295545313E0
1.258737025E1,2.928685037E-1,5.615195212E-1,1.451651393E0,1.583782781E0
1.259731625E1,-2.046029561E-1,2.629352546E-1,2.128927365E0,2.154838519E0
1.260726325E1,-5.640136876E-1,1.249412575E-1,2.457209347E0,2.524202752E0
1.261720925E1,-6.914635102E-1,2.142747259E-1,2.422092724E0,2.527957399E0
1.262715525E1,-3.817941288E-1,4.238158384E-1,1.861209673E0,1.946660748E0
1.263710125E1,2.374220985E-1,7.742622766E-1,9.309603471E-1,1.233911866E0
1.264704825E1,6.339966363E-1,1.112689763E0,-1.562083662E-2,1.280731921E0
1.265699425E1,8.059509695E-1,1.303245843E0,-7.914621538E-1,1.724650409E0
1.266694025E1,1.068064690E0,1.375939013E0,-6.998128957E-1,1.877154346E0
1.267688625E1,1.438351316E0,1.038002108E0,8.774214864E-1,1.978931871E0
1.268683325E1,1.359596338E0,1.486028928E-1,3.705151348E0,3.949522950E0
1.269677925E1,8.698866181E-1,-1.135885375E0,6.627328945E0,6.780002011E0
1.270672525E1,3.922343323E-1,-2.129532552E0,8.753232715E0,9.017085983E0
1.271667125E1,6.221375328E-2,-2.452838846E0,9.107915461E0,9.432624926E0
1.272661825E1,-1.692939232E-1,-2.397939631E0,7.311561935E0,7.696603981E0
1.273656425E1,-4.703248110E-2,-2.059648092E0,4.437608079E0,4.892517530E0
1.274651025E1,3.657360300E-1,-1.632514544E0,1.923444512E0,2.549216619E0
1.275645625E1,9.477697764E-1,-1.240868331E0,2.278776884E-2,1.561582866E0
1.276640325E1,1.479341028E0,-9.298718879E-1,-1.017765187E0,2.022117104E0
1.277634925E1,1.939120167E0,-7.768718889E-1,-1.292223549E0,2.456330323E0
1.278629525E1,2.285393447E0,-8.763341966E-1,-1.015611658E0,2.649990919E0
1.279624125E1,2.478903102E0,-1.033778372E0,-4.246119368E-1,2.719182526E0
1.280618825E1,2.337234130E0,-1.227494287E0,-9.117095590E-2,2.641537005E0
1.281613425E1,1.841527360E0,-1.424708592E0,-1.243182367E-1,2.331624458E0
1.282608025E1,1.331587882E0,-1.536486890E0,-4.615534759E-1,2.084934019E0
1.283602625E1,1.017129010E0,-1.523436197E0,-7.980110353E-1,1.998056777E0
1.284597325E1,8.907290914E-1,-1.401482575E0,-1.077657048E0,1.979620275E0
1.285591925E1,7.994816101E-1,-1.364091677E0,-1.324227700E0,2.062400531E0
1.286586525E1,7.077228628E-1,-1.282549624E0,-1.611834696E0,2.178030366E0
1.287581125E1,7.826274495E-1,-1.178040292E0,-1.960607076E0,2.417491419E0
1.288575825E1,7.335999350E-1,-1.080927103E0,-2.388223897E0,2.722165618E0
1.289570425E1,5.655717147E-1,-9.599452874E-1,-2.784015493E0,2.998684475E0
1.290565025E1,4.311202167E-1,-8.750328988E-1,-3.259908096E0,3.402726555E0
1.291559625E1,2.242924681E-1,-7.773990154E-1,-3.575592837E0,3.665995155E0
1.292554225E1,-1.704353727E-2,-7.246784726E-1,-3.701823698E0,3.772127789E0
1.293548925E1,-2.285513790E-1,-6.481544995E-1,-3.737116907E0,3.799787200E0
1.294543525E1,-4.606315527E-1,-6.016369754E-1,-3.666677839E0,3.744152087E0
1.295538125E1,-7.234739462E-1,-5.891908845E-1,-3.493703166E0,3.616147434E0
1.296532725E1,-8.950668483E-1,-4.934941837E-1,-3.139850140E0,3.302020605E0
1.297527425E1,-8.613103607E-1,-3.703374964E-1,-2.693245071E0,2.851766893E0
1.298522025E1,-7.229906007E-1,-2.361669937E-1,-2.418273323E0,2.535061365E0
1.299516625E1,-6.351583318E-1,-5.235889256E-2,-2.246757531E0,2.335398673E0
1.300511225E1,-3.874713001E-1,1.991251749E-1,-2.064416204E0,2.109881302E0
1.301505925E1,-3.627447681E-2,4.440246928E-1,-1.836092373E0,1.889367346E0
1.302500525E1,1.045575714E-1,6.195233157E-1,-1.480017405E0,1.607853521E0
1.303495125E1,6.592844370E-2,6.742789820E-1,-9.592164320E-1,1.174348700E0
1.304489725E1,-6.027837514E-2,6.274424922E-1,-2.957422274E-1,6.962621839E-1
1.305484425E1,-9.573128161E-2,7.097938004E-1,2.627083826E-1,7.628809944E-1
1.306479025E1,-1.546908492E-1,7.418841970E-1,5.755601478E-1,9.516254012E-1
1.307473625E1,-2.342761138E-1,8.173205879E-1,6.324763602E-1,1.059681361E0
1.308468225E1,-2.022303388E-1,9.771320084E-1,5.884877568E-1,1.158448062E0
1.309462925E1,-2.276844379E-1,1.049202450E0,5.360844254E-1,1.200021873E0
1.310457525E1,-5.041270530E-1,1.115550513E0,5.400511765E-1,1.338003104E0
1.311452125E1,-7.887077498E-1,1.155139087E0,4.725906801E-1,1.476397025E0
1.312446725E1,-1.033882818E0,1.183114798E0,3.435321057E-1,1.608318567E0
1.313441425E1,-1.232155542E0,1.281166757E0,1.502471298E-1,1.783863711E0
1.314436025E1,-1.303361180E0,1.425403534E0,-8.207034945E-2,1.933199716E0
1.315430625E1,-1.220887592E0,1.599946722E0,-3.357126242E-1,2.040367366E0
1.316425225E1,-1.223880197E0,1.719395982E0,-4.048577034E-1,2.148980000E0
1.317419925E1,-1.196848299E0,1.780145044E0,-2.509157181E-2,2.145225354E0
1.318414525E1,-8.841351132E-1,1.705439848E0,5.511614710E-1,1.998499172E0
1.319409125E1,-5.316171892E-1,1.662071342E0,1.082248281E0,2.053377540E0
1.320403725E1,-1.258749300E-2,1.724557319E0,1.472121325E0,2.267465014E0
1.321398425E1,5.732644213E-1,1.862088217E0,1.623403997E0,2.536029409E0
1.322393025E1,9.220093562E-1,1.986748516E0,1.345985189E0,2.570787243E0
1.323387625E1,9.054564735E-1,2.152177941E0,4.973577315E-1,2.387275859E0
1.324382225E1,6.348231402E-1,2.352659377E0,-4.085642534E-1,2.470815921E0
1.325376925E1,5.899445906E-2,2.458897731E0,-9.045911586E-1,2.620676165E0
1.326371525E1,-7.340859117E-1,2.317859674E0,-7.853056204E-1,2.555006949E0
1.327366125E1,-1.524530504E0,1.886959349E0,2.045239091E-2,2.425948709E0
1.328360725E1,-2.122057617E0,1.025086193E0,1.846664139E0,2.994010467E0
1.329355425E1,-2.594613068E0,-8.935978085E-2,4.244817778E0,4.975789396E0
1.330350025E1,-2.831163054E0,-9.772624013E-1,6.192182080E0,6.878491474E0
1.331344625E1,-2.776081698E0,-1.507053761E0,7.207799585E0,7.869575306E0
1.332339225E1,-2.412353310E0,-1.628736365E0,6.742022665E0,7.343507354E0
1.333333925E1,-1.974829405E0,-1.475474411E0,5.107618302E0,5.671396709E0
1.334328525E1,-1.711192631E0,-1.334925473E0,3.312931232E0,3.960520116E0
1.335323125E1,-1.637159279E0,-1.331399894E0,1.853134083E0,2.808384253E0
1.336317725E1,-1.627435360E0,-1.456705726E0,9.824135059E-1,2.394926662E0
1.337312425E1,-1.513328408E0,-1.591463581E0,5.673079723E-1,2.268205797E0
1.338307025E1,-1.304411193E0,-1.704139719E0,3.095837563E-1,2.168276469E0
1.339301625E1,-1.142674577E0,-1.768375184E0,-1.791703820E-2,2.105511102E0
1.340296225E1,-9.949938635E-1,-1.849941211E0,-5.175516754E-1,2.163366592E0
1.341290925E1,-8.543564133E-1,-1.830904723E0,-1.109829013E0,2.305180562E0
1.342285525E1,-6.715495748E-1,-1.747161486E0,-1.674075383E0,2.511191047E0
1.343280146E1,-4.031781638E-1,-1.647513821E0,-1.919526878E0,2.561530374E0
1.344274746E1,-2.329329718E-1,-1.591263899E0,-1.775857281E0,2.395839654E0
1.345269346E1,-1.515982752E-1,-1.648520565E0,-1.500272745E0,2.234148697E0
1.346264046E1,-1.649957811E-1,-1.682887429E0,-1.345292879E0,2.160820825E0
1.347258646E1,-2.405906681E-1,-1.723578057E0,-1.249824219E0,2.142583900E0
1.348253246E1,-3.264488073E-1,-1.695447833E0,-1.218771996E0,2.113413674E0
1.349247846E1,-4.017861245E-1,-1.591326756E0,-1.183285244E0,2.023343002E0
1.350242546E1,-3.595425130E-1,-1.482504957E0,-1.292631685E0,1.999497047E0
1.351237146E1,-2.921826253E-1,-1.320602718E0,-1.621381445E0,2.111454479E0
1.352231746E1,-3.187537985E-1,-1.179421989E0,-2.024711856E0,2.364761787E0
1.353226346E1,-4.148146346E-1,-9.969308268E-1,-2.182419448E0,2.434932628E0
1.354221046E1,-4.266121231E-1,-8.925893100E-1,-2.214482655E0,2.425416873E0
1.355215646E1,-3.784630431E-1,-7.664733468E-1,-2.185071160E0,2.346327266E0
1.356210246E1,-2.592198972E-1,-6.351834749E-1,-2.093783845E0,2.203312005E0
1.357204846E1,-1.508484794E-1,-5.223434687E-1,-2.185702659E0,2.252308611E0
1.358199546E1,-9.898115493E-2,-3.963884501E-1,-2.249821472E0,2.286617093E0
1.359194146E1,-1.479724533E-1,-3.006392705E-1,-2.043232911E0,2.070526635E0
1.360188746E1,-2.465087813E-1,-2.067116448E-1,-1.750656366E0,1.779970223E0
1.361183346E1,-4.297406758E-1,-1.114577244E-1,-1.564620768E0,1.626388029E0
1.362178046E1,-7.862585704E-1,-1.268591443E-1,-1.369275234E0,1.584048752E0
1.363172646E1,-1.162275175E0,-1.060923193E-1,-1.065989513E0,1.580655815E0
1.364167246E1,-1.350175450E0,-1.558195263E-2,-8.309606802E-1,1.585469077E0
1.365161846E1,-1.345449584E0,1.056923698E-1,-7.238426131E-1,1.531454730E0
1.366156546E1,-1.304137836E0,2.533487445E-1,-6.176092297E-1,1.465060491E0
1.367151146E1,-1.198636159E0,3.815501171E-1,-5.436852211E-1,1.370365919E0
1.368145746E1,-9.340372250E-1,5.543584362E-1,-5.870785779E-1,1.234665975E0
1.369140346E1,-5.617508516E-1,7.663373990E-1,-6.188020617E-1,1.133910499E0
1.370135046E1,-1.138300129E-1,9.186472803E-1,-5.342016220E-1,1.068756974E0
1.371129646E1,3.788698266E-1,1.079679746E0,-4.429341871E-1,1.226964300E0
1.372124246E1,8.678607041E-1,1.213093472E0,-6.191809613E-1,1.614980816E0
1.373118846E1,1.332786123E0,1.408247803E0,-8.382445568E-1,2.112376544E0
1.374113546E1,1.782187769E0,1.644381322E0,-9.473682189E-1,2.603399646E0
1.375108146E1,2.069981438E0,1.737007796E0,-7.701747805E-1,2.809837794E0
1.376102746E1,1.917829724E0,1.652325933E0,-5.062110007E-2,2.531958597E0
1.377097346E1,1.398814490E0,1.369913311E0,1.227329981E0,2.310775484E0
1.378092046E1,8.337120876E-1,8.798356555E-1,2.464093274E0,2.746077619E0
1.379086646E1,3.459951722E-1,5.504383166E-1,3.514978260E0,3.574600281E0
1.380081246E1,1.350636192E-1,4.593385506E-1,4.240572699E0,4.267515777E0
1.381075846E1,2.502527900E-1,4.898294413E-1,4.344758388E0,4.379438867E0
1.382070546E1,4.504087194E-1,6.472025728E-1,3.660722449E0,3.744679964E0
1.383065146E1,6.700296642E-1,7.975786337E-1,2.518464194E0,2.725386821E0
1.384059746E1,8.613614508E-1,8.068708827E-1,1.747542724E0,2.108764980E0
1.385054346E1,9.384613015E-1,6.278588140E-1,1.625960984E0,1.979561928E0
1.386049046E1,1.037213465E0,2.704462954E-1,2.198207515E0,2.445622467E0
1.387043646E1,1.163663377E0,-1.588257261E-1,3.173506129E0,3.383855673E0
1.388038246E1,1.128751553E0,-6.508297469E-1,3.973989367E0,4.182134732E0
1.389032846E1,9.733057366E-1,-1.118282332E0,4.630342247E0,4.861887366E0
1.390027546E1,8.879508600E-1,-1.458509446E0,4.938113367E0,5.225004321E0
1.391022146E1,1.088275080E0,-1.746276071E0,4.488992826E0,4.938104834E0
1.392016746E1,1.348762470E0,-1.775488468E0,3.180680078E0,3.884359054E0
1.393011346E1,1.559099097E0,-1.593333375E0,1.081040246E0,2.477528860E0
1.394006046E1,1.878612887E0,-1.316663303E0,-1.029463711E0,2.514474928E0
1.395000646E1,2.127747982E0,-1.006461934E0,-2.723802620E0,3.599913584E0
1.395995246E1,2.288238702E0,-8.174410406E-1,-3.702889060E0,4.428954008E0
1.396989846E1,2.302979387E0,-8.027285689E-1,-3.631553029E0,4.374501642E0
1.397984546E1,2.107383737E0,-1.048788028E0,-2.328560078E0,3.311074536E0
1.398979146E1,1.594272145E0,-1.378116516E0,-6.117690307E-1,2.194349597E0
1.399973746E1,9.902136916E-1,-1.842187511E0,9.251599091E-1,2.286940934E0
1.400968346E1,2.211807992E-1,-2.271969263E0,2.172039471E0,3.150955528E0
1.401963046E1,-3.950082149E-1,-2.318832943E0,2.849013142E0,3.694576239E0
1.402957646E1,-6.202454469E-1,-2.191518739E0,2.693653207E0,3.527495768E0
1.403952246E1,-7.106473477E-1,-1.905378955E0,1.739098175E0,2.675808491E0
1.404946846E1,-5.937408223E-1,-1.498105767E0,5.101514393E-1,1.690296880E0
1.405941546E1,-3.494399862E-1,-1.074746596E0,-6.882085115E-1,1.323185363E0
1.406936146E1,5.163210193E-2,-6.625025435E-1,-1.712697996E0,1.837092791E0
1.407930746E1,3.429169786E-1,-2.788224319E-1,-2.410566693E0,2.450748005E0
1.408925346E1,4.569559929E-1,-4.325112328E-2,-2.835385036E0,2.872296598E0
1.409920046E1,4.839213415E-1,1.448532195E-1,-3.036171405E0,3.077904989E0
1.410914646E1,4.905595393E-1,3.310722739E-1,-2.983651130E0,3.041780987E0
1.411909246E1,3.161895751E-1,4.666521017E-1,-2.606461281E0,2.666717166E0
1.412903846E1,1.306371399E-1,5.697654109E-1,-2.226467693E0,2.301924645E0
1.413898546E1,8.026433640E-2,6.789995854E-1,-1.859119878E0,1.980860803E0
1.414893146E1,5.156750847E-2,7.915083468E-1,-1.399326414E0,1.608495907E0
1.415887746E1,2.852290068E-1,9.484740736E-1,-9.084935904E-1,1.343993772E0
1.416882346E1,6.030598222E-1,1.094611926E0,-4.849955481E-1,1.340551044E0
1.417877046E1,7.839104748E-1,1.123972550E0,-2.354808229E-1,1.390424807E0
1.418871646E1,9.971076319E-1,1.186484402E0,-1.465166062E-1,1.556738893E0
1.419866246E1,1.161613197E0,1.256203093E0,-1.658159262E-1,1.718978287E0
1.420860846E1,1.041555461E0,1.355827076E0,-2.012757808E-1,1.721515838E0
1.421855546E1,7.611257757E-1,1.403512582E0,-2.334033072E-1,1.613578978E0
1.422850146E1,4.500711888E-1,1.385439131E0,-3.751947784E-1,1.504252898E0
1.423844746E1,3.316043705E-1,1.464548158E0,-4.342002010E-1,1.563135496E0
1.424839346E1,2.986330543E-1,1.523470842E0,-4.664832634E-1,1.621034158E0
1.425834046E1,2.939555559E-1,1.446297828E0,-3.513855010E-1,1.517121962E0
1.426828646E1,1.404519655E-1,1.304709694E0,-1.776968837E-2,1.312368051E0
1.427823246E1,1.487853076E-1,1.158945478E0,2.496977431E-1,1.194839174E0
1.428817846E1,3.594646354E-1,1.110455980E0,2.287383986E-1,1.189389996E0
1.429812546E1,4.081196458E-1,1.146770259E0,-1.666374600E-1,1.228581180E0
1.430807146E1,3.467058282E-1,1.135895315E0,-6.650552917E-1,1.361161871E0
1.431801746E1,2.632750874E-1,1.316955518E0,-1.066635631E0,1.715050196E0
1.432796446E1,2.827951398E-1,1.372367534E0,-1.404443312E0,1.983891821E0
1.433791046E1,2.646661035E-1,1.514156666E0,-1.559255363E0,2.189519546E0
1.434785646E1,4.081194631E-1,1.630255764E0,-1.604212850E0,2.323315351E0
1.435780246E1,5.585561523E-1,1.681874692E0,-1.361857456E0,2.235026439E0
1.436774946E1,7.862287496E-1,1.585056202E0,-5.887350941E-1,1.864716553E0
1.437769546E1,1.096209020E0,1.324612154E0,6.288850003E-1,1.830783417E0
1.438764146E1,1.428454026E0,1.088965855E0,1.834524150E0,2.567451342E0
1.439758746E1,1.435495243E0,8.725563106E-1,2.513834369E0,3.023468925E0
1.440753446E1,9.893947159E-1,7.560733429E-1,2.345752062E0,2.655767599E0
1.441748046E1,2.540153636E-1,6.981414691E-1,1.333296146E0,1.526304010E0
1.442742683E1,-4.739614137E-1,6.709913850E-1,3.521333599E-1,8.937934680E-1
1.443737283E1,-8.699200934E-1,6.486746094E-1,1.505219489E-1,1.095534835E0
1.444731983E1,-1.146231658E0,4.319338202E-1,8.145873070E-1,1.471042596E0
1.445726583E1,-1.468109550E0,-7.939641774E-2,2.035275435E0,2.510775884E0
1.446721183E1,-1.803519289E0,-7.011127317E-1,3.136955184E0,3.685746697E0
1.447715783E1,-1.980960942E0,-1.107626367E0,3.857970668E0,4.476045140E0
1.448710483E1,-1.904446178E0,-1.316291859E0,3.805525821E0,4.454387307E0
1.449705083E1,-1.820356639E0,-1.280119813E0,2.845850383E0,3.612654070E0
1.450699683E1,-1.446858138E0,-9.180461866E-1,1.384534128E0,2.202984798E0
1.451694283E1,-8.362641048E-1,-4.081941247E-1,-1.396548986E-2,9.306745572E-1
1.452688983E1,-2.666102296E-1,2.756348222E-2,-8.702264875E-1,9.105684486E-1
1.453683583E1,1.897109750E-1,1.873082444E-1,-8.630203789E-1,9.032600993E-1
1.454678183E1,4.946676834E-1,1.022362268E-1,-1.633372915E-1,5.308742166E-1
1.455672783E1,5.600546475E-1,-6.763591290E-2,4.818602711E-1,7.419064265E-1
1.456667483E1,3.356799529E-1,-3.794100362E-1,6.951427245E-1,8.601490649E-1
1.457662083E1,-1.197850366E-1,-7.212470341E-1,7.960989958E-1,1.080888223E0
1.458656683E1,-5.628132542E-1,-8.392660654E-1,1.008320764E0,1.427528301E0
1.459651283E1,-8.952846571E-1,-8.327429116E-1,1.119069952E0,1.657502016E0
1.460645983E1,-1.300746890E0,-8.417447001E-1,9.361936051E-1,1.810230670E0
1.461640583E1,-1.701652898E0,-8.731693912E-1,5.252401793E-1,1.983412367E0
1.462635183E1,-1.915283554E0,-8.419046214E-1,1.696224636E-1,2.099020310E0
1.463629883E1,-1.967337222E0,-9.006574443E-1,-1.597207886E-1,2.169587589E0
1.464624483E1,-2.013064202E0,-9.910875580E-1,-4.531364089E-1,2.289107825E0
1.465619083E1,-1.862860049E0,-1.026908771E0,-6.622977448E-1,2.227875106E0
1.466613683E1,-1.583836473E0,-1.045700260E0,-7.675868028E-1,2.047246079E0
1.467608383E1,-1.208186197E0,-9.841979299E-1,-9.643403471E-1,1.832569714E0
1.468602983E1,-8.064638434E-1,-8.978855717E-1,-1.350633726E0,1.811296191E0
1.469597583E1,-6.232213873E-1,-7.871825767E-1,-1.833849966E0,2.090709689E0
1.470592183E1,-3.430868402E-1,-6.758591920E-1,-2.384931915E0,2.502477665E0
1.471586883E1,-9.365715545E-2,-5.615692225E-1,-2.902613398E0,2.957920924E0
1.472581483E1,1.219073566E-1,-4.631866032E-1,-3.398932080E0,3.432512566E0
1.473576083E1,3.895226860E-1,-3.100360385E-1,-3.838177258E0,3.870330081E0
1.474570683E1,5.689931764E-1,-1.406579885E-1,-4.180527642E0,4.221415553E0
1.475565383E1,5.369495941E-1,-4.725573510E-2,-4.369054738E0,4.402179832E0
1.476559983E1,1.755021313E-1,6.032689333E-2,-4.332139512E0,4.336112669E0
1.477554583E1,-3.852612718E-1,7.255020529E-2,-4.014135180E0,4.033233321E0
1.478549183E1,-9.076382158E-1,7.790274650E-2,-3.393802317E0,3.513939404E0
1.479543883E1,-1.360805103E0,6.825016290E-2,-2.608241174E0,2.942680858E0
1.480538483E1,-1.665518568E0,1.062418619E-1,-1.614761227E0,2.322217314E0
1.481533083E1,-1.664326759E0,3.716037109E-1,-7.688901472E-1,1.870632229E0
1.482527683E1,-1.689305041E0,6.549416551E-1,-1.093277299E-1,1.815117805E0
1.483522383E1,-1.827372128E0,8.284381914E-1,4.702985716E-1,2.060771573E0
1.484516983E1,-1.693420896E0,1.016264499E0,9.256598461E-1,2.181126776E0
1.485511583E1,-1.487686321E0,1.255677867E0,1.030283491E0,2.202594281E0
1.486506183E1,-1.081816464E0,1.356261378E0,7.748958224E-1,1.900061926E0
1.487500883E1,-7.740967273E-1,1.461936060E0,5.049175966E-1,1.729573522E0
1.488495483E1,-4.829904648E-1,1.507760982E0,4.087443477E-1,1.635143697E0
1.489490083E1,-2.752574576E-1,1.445475563E0,4.308725506E-1,1.533237564E0
1.490484683E1,-3.931428800E-1,1.240185377E0,6.999871427E-1,1.477363561E0
1.491479383E1,-7.370801977E-1,9.101518607E-1,1.399372607E0,1.824803365E0
1.492473983E1,-1.175351961E0,6.247922418E-1,2.437100188E0,2.776918239E0
1.493468583E1,-1.329013207E0,4.137802622E-1,3.130810345E0,3.426290067E0
1.494463183E1,-1.196823449E0,3.637909538E-1,2.927726605E0,3.183757732E0
1.495457883E1,-7.469576067E-1,5.019653374E-1,1.833519014E0,2.042475664E0
1.496452483E1,-1.652172444E-1,7.051905799E-1,7.755396008E-1,1.061156051E0
1.497447083E1,4.601434198E-1,7.512701476E-1,2.625855911E-1,9.192877645E-1
1.498441683E1,1.135947283E0,6.153671148E-1,-1.270880628E-1,1.298154186E0
1.499436383E1,1.846030301E0,4.446909830E-1,-6.593133259E-1,2.010042787E0
1.500430983E1,2.381013257E0,3.115548527E-1,-7.416339362E-1,2.513227298E0
1.501425583E1,2.792760589E0,2.637971342E-2,-2.140537012E-1,2.801075968E0
1.502420183E1,3.050418439E0,-3.654688123E-1,9.026913983E-1,3.202104287E0
1.503414883E1,3.113842602E0,-8.333770421E-1,2.331615833E0,3.978311883E0
1.504409483E1,2.931436371E0,-1.433681145E0,3.765600448E0,4.982821245E0
1.505404083E1,2.218547201E0,-2.098831746E0,4.816048062E0,5.702750680E0
1.506398683E1,1.311818154E0,-2.549478995E0,4.970382396E0,5.738066850E0
1.507393383E1,9.029704566E-1,-2.750409206E0,4.032648050E0,4.964106842E0
1.508387983E1,9.646730536E-1,-2.599565952E0,2.701900705E0,3.871511934E0
1.509382583E1,1.299839840E0,-2.286812128E0,1.664771293E0,3.112965913E0
1.510377183E1,2.022921438E0,-1.934376467E0,9.387938619E-1,2.952178412E0
1.511371883E1,2.687083275E0,-1.614163642E0,7.612723947E-1,3.225752075E0
1.512366483E1,2.876834779E0,-1.408975197E0,1.036535919E0,3.366867411E0
1.513361083E1,2.440770778E0,-1.410923489E0,1.081101058E0,3.019411628E0
1.514355683E1,1.683797110E0,-1.520511712E0,8.671274632E-1,2.428793654E0
1.515350383E1,8.750921018E-1,-1.584769104E0,5.872218347E-1,1.903183854E0
1.516344983E1,2.093298453E-1,-1.542884329E0,2.513741398E-1,1.577181028E0
1.517339583E1,-1.580085411E-1,-1.367638598E0,-1.823050743E-1,1.388753821E0
1.518334183E1,-3.331943746E-1,-1.189655201E0,-9.144378698E-1,1.537040860E0
1.519328883E1,-4.226628406E-1,-9.864732277E-1,-1.698771098E0,2.009377155E0
1.520323483E1,-3.659334832E-1,-7.611995968E-1,-2.342039664E0,2.489675065E0
1.521318083E1,-3.007332280E-1,-5.191035265E-1,-2.819852493E0,2.882963237E0
1.522312683E1,-3.979158159E-1,-3.873091860E-1,-2.948921592E0,3.000747233E0
1.523307383E1,-5.093420019E-1,-3.815482168E-1,-2.599039995E0,2.675820848E0
1.524301983E1,-4.621821977E-1,-3.349051237E-1,-2.120385168E0,2.195861354E0
1.525296583E1,-3.827415239E-1,-2.770574498E-1,-1.947181284E0,2.003688314E0
1.526291283E1,-4.976460723E-1,-1.500145568E-1,-1.973186191E0,2.040494971E0
1.527285883E1,-4.525078698E-1,-1.992190227E-2,-2.092078797E0,2.140549917E0
1.528280483E1,-3.222964071E-1,1.727059928E-1,-2.296469389E0,2.325397598E0
1.529275083E1,-4.478136154E-1,2.867230435E-1,-2.551994467E0,2.606803195E0
1.530269783E1,-4.248310612E-1,3.689050747E-1,-2.578157834E0,2.638838798E0
1.531264383E1,-1.470479354E-1,5.155956356E-1,-2.466243880E0,2.523850398E0
1.532258983E1,1.210590170E-1,6.447715929E-1,-2.308216445E0,2.399635150E0
1.533253583E1,1.981135518E-1,7.047037992E-1,-2.174354383E0,2.294269690E0
1.534248283E1,2.504596901E-1,7.188447055E-1,-1.882809287E0,2.030871384E0
1.535242883E1,3.372074649E-1,7.499948698E-1,-1.286886796E0,1.527180017E0
1.536237483E1,1.574069905E-1,6.241522640E-1,-7.046923971E-1,9.544288260E-1
1.537232083E1,3.922078371E-2,5.484053859E-1,-2.430348408E-1,6.011261690E-1
1.538226783E1,-1.850479301E-3,5.625793290E-1,-1.034191185E-1,5.720091256E-1
1.539221383E1,1.745564355E-1,5.745690447E-1,-3.001235461E-1,6.713223363E-1
1.540215983E1,5.956254530E-1,8.375162861E-1,-5.507036340E-1,1.165966424E0
1.541210583E1,8.199331970E-1,1.036485048E0,-7.764967901E-1,1.532820592E0
1.542205283E1,5.907026821E-1,1.170911659E0,-1.036276887E0,1.671476460E0
1.543199833E1,1.897292110E-1,1.231076292E0,-1.356285644E0,1.841482218E0
1.544194433E1,-7.494511519E-2,1.303226840E0,-1.387146664E0,1.904781571E0
1.545189033E1,-3.507402973E-1,1.405713035E0,-1.048874128E0,1.788626521E0
1.546183733E1,-5.776803482E-1,1.335929732E0,-6.272641522E-1,1.584892158E0
1.547178333E1,-6.552269992E-1,1.220299581E0,3.555750310E-2,1.385538821E0
1.548172933E1,-7.571606326E-1,9.583934364E-1,1.009146976E0,1.584357227E0
1.549167533E1,-7.015926419E-1,6.999839267E-1,2.155669606E0,2.372576907E0
1.550162233E1,-3.203120814E-1,6.019492167E-1,2.908214446E0,2.987081176E0
1.551156833E1,3.629521707E-1,7.177182394E-1,3.032979995E0,3.137805188E0
1.552151433E1,9.531721652E-1,1.017225781E0,2.773624991E0,3.104235986E0
1.553146033E1,1.224156185E0,1.280560108E0,2.127358557E0,2.768401522E0
1.554140733E1,9.701854431E-1,1.488743497E0,1.353597679E0,2.233795799E0
1.555135333E1,3.634432637E-1,1.407584729E0,4.541204953E-1,1.523026986E0
1.556129933E1,-3.295456389E-1,1.295591838E0,-9.097682834E-3,1.336877446E0
1.557124533E1,-8.804634272E-1,9.741347256E-1,2.906428707E-1,1.344852255E0
1.558119233E1,-1.039472464E0,4.957664117E-1,1.578607893E0,1.954044579E0
1.559113833E1,-1.000208191E0,-1.895082593E-2,3.173409650E0,3.327356964E0
1.560108433E1,-1.014349975E0,-6.426817980E-1,4.369796750E0,4.531784351E0
1.561103033E1,-1.052087027E0,-1.130766138E0,5.052140504E0,5.282957774E0
1.562097733E1,-8.718344718E-1,-1.374091293E0,4.970184175E0,5.229813856E0
1.563092333E1,-6.729866011E-1,-1.371635170E0,4.180289075E0,4.450742720E0
1.564086933E1,-3.661288898E-1,-1.256849064E0,3.027988227E0,3.298853231E0
1.565081533E1,8.507384486E-2,-1.089008247E0,2.185126709E0,2.442939880E0
1.566076233E1,2.863676059E-1,-1.040603242E0,1.641868919E0,1.964839703E0
1.567070833E1,2.039979520E-1,-1.132355703E0,1.159367793E0,1.633394711E0
1.568065433E1,1.055358837E-1,-1.290831620E0,1.020063143E0,1.648609386E0
1.569060033E1,2.448419228E-2,-1.426983305E0,1.268147639E0,1.909209068E0
1.570054733E1,-3.188393140E-1,-1.610260479E0,1.447885786E0,2.188828583E0
1.571049333E1,-5.990723866E-1,-1.725742696E0,1.410161304E0,2.307732758E0
1.572043933E1,-6.607413621E-1,-1.696235161E0,1.312252017E0,2.244058427E0
1.573038533E1,-6.782083840E-1,-1.605859426E0,1.167049280E0,2.097797686E0
1.574033233E1,-5.183431692E-1,-1.489135261E0,9.107009143E-1,1.820873313E0
1.575027833E1,-4.277089877E-1,-1.350181297E0,5.993051058E-1,1.537885276E0
1.576022433E1,-5.230900119E-1,-1.347073064E0,6.330371082E-2,1.446456484E0
1.577017033E1,-4.359611631E-1,-1.305472755E0,-3.813811326E-1,1.428206154E0
1.578011733E1,-3.793315008E-1,-1.174804881E0,-6.843212825E-1,1.411507887E0
1.579006333E1,-4.734214964E-1,-1.220654507E0,-9.479734057E-1,1.616409266E0
1.580000933E1,-6.627190366E-1,-1.281341881E0,-1.176164505E0,1.861288930E0
1.580995533E1,-6.571994843E-1,-1.255850798E0,-1.303016340E0,1.925337366E0
1.581990233E1,-4.287769085E-1,-1.125428653E0,-1.363730319E0,1.819395414E0
1.582984833E1,-3.260707118E-1,-1.052300889E0,-1.735915536E0,2.055982008E0
1.583979433E1,-2.567321262E-1,-9.057358973E-1,-2.320133071E0,2.503854302E0
1.584974033E1,-6.569854762E-2,-7.324462062E-1,-2.796741958E0,2.891809005E0
1.585968733E1,2.563816587E-1,-5.980098014E-1,-3.074382375E0,3.142479000E0
1.586963333E1,4.342053539E-1,-4.308744510E-1,-3.167776442E0,3.226297362E0
1.587957933E1,6.257096699E-1,-1.724700576E-1,-3.286463225E0,3.349940155E0
1.588952533E1,7.572115034E-1,1.448779240E-2,-3.382641737E0,3.466387785E0
1.589947233E1,6.546048555E-1,1.686377925E-1,-3.084129099E0,3.157340419E0
1.590941833E1,3.778564310E-1,2.368970186E-1,-2.707844399E0,2.744324502E0
1.591936433E1,4.833918761E-2,2.549017650E-1,-2.191165713E0,2.206472019E0
1.592931033E1,-1.253440576E-1,4.038926205E-1,-1.702406897E0,1.754146409E0
1.593925733E1,-2.822298968E-1,4.828028423E-1,-1.381129879E0,1.490057731E0
1.594920333E1,-5.618369154E-1,5.558170241E-1,-1.116511211E0,1.367914678E0
1.595914933E1,-7.590265522E-1,6.076172152E-1,-8.985848987E-1,1.323924019E0
1.596909533E1,-8.273434465E-1,6.056809098E-1,-4.240418333E-1,1.109575603E0
1.597904233E1,-8.723016644E-1,6.094158188E-1,2.077749610E-1,1.084190144E0
1.598898833E1,-6.159326868E-1,6.171709809E-1,6.046506304E-1,1.061072796E0
1.599893433E1,-1.873218392E-1,6.657388312E-1,5.976930285E-1,9.140758278E-1
1.600888033E1,2.015639389E-1,7.263060451E-1,2.740759546E-1,8.020387281E-1
1.601882733E1,4.833530287E-1,7.619597349E-1,-1.467370462E-1,9.141906522E-1
1.602877333E1,6.842776477E-1,7.469657198E-1,-5.117430514E-1,1.134933759E0
1.603871933E1,7.168407916E-1,6.775040138E-1,-6.840242440E-1,1.200317281E0
1.604866533E1,4.867151046E-1,5.318270677E-1,-5.089621156E-1,8.824817608E-1
1.605861233E1,-5.967624441E-2,2.615591124E-1,-1.289895773E-2,2.685904066E-1
1.606855833E1,-5.063413936E-1,6.528328568E-2,4.629170465E-1,6.891557924E-1
1.607850433E1,-6.595344968E-1,9.204979241E-3,6.082180166E-1,8.972177216E-1
1.608845033E1,-7.535132857E-1,7.744432479E-2,4.126368392E-1,8.625827822E-1
1.609839733E1,-5.867661904E-1,2.324157125E-1,2.442422909E-1,6.767317949E-1
1.610834333E1,-5.328611478E-2,5.283076286E-1,3.288205111E-1,6.245568741E-1
1.611828933E1,3.366740526E-1,8.190531179E-1,3.954179585E-1,9.698210091E-1
1.612823533E1,5.796445010E-1,9.342511600E-1,1.676800185E-1,1.112173353E0
1.613818233E1,8.304809893E-1,1.030034838E0,-3.941841960E-2,1.323716077E0
1.614812833E1,1.148730027E0,1.042922540E0,2.320642948E-2,1.551710874E0
1.615807433E1,1.291706948E0,7.375332838E-1,9.245371807E-1,1.751351245E0
1.616802033E1,1.220175547E0,1.466127929E-1,2.982606232E0,3.225874085E0
1.617796733E1,1.090151963E0,-5.728651661E-1,5.497757394E0,5.633998772E0
1.618791333E1,9.806784178E-1,-1.231613505E0,7.545725380E0,7.708214676E0
1.619785933E1,7.228936100E-1,-1.654101002E0,8.426891423E0,8.618069642E0
1.620780533E1,3.065322407E-1,-1.921328844E0,7.509793071E0,7.757735398E0
1.621775233E1,2.049544469E-1,-1.792282548E0,5.229864870E0,5.532248152E0
1.622769833E1,6.381094216E-1,-1.440393748E0,2.871689814E0,3.275441981E0
1.623764433E1,1.297473472E0,-1.107455336E0,8.971932614E-1,1.927394739E0
1.624759033E1,2.091575059E0,-7.891060182E-1,-4.863526869E-1,2.287774786E0
1.625753733E1,2.835568054E0,-5.782880200E-1,-1.129692004E0,3.106616689E0
