"Time (s)","Linear Acceleration x (m/s^2)","Linear Acceleration y (m/s^2)","Linear Acceleration z (m/s^2)","Absolute acceleration (m/s^2)"
6.505916652E-3,9.410991266E-1,3.530185699E0,5.966819864E0,6.996486113E0
1.645191666E-2,6.162979916E-2,2.451924049E0,6.766585064E0,7.197388638E0
2.639791666E-2,-3.714676170E-1,1.891642091E0,7.317404473E0,7.567080428E0
3.634391667E-2,-5.742448166E-2,1.460036885E0,8.291176379E0,8.418943581E0
4.628991667E-2,5.302299008E-2,2.120279333E0,7.368831904E0,7.667990579E0
5.623591668E-2,-1.746515076E0,3.366420391E0,6.099829987E0,7.182689401E0
6.618191669E-2,-2.044799819E0,4.444825882E0,5.717550722E0,7.525162435E0
7.612791669E-2,-2.172560896E0,5.158123042E0,4.984205799E0,7.494568807E0
8.607391670E-2,-2.675742601E0,4.572190518E0,4.413909314E0,6.895441975E0
9.602091665E-2,-2.858747002E0,4.057927902E0,3.863911439E0,6.290391473E0
1.059669167E-1,-3.071520748E0,4.418398806E0,3.475102589E0,6.405686982E0
1.159129167E-1,-3.699707298E0,4.078775564E0,2.900906596E0,6.224106625E0
1.258589167E-1,-3.510733182E0,4.720378259E0,2.342900082E0,6.332171758E0
1.358049167E-1,-3.613694171E0,4.568022623E0,1.283600953E0,5.964331283E0
1.457509167E-1,-3.106891140E0,5.550667679E0,2.874482444E-1,6.367519982E0
1.556969167E-1,-2.505147160E0,6.143944305E0,-6.977248549E-2,6.635411225E0
1.656429167E-1,-1.525208342E0,6.309574875E0,-4.186875379E-1,6.504790146E0
1.755889167E-1,6.668384001E-2,5.392682344E0,-1.581759250E0,5.620269737E0
1.855349167E-1,1.717948358E0,1.889516628E0,-4.314910106E0,5.013987323E0
1.954819167E-1,3.576556458E0,-3.844906234E0,-1.299279852E1,1.401384578E1
2.054279167E-1,8.551575111E0,-1.056051118E1,-3.129320825E1,3.411625296E1
2.153739167E-1,1.217817029E1,-1.380611699E1,-2.420008426E1,3.040659099E1
2.253199167E-1,1.109461691E1,-1.331385276E1,-1.115314286E1,2.060926479E1
2.352659167E-1,7.168676450E0,-1.099975402E1,-3.791450112E0,1.366600177E1
2.452119167E-1,2.509450419E0,-7.951712181E0,-2.236126124E0,8.632921177E0
2.551579167E-1,-1.446604368E0,-4.281523089E0,-4.498477010E0,6.376550758E0
2.651039167E-1,-4.658926654E0,9.463595742E-1,-3.066665804E0,5.657352134E0
2.750499167E-1,-6.918475846E0,5.273796170E0,5.333838889E-1,8.715660185E0
2.849959166E-1,-8.507476580E0,7.905930237E0,2.656846154E0,1.191384582E1
2.949429167E-1,-8.905408841E0,7.437764729E0,4.069900661E0,1.229596447E1
3.048889167E-1,-8.828020357E0,6.426119238E-1,5.991003948E0,1.068826561E1
3.148347917E-1,-7.847441708E0,-8.874496951E0,8.032389724E0,1.431287260E1
3.247807916E-1,-6.342398804E0,-1.702658678E1,5.847206297E0,1.908718160E1
3.347267917E-1,-2.035962922E0,-2.073954065E1,3.623518955E0,2.115191673E1
3.446727917E-1,4.972618956E0,-1.337970761E1,3.899453447E0,1.479693388E1
3.546187917E-1,6.731255602E0,-3.639482439E0,6.089674543E0,9.779558806E0
3.645647917E-1,4.870780340E0,-1.794878858E-1,4.990662294E0,6.975917657E0
3.745107917E-1,2.281141790E0,1.959786712E0,4.325092155E0,5.267902237E0
3.844567917E-1,-3.441025016E-1,3.260954162E0,6.084372287E0,6.911715758E0
3.944037917E-1,-2.558607961E0,1.545668188E0,8.207202176E0,8.734628349E0
4.043497917E-1,-3.891653261E0,-4.199832809E-1,9.014236634E0,9.827401140E0
4.142957916E-1,-4.681882530E0,-1.927085574E0,8.552133520E0,9.938444072E0
4.242417917E-1,-4.189932303E0,-2.503259094E0,7.838722340E0,9.234035235E0
4.341877917E-1,-3.319079579E0,-2.552010840E0,6.910820671E0,8.080129388E0
4.441337917E-1,-2.107084214E0,-2.341416936E0,6.205564603E0,6.959243435E0
4.540797917E-1,-1.420695063E0,-1.363036255E0,6.064325109E0,6.375914155E0
4.640257917E-1,-8.225668560E-1,-2.115522623E-1,5.665363737E0,5.728674966E0
4.739717917E-1,2.377258614E-1,6.782436866E-1,4.843306320E0,4.896339877E0
4.839177917E-1,1.346497113E0,1.195894180E0,4.009403321E0,4.395285241E0
4.938647917E-1,1.866227753E0,1.180586754E0,3.741468405E0,4.344557162E0
5.038107916E-1,2.451021385E0,7.741520566E-1,3.100430259E0,4.027342179E0
5.137567917E-1,2.956729379E0,9.228514284E-1,1.617255650E0,3.494197936E0
5.237027917E-1,2.738392885E0,1.400989947E0,-2.668679456E-1,3.087521162E0
5.336487917E-1,2.395953624E0,1.624523154E0,-2.522127475E0,3.839374460E0
5.435947917E-1,2.879219273E0,1.276122072E0,-4.903022472E0,5.827351073E0
5.535407917E-1,3.458526902E0,2.000797913E0,-6.266004932E0,7.431515217E0
5.634867917E-1,3.315451674E0,2.614256204E0,-6.379860746E0,7.650436487E0
5.734327917E-1,2.252687923E0,2.517254990E0,-5.126952120E0,6.139773091E0
5.833787917E-1,1.078125117E0,1.861615469E0,-3.616171344E0,4.207690710E0
5.933257916E-1,5.056452826E-2,8.757445049E-1,-1.922015453E0,2.112730132E0
6.032717917E-1,-7.125425765E-1,5.525303042E-1,-5.815862517E-1,1.072962827E0
6.132177917E-1,-1.033611872E0,1.064028357E0,-2.886910701E-1,1.511242000E0
6.231637917E-1,-1.346295092E0,2.101094618E0,-2.262673652E-1,2.505654803E0
6.331097917E-1,-1.425179586E0,3.143119903E0,-7.671424875E-1,3.535370868E0
6.430557917E-1,-6.678939687E-1,3.677273578E0,-2.097710250E0,4.285885161E0
6.530017917E-1,9.005856697E-1,3.922774774E0,-2.746071741E0,4.872384066E0
6.629477917E-1,1.969053964E0,3.382971520E0,-2.775928209E0,4.798692242E0
6.728937917E-1,2.458370897E0,1.960962587E0,-2.660549195E0,4.119160564E0
6.828397917E-1,2.705937037E0,2.308311170E-1,-3.018325703E0,4.060254709E0
6.927867917E-1,3.321081958E0,-8.587747157E-1,-4.285995625E0,5.489702895E0
7.027327917E-1,4.231272118E0,-1.132348394E0,-5.977026764E0,7.410177161E0
7.126787917E-1,5.079908931E0,-1.004548725E0,-7.299940009E0,8.950067990E0
7.226247917E-1,5.467683994E0,-1.213686672E0,-7.948470485E0,9.723517195E0
7.325707917E-1,4.937450293E0,-1.801747583E0,-7.106890091E0,8.839264478E0
7.425167917E-1,3.635124509E0,-2.364164944E0,-5.164622222E0,6.743643583E0
7.524627917E-1,2.291366232E0,-2.660544518E0,-3.334251350E0,4.842116108E0
7.624087917E-1,1.077394361E0,-3.141407838E0,-1.636046408E0,3.702143928E0
7.723547917E-1,6.011694905E-1,-3.434846848E0,-4.727567410E-1,3.518959585E0
7.823007917E-1,1.123514129E0,-3.083260787E0,-7.531897885E-1,3.366908959E0
7.922477917E-1,1.551261489E0,-3.367303321E0,-2.713246349E0,4.594219152E0
8.021937917E-1,1.672536250E0,-3.735819409E0,-5.253151406E0,6.659528802E0
8.121397917E-1,3.178721260E0,-4.160082268E0,-7.531452327E0,9.172422116E0
8.220857917E-1,4.343975738E0,-4.156408462E0,-8.197377684E0,1.016576890E1
8.320317917E-1,4.402301422E0,-4.081780449E0,-7.706605672E0,9.768979497E0
8.419777917E-1,3.625374861E0,-3.410628265E0,-7.407138183E0,8.924204397E0
8.519237917E-1,4.123334856E0,-2.788899672E0,-7.701837267E0,9.170504294E0
8.618697917E-1,5.055416114E0,-3.446265875E0,-7.957089280E0,1.003739261E1
8.718157917E-1,4.278848865E0,-4.516687578E0,-6.896560482E0,9.288248531E0
8.817627917E-1,3.976742528E0,-6.433575608E0,-2.517892921E0,7.971521875E0
8.917087917E-1,4.755154574E0,-8.489557203E0,5.132584158E0,1.100124978E1
9.016547917E-1,7.205912688E0,-8.448757086E0,1.177580116E1,1.618567783E1
9.116007917E-1,9.802443643E0,-5.729137564E0,1.335711865E1,1.753064566E1
9.215467917E-1,9.012168474E0,-3.670542263E0,1.154200843E1,1.509668903E1
9.314927917E-1,6.524005136E0,-2.528302719E0,8.397471743E0,1.093034717E1
9.414387917E-1,4.472287331E0,-2.144977387E0,5.378001155E0,7.316090375E0
9.513847917E-1,4.759665993E0,-2.776542751E0,-5.589610720E-1,5.538596166E0
9.613307917E-1,6.269899178E0,-4.366365604E0,-8.034690603E0,1.108751719E1
9.712777917E-1,4.585907209E0,-5.658605525E0,-6.310623865E0,9.637133131E0
9.812237917E-1,1.439175919E0,-5.550978751E0,-1.444277469E0,5.913588574E0
9.911697917E-1,-4.374430668E-1,-4.948201568E0,2.002200075E0,5.355824898E0
1.001115792E0,-1.330187182E0,-4.016429628E0,4.281402052E0,6.019261452E0
1.011061792E0,-1.217282125E0,-3.113402014E0,6.004757184E0,6.872565512E0
1.021007792E0,-7.862069687E-1,-2.327704046E0,7.289170607E0,7.692095661E0
1.030953792E0,2.049016392E-1,-2.083543031E0,8.195665035E0,8.458845170E0
1.040899792E0,4.666324039E-1,-2.621755258E0,6.824182477E0,7.325354115E0
1.050845792E0,8.843083370E-1,-2.972429738E0,3.888532310E0,4.973733337E0
1.060792792E0,7.551984532E-1,-2.022092888E0,7.371290658E0,7.680827450E0
1.070738792E0,2.318041814E0,-9.149541789E-1,2.995418066E0,3.896535435E0
1.080684792E0,1.248980758E0,-8.781389397E-1,2.849158738E0,3.232458267E0
1.090630792E0,-6.986063227E-1,-4.136454839E-1,3.898110926E0,3.981761190E0
1.100576792E0,-2.690482262E0,2.140560400E-1,4.159386156E0,4.958327136E0
1.110522792E0,-4.405648368E0,9.186911345E-1,4.599915676E0,6.435289828E0
1.120468792E0,-5.063488196E0,1.842441865E0,4.837859346E0,7.241435478E0
1.130414792E0,-5.682520638E0,2.499860693E0,5.884181165E0,8.553591776E0
1.140360792E0,-6.141558641E0,2.740816848E0,6.425918094E0,9.301787080E0
1.150307792E0,-5.796378205E0,3.013226346E0,5.347895011E0,8.442601161E0
1.160253792E0,-5.339290248E0,3.058866203E0,5.371273933E0,8.167941385E0
1.170199792E0,-4.815384111E0,3.330905573E0,5.644580394E0,8.132905010E0
1.180145792E0,-3.838693860E0,4.713283247E0,5.800104051E0,8.401893627E0
1.190091792E0,-4.017847577E0,5.235288162E0,5.923091462E0,8.867601353E0
1.200037792E0,-5.221576442E0,4.304928324E0,6.101219285E0,9.111648873E0
1.209983792E0,-5.175651825E0,4.339011744E0,5.835645767E0,8.925758021E0
1.219929792E0,-4.003255851E0,4.853263836E0,5.145148070E0,8.127285890E0
1.229875792E0,-2.614468751E0,5.551215563E0,4.939915479E0,7.877449207E0
1.239822792E0,-1.933041401E0,5.762740343E0,4.774854428E0,7.729492877E0
1.249768792E0,-1.994563904E0,4.883773438E0,4.914615746E0,7.209922059E0
1.259714792E0,-3.926767253E0,4.255235177E0,5.264222524E0,7.825507412E0
1.269660792E0,-6.266496683E0,3.895282336E0,2.841406792E0,7.906693222E0
1.279606792E0,-2.490225943E0,4.113222097E0,4.016171765E-1,4.825051048E0
1.289552792E0,3.131622815E0,3.910627769E0,-2.118562883E0,5.439520171E0
1.299498792E0,3.122719553E0,1.531237260E0,-3.078695281E0,4.644828262E0
1.309445292E0,-5.907344033E-1,-1.062883472E-1,-9.432310799E0,9.451388859E0
1.319391292E0,-2.962222254E0,-4.587891462E0,-1.726880067E1,1.811173612E1
1.329338292E0,-8.102462610E-1,-9.026803470E0,-2.378749303E1,2.545553976E1
1.339284292E0,3.111476526E0,-8.820803724E0,-1.442273862E1,1.719020808E1
1.349230292E0,4.195616966E0,-7.591752323E0,-6.200112659E0,1.066204962E1
1.359176292E0,2.624670095E0,-6.072486652E0,-6.383422869E-1,6.646161909E0
1.369122292E0,1.335551710E0,-2.243859066E0,1.560304354E0,3.041899334E0
1.379068292E0,-7.698764994E-1,-5.941367519E-1,8.956782478E-1,1.322099780E0
1.389014292E0,-2.423733453E0,6.941025048E-1,-2.456128782E-1,2.533098463E0
1.398960292E0,-2.828743184E0,1.836125702E0,-2.008733754E0,3.925322521E0
1.408907292E0,-3.185688803E0,2.029570307E0,-4.213420569E0,5.658681973E0
1.418853292E0,-4.803889655E0,-2.342318577E0,-3.813808987E0,6.565740714E0
1.428799292E0,-4.364466136E0,-8.874425030E0,4.753961742E-1,9.901009332E0
1.438745292E0,9.312306346E-1,-1.108689040E1,9.104433444E-1,1.116311947E1
1.448691292E0,7.583657438E0,-9.065797382E0,2.890986210E0,1.216792273E1
1.458637292E0,6.739632323E0,-8.392274737E0,7.541663319E0,1.314266353E1
1.468583292E0,2.991686958E0,-5.576477873E0,8.338918310E0,1.046827851E1
1.478529292E0,1.521776611E-1,-2.101935448E0,5.373370160E0,5.771862571E0
1.488475292E0,-4.253354420E0,-6.857860100E-1,4.546189120E0,6.263318752E0
1.498422292E0,-5.437344546E0,-1.472551095E0,5.968738335E0,8.207250439E0
1.508368292E0,-4.358071913E0,-2.245709125E0,5.627797131E0,7.463785958E0
1.518314292E0,-3.145383360E0,-1.943790484E0,4.659261407E0,5.948148854E0
1.528260292E0,-2.482781268E0,-1.962678160E0,5.795761909E0,6.603572101E0
1.538206292E0,-2.172730612E0,-2.537493957E0,7.554078712E0,8.259766285E0
1.548152292E0,-1.598211853E0,-2.879697576E0,7.640957227E0,8.320526822E0
1.558098292E0,-6.865517760E-1,-4.121853172E0,7.792018290E0,8.841751859E0
1.568044292E0,1.066998743E0,-4.740947594E0,7.496322840E0,8.933640161E0
1.577990292E0,3.523799662E0,-4.133286817E0,6.496835464E0,8.468181329E0
1.587937292E0,5.591937327E0,-3.073192466E0,5.887311764E0,8.681861253E0
1.597883292E0,5.358769662E0,-2.709286907E0,4.118444830E0,7.281362211E0
1.607829292E0,4.934758819E0,-1.018414228E0,2.069926620E0,5.447348746E0
1.617775292E0,2.819949557E0,-1.179512036E-1,9.735871339E-1,2.985615497E0
1.627721292E0,-4.028455304E-1,3.199011683E-1,7.990497932E-1,9.503167108E-1
1.637667292E0,-1.430107327E0,2.121837031E0,-2.496787396E0,3.575100929E0
1.647613292E0,-1.467334210E0,4.316320454E0,-6.638861409E0,8.053457193E0
1.657559292E0,-1.325142643E0,6.457610003E0,-6.604676832E0,9.331585397E0
1.667506292E0,-1.918652427E0,7.102781838E0,-4.163500550E0,8.453725439E0
1.677452292E0,-2.335208216E0,6.892767393E0,-2.274985842E0,7.624893463E0
1.687398292E0,-1.810287880E0,6.021928702E0,-4.333429992E-1,6.303059071E0
1.697344292E0,-6.760865025E-1,5.378626222E0,1.475903012E0,5.618273996E0
1.707290292E0,1.978802150E0,5.202734959E0,1.263991438E0,5.708045493E0
1.717236292E0,3.369850660E0,2.313490634E0,5.006701791E-1,4.118106727E0
1.727182292E0,3.726733713E0,-2.363503039E-2,1.345882863E-3,3.726808903E0
1.737128292E0,5.154949758E0,3.679997796E-1,-4.173169506E-1,5.184889997E0
1.747074292E0,5.709817194E0,1.309586856E0,-1.070559697E0,5.955092627E0
1.757021292E0,5.021727966E0,1.696854381E0,-9.530002570E-1,5.385654653E0
1.766967292E0,4.000168521E0,6.649342543E-1,2.849272174E0,4.955990080E0
1.776913292E0,2.792633412E0,3.190361313E0,3.540962702E0,5.524094816E0
1.786859292E0,8.556262824E-1,3.666477279E0,-5.618320549E-1,3.806679292E0
1.796805292E0,2.019281839E-1,2.679871904E0,-3.363797330E0,4.305533752E0
1.806751292E0,-6.047830698E-1,1.332495078E0,-5.650929886E0,5.837320812E0
1.816697292E0,-4.310952564E-1,8.516528070E-2,-6.769842548E0,6.784089059E0
1.826643292E0,8.116537589E-1,-9.666967750E-2,-5.862130145E0,5.918842513E0
1.836589292E0,2.050804178E0,4.034093481E-1,-4.040856956E0,4.549402358E0
1.846536292E0,2.201501251E0,7.937367207E-1,-2.364859593E0,3.327038719E0
1.856482292E0,2.532619134E0,9.956346452E-2,-1.394139349E0,2.892697199E0
1.866428292E0,2.380359831E0,-2.651060334E0,-1.083277976E0,3.723939445E0
1.876374292E0,2.609422896E0,-5.800458977E0,-1.832238035E0,6.619026243E0
1.886320292E0,3.133299797E0,-8.607549922E0,-3.515531407E0,9.811546481E0
1.896266292E0,3.438966503E0,-9.753759726E0,-5.402191086E0,1.166816129E1
1.906212292E0,3.677823216E0,-8.925084722E0,-7.193552259E0,1.203871733E1
1.916158292E0,3.150852846E0,-6.863916646E0,-7.684340059E0,1.077452122E1
1.926105292E0,3.281027946E0,-3.375518659E0,-6.220694273E0,7.801045304E0
1.936051292E0,3.663183250E0,-7.473700547E-1,-4.206464721E0,5.627772114E0
1.945997292E0,3.924686229E0,1.176927567E-1,-3.703730475E0,5.397650694E0
1.955943292E0,4.550294742E0,-6.354789054E-1,-5.153592035E0,6.904239751E0
1.965889292E0,5.657691021E0,-2.419127017E0,-7.273329331E0,9.526959786E0
1.975835292E0,6.853062460E0,-3.859909605E0,-7.992221691E0,1.121333915E1
1.985781292E0,8.214480205E0,-5.148877425E0,-6.640796837E0,1.175111937E1
1.995727292E0,9.109314700E0,-6.255405099E0,-3.989391518E0,1.174840210E1
2.005673292E0,8.520455645E0,-6.954574801E0,-2.056033051E0,1.118890285E1
2.015620292E0,6.327546877E0,-7.287159165E0,-5.094690327E-1,9.664372554E0
2.025566292E0,4.671283867E0,-7.727707103E0,2.738157535E0,9.435881343E0
2.035512292E0,4.882099380E0,-8.716085354E0,6.729086870E0,1.204515041E1
2.045458292E0,5.386222925E0,-7.537115355E0,1.034956469E1,1.389003220E1
2.055404292E0,5.897312257E0,-4.452995612E0,1.166200732E1,1.380615358E1
2.065350292E0,5.870996279E0,-2.728791465E0,9.858043063E0,1.179389305E1
2.075296292E0,5.348088554E0,-1.940938797E0,7.030331912E0,9.044051160E0
2.085242292E0,4.672239887E0,-1.595768886E0,3.267463868E0,5.920525654E0
2.095189292E0,2.656586537E0,-1.765110099E0,-2.045675147E0,3.789175702E0
2.105135292E0,-7.450836472E-2,-3.024181105E0,-5.890172807E0,6.621582783E0
2.115081292E0,-1.609123634E0,-5.088724194E0,-4.936815870E0,7.270250596E0
2.125027292E0,-1.455377238E0,-6.124031612E0,-1.641248822E0,6.505042951E0
2.134973292E0,-1.992755214E0,-6.822925910E0,2.413192677E-1,7.112076090E0
2.144919292E0,-3.443476169E0,-6.909444237E0,1.042293087E0,7.790014292E0
2.154865292E0,-4.952196386E0,-5.512581255E0,2.209788510E0,7.732785164E0
2.164811292E0,-5.744342079E0,-3.619856259E0,3.585627828E0,7.678382133E0
2.174757292E0,-5.806703219E0,-1.933560780E0,5.704195096E0,8.366259694E0
2.184704292E0,-5.064945906E0,-6.024427217E-1,7.876331046E0,9.383666928E0
2.194650292E0,-3.759682481E0,1.237162659E0,9.180287619E0,9.997172829E0
2.204596292E0,-3.038279619E0,2.765468709E0,9.607896838E0,1.044943261E1
2.214542292E0,-2.146878171E0,3.884624616E0,9.479844570E0,1.046741837E1
2.224488292E0,-1.380894382E0,4.642493346E0,9.944331594E0,1.106116380E1
2.234434292E0,1.204180708E-1,7.041659138E0,1.072182650E1,1.282797831E1
2.244380292E0,3.524000222E0,1.209102105E1,1.115837495E1,1.682619086E1
2.254326292E0,2.019924448E0,8.062639124E0,1.124164164E1,1.398072785E1
2.264272292E0,6.949980059E-1,3.402289551E0,8.158679057E0,8.866940869E0
2.274219292E0,-3.213322378E-1,6.345866203E-2,1.925304512E0,1.952966685E0
2.284165292E0,-1.173657804E0,-2.244254923E-1,2.789424752E0,3.034588916E0
2.294111292E0,-1.984742921E0,-9.153816104E-3,4.208428216E0,4.652972846E0
2.304057292E0,-2.736611238E0,3.879434627E-1,5.395977250E0,6.062681888E0
2.314003167E0,-3.197863875E0,1.024702324E0,6.378636339E0,7.208560866E0
2.323949167E0,-3.736374895E0,1.194549320E0,6.977887065E0,8.004895585E0
2.333895167E0,-3.984940325E0,1.507469498E0,7.037062642E0,8.226327510E0
2.343841167E0,-3.431460725E0,2.301258844E0,6.391059333E0,7.610279520E0
2.353788167E0,-2.364629505E0,3.131921316E0,5.797161148E0,7.000534351E0
2.363734167E0,-1.226785605E0,3.348479964E0,5.030897570E0,6.166623983E0
2.373680167E0,2.326680198E-1,4.113024461E0,4.355793838E0,5.995335235E0
2.383626167E0,1.347311630E0,5.241368097E0,3.943945203E0,6.696408883E0
2.393572167E0,1.946189450E0,4.311178413E0,3.301316907E0,5.768241154E0
2.403518167E0,3.278148485E0,4.042757301E0,2.670477183E0,5.849922432E0
2.413464167E0,4.254860663E0,4.203292606E0,1.054783325E0,6.073226149E0
2.423410167E0,4.432498490E0,4.333135293E0,-1.050637064E0,6.287045615E0
2.433356167E0,2.929569063E0,3.501037914E0,-4.125035226E0,6.152686973E0
2.443303167E0,-4.824458697E-1,5.773663527E-1,-1.275913911E1,1.278130419E1
2.453249167E0,-3.943759262E0,-4.876947983E0,-2.637740260E1,2.711282402E1
2.463195167E0,-5.954129652E0,-9.051429019E0,-3.510522799E1,3.673903999E1
2.473141167E0,-2.252554899E0,-5.809981753E0,-2.048682867E1,2.141354806E1
2.483087167E0,6.934014237E-1,-1.565092639E0,-8.370188050E0,8.543440085E0
2.493033167E0,1.384907326E0,-6.520943534E-1,-2.980559707E0,3.350661355E0
2.502979167E0,6.492135765E-1,-2.191087360E0,1.825945700E0,2.925135858E0
2.512925167E0,-2.096710961E0,-5.623569594E0,5.196901776E0,7.939050315E0
2.522871167E0,-4.092333796E0,-6.672663578E0,5.646767837E0,9.651819628E0
2.532818167E0,-4.849482442E0,-4.018331142E0,3.380631756E0,7.147946292E0
2.542764167E0,-5.586273714E0,-2.174588272E0,1.925517935E0,6.296261389E0
2.552710167E0,-6.083797506E0,-3.687253021E0,4.131326830E0,8.226559932E0
2.562656167E0,-6.404178146E0,-6.564904071E0,6.712591875E0,1.136531358E1
2.572602167E0,-6.333164297E0,-9.170390621E0,7.076359439E0,1.320151117E1
2.582548167E0,-4.410052783E0,-9.073007584E0,6.528376515E0,1.201614464E1
2.592494167E0,-7.406977969E-1,-6.420105962E0,5.318905100E0,8.370014650E0
2.602440167E0,2.430481579E0,-3.074048499E0,4.212879701E0,5.753726641E0
2.612387167E0,3.681628584E0,-4.950545132E-2,5.004800861E0,6.213281861E0
2.622333167E0,3.924604076E0,1.349904578E0,4.620039454E0,6.210436706E0
2.632279167E0,3.643838030E0,1.698657078E0,4.533702976E0,6.059492893E0
2.642225167E0,3.580122675E0,1.322932541E0,5.309888694E0,6.539292532E0
2.652171167E0,3.231364035E0,-4.209077257E-1,6.781808290E0,7.524081374E0
2.662117167E0,2.230033033E0,-3.131354721E0,9.439060825E0,1.019187416E1
2.672063167E0,1.171112657E0,-4.482286069E0,1.070630799E1,1.166565146E1
2.682009167E0,-6.490217147E-1,-5.844323620E0,1.032916024E1,1.188565939E1
2.691955167E0,-3.543269429E0,-7.671490218E0,9.650762191E0,1.282746005E1
2.701902167E0,-4.747661952E0,-6.774767073E0,1.012458956E1,1.307459661E1
2.711848167E0,-5.005898969E0,-4.838420679E0,8.810686871E0,1.122931620E1
2.721794167E0,-4.657022508E0,-3.126132572E0,6.688240560E0,8.728867354E0
2.731740167E0,-3.648488905E0,-1.989700482E0,4.602881092E0,6.201362241E0
2.741686167E0,-2.224885729E0,-1.215303428E0,2.399074283E0,3.490363354E0
2.751632167E0,-4.440018155E-1,-1.661527258E-1,8.533134162E-1,9.761598879E-1
2.761578167E0,1.765459762E0,7.853921592E-2,-1.341380507E0,2.218629812E0
2.771524167E0,4.344730029E0,1.704219534E0,-2.518574706E0,5.303231260E0
2.781471167E0,6.745699979E0,2.857067097E0,-5.696757438E0,9.280104844E0
2.791417167E0,8.459045262E0,3.378496061E0,-8.020059700E0,1.213635200E1
2.801363167E0,9.728434850E0,4.035322566E0,-7.891057259E0,1.316035932E1
2.811309167E0,1.036715077E1,4.322715554E0,-6.431077677E0,1.294304620E1
2.821255167E0,1.012353940E1,3.972763206E0,-4.895783619E0,1.192634037E1
2.831201167E0,9.574644892E0,3.026844512E0,-3.462859104E0,1.062200573E1
2.841147167E0,8.589027697E0,2.741282871E0,-1.803523382E0,9.194494284E0
2.851093167E0,7.370508301E0,3.977469045E0,-8.190557492E-1,8.415194884E0
2.861039167E0,5.932799009E0,5.570917171E0,-6.787915707E-2,8.138662654E0
2.870986167E0,4.757342602E0,6.045209391E0,4.703418410E-1,7.707015419E0
2.880932167E0,2.434218388E0,4.032701844E0,5.440454096E-1,4.741738999E0
2.890878167E0,-1.313030866E0,3.344490409E-1,-1.611247416E-1,1.364502620E0
2.900824167E0,-4.202846756E0,-1.010052125E0,-2.455296139E0,4.971177454E0
2.910770167E0,-6.267003052E0,-1.872544500E0,-4.700129351E0,8.054375585E0
2.920716167E0,-6.803013217E0,-1.239269995E0,-5.092685097E0,8.587911298E0
2.930662167E0,-5.288049928E0,9.270298487E-1,-4.773893731E0,7.184213091E0
2.940608167E0,-2.785284339E0,1.489073573E0,-5.835992507E0,6.635808729E0
2.950554167E0,-2.974770963E-1,7.044702029E-1,-7.079618093E0,7.120797935E0
2.960501167E0,1.522664511E0,2.360854250E-1,-7.533302386E0,7.689270991E0
2.970447167E0,2.469073348E0,-3.705655378E-1,-7.609328468E0,8.008465631E0
2.980393167E0,2.252909094E0,-5.725704664E-1,-6.949004159E0,7.327489006E0
2.990339167E0,1.907104907E0,5.142333806E-2,-5.417221354E0,5.743342292E0
3.000285167E0,1.746883012E0,4.239728361E-1,-3.199622717E0,3.670005280E0
3.010231167E0,2.143911586E0,7.078791296E-1,-5.609935641E-1,2.326405710E0
3.020177167E0,2.660124103E0,6.772514141E-1,2.216042107E0,3.527856621E0
3.030123167E0,3.381807339E0,-8.040243119E-1,4.189258704E0,5.443616855E0
3.040070167E0,4.079042782E0,-2.868055184E0,5.104823917E0,7.136074396E0
3.050016167E0,3.185593493E0,-4.812066693E0,4.255990638E0,7.170596075E0
3.059962167E0,1.355920193E0,-6.702925842E0,2.166274701E0,7.173596065E0
3.069908167E0,-6.815271905E-1,-8.060870342E0,5.913581550E-2,8.089845921E0
3.079854167E0,-1.261572884E0,-7.525862389E0,-1.595734972E0,7.795931050E0
3.089800167E0,-1.331826156E-1,-5.658929461E0,-2.846718695E0,6.336010384E0
3.099746167E0,1.392054963E0,-3.182226081E0,-3.553996730E0,4.969433832E0
3.109692167E0,1.433607177E0,-2.471274825E0,-5.792493900E0,6.458747122E0
3.119638167E0,2.590459791E0,-3.242267631E0,-8.250415438E0,9.235374179E0
3.129585167E0,4.470353656E0,-4.757675309E0,-9.764532636E0,1.174587731E1
3.139531167E0,5.429537929E0,-5.460100155E0,-1.039207745E1,1.293398043E1
3.149477167E0,6.255669394E0,-4.832588666E0,-8.019598355E0,1.126060702E1
3.159423167E0,5.929457910E0,-5.312557948E0,-4.646599846E0,9.218060164E0
3.169369167E0,4.949369257E0,-6.144973415E0,-2.204662256E0,8.192526471E0
3.179315167E0,4.730300691E0,-6.086718190E0,-1.115554460E-1,7.709495935E0
3.189261167E0,4.067204802E0,-6.027447304E0,1.142698258E0,7.360573022E0
3.199207167E0,2.439358821E0,-6.138175442E0,1.472555773E0,6.767280822E0
3.209154167E0,3.687257114E-1,-5.217683365E0,7.517238915E-1,5.284436314E0
3.219100167E0,-1.534625137E-1,-5.551392149E0,5.292580351E0,7.671565179E0
3.229046167E0,-1.784343638E0,-6.393070775E0,7.682183021E0,1.015239736E1
3.238992167E0,-4.422204759E0,-7.778605362E0,7.009346840E0,1.136633360E1
3.248938167E0,-6.666932722E0,-8.127657824E0,6.407678289E0,1.231118007E1
3.258884167E0,-7.129288436E0,-7.459435680E0,7.006078831E0,1.247217202E1
3.268830167E0,-5.790405275E0,-6.210975031E0,7.000238632E0,1.100492367E1
3.278776167E0,-2.870169538E0,-5.660775427E0,4.923476032E0,8.032612766E0
3.288722167E0,1.093740984E0,-5.775735780E0,-1.133036612E0,5.986582089E0
3.298669167E0,2.814181278E0,-5.184596896E0,-6.501727245E0,8.779072753E0
3.308615417E0,2.119619767E0,-3.669616064E0,-7.855794455E0,8.925938412E0
3.318561417E0,-8.555159162E-1,-2.659649309E0,-4.200913082E0,5.045127615E0
3.328507417E0,-2.482894996E0,-1.526072415E0,4.903671513E0,5.704354379E0
3.338453417E0,-2.066549561E0,-1.313226163E-1,1.071671721E1,1.091493932E1
3.348399417E0,-1.658507317E0,3.930293709E-1,9.098984424E0,9.257247763E0
3.358345417E0,1.821091926E-1,6.137424660E-1,5.634882202E0,5.671132251E0
3.368291417E0,8.529751548E-1,1.050147652E0,4.471316108E0,4.671514149E0
3.378238417E0,9.902848814E-1,2.020517063E0,4.881717557E0,5.375343678E0
3.388184417E0,1.553726236E0,2.739834516E0,4.877201752E0,5.805846650E0
3.398130417E0,1.453753905E0,3.178127768E0,4.863811044E0,5.989203152E0
3.408076417E0,1.285417390E0,3.422444319E0,5.937845156E0,6.973050127E0
3.418022417E0,1.305539706E0,3.463674206E0,7.212989573E0,8.107323326E0
3.427968417E0,-2.249179740E-1,2.306023740E0,8.176053473E0,8.498010590E0
3.437914417E0,-2.260953548E0,1.243295803E0,9.960944703E0,1.028970917E1
3.447860417E0,-2.856280646E0,1.213628785E0,1.124735554E1,1.166765788E1
3.457806417E0,-3.230165356E0,1.502658994E0,1.163511949E1,1.216831779E1
3.467753417E0,-3.431814482E0,2.121304935E0,1.136123357E1,1.205632255E1
3.477699417E0,-3.504941807E0,3.137733448E0,1.048853429E1,1.149518768E1
3.487645417E0,-3.260287872E0,4.406152983E0,8.554926735E0,1.016023782E1
3.497591417E0,-2.707142733E0,5.334873261E0,7.515544392E0,9.605878513E0
3.507537417E0,-2.265500050E0,6.891215542E0,6.621918517E0,9.821972662E0
3.517483417E0,-1.355118394E0,7.626600559E0,5.149745736E0,9.301680659E0
3.527429417E0,-1.456237656E0,7.392954007E0,2.780580254E0,8.031688715E0
3.537375417E0,-1.516469532E0,7.205846615E0,1.143852206E0,7.451999943E0
3.547322417E0,-1.412941948E0,6.863382795E0,-9.507718831E-1,7.071520029E0
3.557268417E0,-5.033726891E-1,7.296883669E0,-3.364852753E0,8.051094919E0
3.567214417E0,1.086141723E0,7.793050323E0,-6.531018287E0,1.022572917E1
3.577160417E0,2.725908495E0,6.385229074E0,-1.006001759E1,1.222316167E1
3.587106417E0,4.103548171E0,3.201594983E0,-1.353864312E1,1.450462601E1
3.597052417E0,5.709554070E0,-1.557891793E0,-1.600774454E1,1.706674895E1
3.606998417E0,7.239742924E0,-7.326666462E0,-1.578977086E1,1.885234158E1
3.616944417E0,7.055127615E0,-1.182902368E1,-1.209482291E1,1.832990366E1
3.626890417E0,4.931331182E0,-8.282071095E0,-6.352603950E0,1.154410264E1
3.636837417E0,1.935487730E0,-1.339659086E0,-2.904599113E0,3.738648851E0
3.646783417E0,-8.691261146E-1,1.081250746E0,-2.065642950E0,2.488245200E0
3.656729417E0,-2.047802656E0,1.756784833E0,-1.643689742E0,3.159351933E0
3.666675417E0,-2.789633498E0,6.194183582E-1,-1.565138832E0,3.258127333E0
3.676621417E0,-2.951394380E0,4.748406887E-2,-1.776190572E0,3.444972637E0
3.686567417E0,-3.060242930E0,5.019589055E-1,-3.294110799E0,4.524181196E0
3.696513417E0,-3.399522064E0,-1.740938294E-1,-2.566725358E0,4.263230933E0
3.706459417E0,-2.688191030E0,-2.221701627E0,-1.247731501E-1,3.489684438E0
3.716405417E0,-2.354504759E0,-3.175681878E0,2.075434697E0,4.464983452E0
3.726352417E0,-5.894959630E-1,-2.678885479E0,4.947914470E0,5.657366039E0
3.736298417E0,1.507900438E0,-3.440813347E0,5.907011619E0,7.000410451E0
3.746244417E0,7.869714922E-1,-3.347434482E0,6.377566298E0,7.245549919E0
3.756190417E0,-1.211029113E0,-2.392136269E0,7.382546548E0,7.854355542E0
3.766136417E0,-3.774858345E0,-2.619687683E0,8.227653982E0,9.423725862E0
3.776082417E0,-5.262293528E0,-4.086859340E0,7.272717127E0,9.863395300E0
3.786028417E0,-7.528795937E0,-4.532527685E0,4.997648547E0,1.010955323E1
3.795974417E0,-7.773162773E0,-4.631016431E0,4.632374155E0,1.016500187E1
3.805921417E0,-5.026508065E0,-6.544323041E0,6.354379749E0,1.041499349E1
3.815867417E0,-2.190093918E0,-8.079685512E0,7.595566462E0,1.130355958E1
3.825813417E0,1.029864246E-1,-7.828117830E0,7.781256489E0,1.103802462E1
3.835759417E0,3.114776110E0,-6.872676360E0,4.955496554E0,9.027317246E0
3.845705417E0,6.909189883E0,-5.214432898E0,2.533207363E0,9.019110534E0
3.855651417E0,9.146033460E0,-3.771392700E0,2.083362060E0,1.011008053E1
3.865597417E0,8.568312181E0,-2.794072704E0,2.458244305E0,9.341615544E0
3.875543417E0,5.717847760E0,-1.759772760E0,2.841042218E0,6.622847126E0
3.885490417E0,2.606377666E0,5.869446766E-1,2.915901488E0,3.954768019E0
3.895436417E0,-4.332187459E-1,1.969428771E0,1.603683093E0,2.576456409E0
3.905382417E0,-3.087381028E0,2.943231082E0,9.942959252E-1,4.379857897E0
3.915328417E0,-5.772096473E0,3.419539422E0,1.023146087E0,6.786543705E0
3.925274417E0,-6.583935004E0,4.121963099E0,9.345768499E-1,7.823823478E0
3.935220417E0,-6.095936911E0,4.174589210E0,5.357543501E-1,7.407744232E0
3.945166417E0,-3.944217684E0,3.801553223E0,1.269285215E0,5.623143694E0
3.955112417E0,-6.757447328E-1,3.040140495E0,1.661690395E0,3.529915034E0
3.965058417E0,3.099676553E0,1.896320449E0,1.131477598E0,3.805820218E0
3.975005417E0,5.366924189E0,1.772953554E0,-1.088605374E-3,5.652189022E0
3.984951417E0,5.600812815E0,2.307965600E0,-1.138743933E0,6.163809467E0
3.994897417E0,5.419478964E0,2.507579017E0,-1.883103987E0,6.261372485E0
4.004843417E0,4.446681204E0,2.030977732E0,-3.113430666E0,5.795799754E0
4.014789417E0,3.757202385E0,1.412868565E0,-2.966060951E0,4.991020427E0
4.024735417E0,3.167920576E0,1.614825547E-2,-2.446087943E0,4.002415242E0
4.034681417E0,2.028969213E0,9.250020343E-1,-1.844894772E0,2.894128807E0
4.044627417E0,1.184155091E0,1.820513636E0,-2.640006173E0,3.418497590E0
4.054574417E0,1.686621461E0,1.586577063E0,-4.089391769E0,4.699472712E0
4.064520417E0,1.741306961E0,1.876734615E0,-4.984280058E0,5.603332084E0
4.074466417E0,1.539088170E0,2.073425594E0,-5.390566821E0,5.977131147E0
4.084412417E0,1.656413576E0,1.941122400E0,-5.231312056E0,5.820505814E0
4.094358417E0,1.186641254E0,1.507893421E0,-4.641678829E0,5.022652923E0
4.104304417E0,3.705186139E-1,1.324797803E0,-3.978620946E0,4.209726582E0
4.114250417E0,-3.890687594E-1,1.150944294E0,-2.686682156E0,2.948611246E0
4.124196417E0,-6.024796323E-1,1.316106502E0,-1.423201765E0,2.029931352E0
4.134143417E0,-7.355608718E-1,6.163257658E-1,-5.614040387E-1,1.111792130E0
4.144089417E0,1.617135562E-1,-4.887640786E-1,-6.753767967E-2,5.192330276E-1
4.154035417E0,1.643438604E0,-1.533959724E0,3.657164419E-1,2.277646021E0
4.163981417E0,3.003471144E0,-2.484049821E0,2.126316400E-1,3.903402957E0
4.173927417E0,5.108417031E0,-3.824778948E0,-2.064294984E-1,6.384941010E0
4.183873417E0,7.291873190E0,-4.822052568E0,3.489033580E-3,8.742060270E0
4.193819417E0,6.493630021E0,-3.444250925E0,-9.628832209E-1,7.413315006E0
4.203765417E0,4.729359582E0,-3.370653191E0,-3.224924789E0,6.642912380E0
4.213712417E0,3.486096816E0,-3.107729630E0,-4.947227422E0,6.803375165E0
4.223658417E0,2.343046993E0,-2.676719670E0,-6.230017074E0,7.174106923E0
4.233604417E0,1.485005957E0,-2.524155289E0,-6.227109253E0,6.881387380E0
4.243550417E0,4.282970714E-1,-2.238152769E0,-6.546802261E0,6.932054965E0
4.253496417E0,-2.307006876E-1,-1.720974146E0,-6.889504062E0,7.104944830E0
4.263442417E0,3.596310618E-1,-1.313616173E0,-6.734131848E0,6.870476962E0
4.273388417E0,1.932254805E0,-1.519144633E0,-5.235823767E0,5.784052175E0
4.283334417E0,2.367325802E0,-2.252383722E0,-3.419817749E0,4.729970119E0
4.293281417E0,2.575152073E0,-3.267518831E0,-1.755814780E0,4.515636506E0
4.303227417E0,3.535701377E0,-3.817338367E0,-1.487295434E0,5.411589798E0
4.313173208E0,5.451490130E0,-3.604210280E0,-6.748926473E-1,6.569973856E0
4.323119208E0,6.566752376E0,-3.017667307E0,5.108466733E-1,7.244964946E0
4.333065208E0,5.737072821E0,-1.976567051E0,6.575334334E-1,6.103537669E0
4.343011208E0,3.299875276E0,-1.333000277E0,5.592969945E-1,3.602621227E0
4.352957208E0,1.021307065E0,-1.249530689E0,8.965629315E-1,1.846136548E0
4.362903208E0,-1.151664233E0,-2.299555550E0,2.141538055E0,3.346710545E0
4.372850208E0,-2.914841096E0,-4.112554929E0,3.177252147E0,5.958551659E0
4.382796208E0,-4.215930486E0,-5.485358958E0,3.315929099E0,7.671937079E0
4.392742208E0,-5.784746339E0,-6.646240010E0,3.179329371E0,9.367173092E0
4.402688208E0,-6.783777047E0,-6.859320150E0,3.142105996E0,1.014606988E1
4.412634208E0,-6.740027595E0,-6.522907614E0,2.394390956E0,9.680361758E0
4.422580208E0,-5.183781794E0,-5.457173624E0,7.793326896E-1,7.567013750E0
4.432526208E0,-3.055288585E0,-4.303876995E0,-1.086887462E0,5.388828247E0
4.442473208E0,-1.318328151E0,-3.670377957E0,-2.240491655E0,4.497717901E0
4.452419208E0,1.134891202E-1,-2.969864565E0,-1.419150814E0,3.293472991E0
4.462365208E0,1.125690755E0,-2.249201667E0,1.363780605E0,2.861116103E0
4.472311208E0,1.422933962E0,-1.914888282E0,3.684600139E0,4.389512089E0
4.482257208E0,1.402543844E0,-1.211702712E0,5.004073468E0,5.336300588E0
4.492203208E0,5.563076055E-1,-9.877549374E-1,5.617256355E0,5.730506690E0
4.502149208E0,-2.713508597E-1,-6.252053475E-1,6.052825390E0,6.091076113E0
4.512095208E0,-2.290279819E-1,3.734663415E-1,5.738024163E0,5.754724339E0
4.522042208E0,2.676709145E-3,1.863041021E0,3.731752086E0,4.170959439E0
4.531988208E0,9.065157697E-2,3.214460612E0,1.133491525E0,3.409659480E0
4.541934208E0,-5.089109525E-1,3.781330628E0,6.080081016E-1,3.863563837E0
4.551880208E0,-1.547632268E0,3.808205600E0,2.215808803E0,4.669839846E0
4.561826208E0,-1.951110906E0,3.873207927E0,3.996982958E0,5.897834024E0
4.571772208E0,-1.948990998E0,3.563748132E0,5.289474894E0,6.669138724E0
4.581718208E0,-2.347801657E0,3.379973068E0,5.861426725E0,7.161893173E0
4.591664208E0,-2.132731125E0,3.604897327E0,6.256471632E0,7.529094505E0
4.601611208E0,-1.615683918E0,3.454824445E0,6.571504993E0,7.598086887E0
4.611557208E0,-1.189967515E0,3.325278797E0,6.745471938E0,7.614124600E0
4.621503208E0,-7.325779147E-1,3.300464968E0,6.734676808E0,7.535622809E0
4.631449208E0,-6.282296006E-1,3.071107934E0,6.777419370E0,7.467247799E0
4.641395208E0,-1.040840273E0,2.813686604E0,6.987512752E0,7.604308991E0
4.651341208E0,-1.410654956E0,2.810208095E0,7.173228507E0,7.832140458E0
4.661287208E0,-1.691935265E0,2.737863420E0,6.727340307E0,7.457590003E0
4.671234208E0,-1.660181375E0,2.700064094E0,5.610045569E0,6.443536265E0
4.681180208E0,-1.195287166E0,2.712476563E0,4.105706086E0,5.063898002E0
4.691126208E0,-6.047775149E-1,2.738642853E0,2.782397568E0,3.950652699E0
4.701072208E0,-5.286055077E-1,2.840325349E0,1.855206336E0,3.433462163E0
4.711018208E0,-9.564754035E-1,2.560396916E0,-6.164427102E-2,2.733912505E0
4.720964208E0,-1.094857363E0,2.502941591E0,-3.280027780E0,4.268724808E0
4.730910208E0,-4.506644985E-1,2.998152809E0,-6.993044218E0,7.621987024E0
4.740856208E0,2.397875165E-1,2.566844056E0,-1.132511181E1,1.161483293E1
4.750803208E0,1.178195901E0,1.153231725E0,-1.590397283E1,1.598919763E1
4.760749208E0,3.558736483E0,-1.487100137E0,-1.824654752E1,1.864973374E1
4.770695208E0,5.854646294E0,-3.322094404E0,-1.644513030E1,1.776951055E1
4.780641208E0,6.269775801E0,-2.875811516E0,-1.073342036E1,1.275878886E1
4.790587208E0,4.989575881E0,-2.703700477E0,-4.219980560E0,7.072064739E0
4.800533208E0,3.303419566E0,-2.660686020E0,-9.835870421E-1,4.354224891E0
4.810479208E0,2.046774570E0,-2.190099766E0,-1.614018631E-1,3.001978295E0
4.820426208E0,7.805123654E-1,-1.976624939E0,-1.145863064E0,2.414383537E0
4.830372208E0,-9.884558724E-1,-1.663000172E0,-3.805801810E0,4.269278862E0
4.840318208E0,-2.473229257E0,-1.223022922E0,-4.674734309E0,5.428239943E0
4.850264208E0,-3.463045045E0,-2.168486118E0,-1.754792102E0,4.446831271E0
4.860210208E0,-4.152305471E0,-3.124213516E0,2.280549760E0,5.674791452E0
4.870156208E0,-3.322830568E0,-2.846171395E0,5.783818386E0,7.252203094E0
4.880102208E0,-2.045312473E0,-2.301115587E0,7.326517358E0,7.947093347E0
4.890048208E0,-1.030733361E0,-1.593939877E0,7.169612589E0,7.416629981E0
4.899995208E0,-1.268706340E0,-9.114522815E-1,6.005067671E0,6.204933422E0
4.909941208E0,-2.081273727E0,-1.453817786E0,5.644183368E0,6.188868424E0
4.919887208E0,-3.297001955E0,-2.822701841E0,5.799147447E0,7.243478355E0
4.929833208E0,-4.643479187E0,-4.086950557E0,5.264245328E0,8.122643824E0
4.939779208E0,-5.099741517E0,-4.438053637E0,5.751585610E0,8.876058847E0
4.949725208E0,-4.234771092E0,-4.099988678E0,7.169339524E0,9.281305004E0
4.959671208E0,-3.296240062E0,-4.617136311E0,7.582133068E0,9.469524177E0
4.969618208E0,-2.803531744E0,-4.174528399E0,7.299542398E0,8.863960561E0
4.979564208E0,-1.947128075E0,-3.862297023E0,6.665334678E0,7.945774500E0
4.989510208E0,-1.283644807E0,-4.356821194E0,6.237651783E0,7.716082858E0
4.999456208E0,-5.196087990E-1,-4.673507563E0,6.860801250E0,8.317587393E0
5.009402208E0,1.112426346E0,-4.404067281E0,7.227646789E0,8.536520315E0
5.019348208E0,2.233771888E0,-5.017312734E0,5.564724385E0,7.818524247E0
5.029294208E0,2.223833668E0,-5.034711708E0,3.796821364E0,6.686524556E0
5.039240208E0,1.994341856E0,-4.299728980E0,2.436338296E0,5.329241319E0
5.049187208E0,1.993069210E0,-3.492961739E0,1.750020189E0,4.385849661E0
5.059133208E0,1.500176851E0,-2.859940419E0,6.317799568E-1,3.290734826E0
5.069079208E0,8.693366144E-1,-1.630461001E0,-1.895550370E-1,1.857439188E0
5.079025208E0,3.721526914E-1,-3.095574439E-1,-9.850304273E-1,1.097546527E0
5.088971208E0,-6.941606116E-2,7.631908661E-1,-2.618386678E0,2.728227938E0
5.098917208E0,-3.373968781E-1,2.149188552E0,-4.436406476E0,4.941108227E0
5.108863208E0,-7.316493038E-1,3.489968550E0,-5.742358704E0,6.759428575E0
5.118810208E0,-7.333906777E-1,4.641000552E0,-4.735250652E0,6.670783069E0
5.128756208E0,-4.141335071E-1,5.178515207E0,-2.209143562E0,5.645249471E0
5.138702208E0,2.832252391E-2,5.649585611E0,4.429664198E-1,5.666995587E0
5.148648208E0,7.815306580E-1,6.049835123E0,1.937345098E0,6.400359460E0
5.158594208E0,1.661211509E0,5.973647658E0,2.202530361E0,6.579911094E0
5.168540208E0,2.406611344E0,5.912846555E0,1.412788458E0,6.538310468E0
5.178486208E0,3.313710081E0,5.421190444E0,1.156895006E-1,6.354790664E0
5.188433208E0,4.277397294E0,4.865448849E0,-1.243743115E0,6.596636798E0
5.198379208E0,4.639500741E0,4.793918690E0,-2.246366937E0,7.039374117E0
5.208325208E0,4.138516567E0,4.412341091E0,-2.444907975E0,6.524848526E0
5.218271208E0,3.526920029E0,3.203595316E0,-2.196778748E0,5.246715611E0
5.228217208E0,3.239026519E0,1.613680662E0,-1.922215428E0,4.097581021E0
5.238163208E0,3.197847503E0,-2.535703540E-2,-2.431491539E0,4.017340256E0
5.248109208E0,3.349490655E0,-1.473228788E0,-3.171928550E0,4.842584169E0
5.258056208E0,3.486584766E0,-3.114063919E0,-3.781632344E0,6.012853782E0
5.268002208E0,3.756710342E0,-4.226309586E0,-3.952754619E0,6.899190850E0
5.277948208E0,4.073116629E0,-5.775241690E0,-4.094975860E0,8.167773439E0
5.287894208E0,4.268257511E0,-6.944564368E0,-4.228160230E0,9.182719389E0
5.297840208E0,4.033717505E0,-6.537107577E0,-3.766739486E0,8.555289518E0
5.307786208E0,3.687132568E0,-5.411933132E0,-2.775334424E0,7.112415059E0
5.317732292E0,3.593329488E0,-4.508368160E0,-1.505792516E0,5.958591392E0
5.327679292E0,4.077785338E0,-3.624650391E0,-1.832230872E-1,5.458937115E0
5.337625292E0,4.807463180E0,-2.726015791E0,8.920950741E-1,5.598097708E0
5.347571292E0,5.086660126E0,-2.330508370E0,9.966906524E-1,5.683200926E0
5.357517292E0,4.417097801E0,-2.834216763E0,-6.928117320E-1,5.293725129E0
5.367463292E0,3.537062902E0,-3.394325643E0,-3.739827091E0,6.165919819E0
5.377409292E0,2.506251407E0,-3.755317535E0,-6.505920868E0,7.919009549E0
5.387355292E0,1.264232782E0,-4.574664475E0,-7.908598321E0,9.223435748E0
5.397302292E0,9.793195979E-1,-7.945950919E-1,-8.339083786E0,8.433905775E0
5.407248292E0,1.255429653E0,1.922797810E0,-7.937601680E0,8.263097208E0
5.417194292E0,4.484803296E0,-5.282512030E0,-5.121006086E0,8.616443424E0
5.427140292E0,6.304348633E0,-4.089302307E0,-2.439122740E0,7.900412950E0
5.437086292E0,7.412468505E0,-3.407006500E0,-1.284469557E0,8.258465031E0
5.447032292E0,8.183321562E0,-4.129911804E0,-2.121014913E0,9.408593283E0
5.456978292E0,8.333021393E0,-4.467064013E0,-3.540852774E0,1.009611533E1
5.466925292E0,6.383399481E0,-5.046103254E0,-4.055590185E0,9.091686242E0
5.476871292E0,2.756932652E0,-4.476721274E0,-1.237153888E0,5.401135136E0
5.486817292E0,1.401332009E0,-2.938066821E0,4.562249082E0,5.604470067E0
5.496763292E0,1.606432161E0,-9.273730803E-1,8.696960281E0,8.892567866E0
5.506709292E0,2.463405934E0,-1.310820034E0,9.614064481E0,1.001083682E1
5.516655292E0,2.882084701E0,-3.327439343E0,8.469158607E0,9.544889329E0
5.526602292E0,2.227876579E0,-5.084316562E0,7.084056129E0,8.999864455E0
5.536548292E0,1.291776237E0,-7.306301780E0,5.407239572E0,9.180902534E0
5.546494292E0,1.879673718E-1,-9.611033869E0,3.401111337E0,1.019680647E1
5.556440292E0,-1.711074225E0,-1.198293526E1,7.152051061E-2,1.210469445E1
5.566386292E0,-3.618770431E0,-1.344490290E1,-3.572084800E0,1.437430705E1
5.576332292E0,-4.411059381E0,-1.342612632E1,-2.826436165E0,1.441204546E1
5.586278292E0,-3.893096647E0,-1.190083334E1,1.277502599E-1,1.252207474E1
5.596225292E0,-3.077276162E0,-8.934954237E0,3.428776853E0,1.005283773E1
5.606171292E0,-2.553735183E0,-5.174826783E0,6.805344502E0,8.922617857E0
5.616117292E0,-3.048366943E0,-2.452074323E0,7.704312978E0,8.640697192E0
5.626063292E0,-3.393362607E0,2.272530304E0,8.075463822E0,9.049443061E0
5.636009292E0,-2.687735825E0,3.132848684E0,7.067959914E0,8.185030366E0
5.645955292E0,-2.224977091E0,2.227872194E0,6.022839113E0,6.796214281E0
5.655901292E0,-1.921986071E0,1.601802628E0,5.418667370E0,5.968396617E0
5.665848292E0,-1.860728008E0,1.887977057E0,5.643452466E0,6.235007765E0
5.675794292E0,-1.670259198E0,2.558319401E0,5.973906105E0,6.709867218E0
5.685740292E0,-1.235180306E0,3.017320567E0,5.689564778E0,6.557517911E0
5.695686292E0,-1.177157070E0,3.558923594E0,5.261502399E0,6.460266513E0
5.705632292E0,-1.918151174E0,4.284311042E0,5.344029416E0,7.112895011E0
5.715578292E0,-3.394153150E0,4.832101008E0,6.036022246E0,8.444112761E0
5.725525292E0,-5.027038407E0,4.907745268E0,7.089837272E0,9.981125753E0
5.735471292E0,-6.169085578E0,4.848118286E0,7.621071432E0,1.093812587E1
5.745417292E0,-6.806673574E0,4.649215305E0,7.689464559E0,1.127270479E1
5.755363292E0,-6.729031906E0,4.366555638E0,7.752044384E0,1.115530684E1
5.765309292E0,-5.846249108E0,4.224105186E0,7.688589815E0,1.054211111E1
5.775255292E0,-4.819446172E0,4.248465856E0,7.087122994E0,9.565763737E0
5.785201292E0,-3.998775129E0,4.466659386E0,6.513564933E0,8.852557638E0
5.795148292E0,-2.893839944E0,5.039999930E0,5.955237699E0,8.321103591E0
5.805094292E0,-2.101109821E0,5.798093194E0,5.064874570E0,7.980319641E0
5.815040292E0,-1.779393239E0,6.750461951E0,4.331431999E0,8.215611968E0
5.824986292E0,-1.050704161E0,7.703452853E0,4.117107571E0,8.797598527E0
5.834932292E0,-3.241931708E-1,7.696376553E0,3.770101342E0,8.576303247E0
5.844878292E0,2.230568784E-1,6.697240595E0,2.099660296E0,7.022204733E0
5.854825292E0,1.001285979E0,5.473186809E0,-5.398272282E-1,5.590148557E0
5.864771292E0,1.928661691E0,3.543382280E0,-3.555901169E0,5.377706483E0
5.874717292E0,2.905296101E0,2.370946544E-1,-1.082930768E1,1.121476100E1
5.884663292E0,5.050645371E0,-5.199757556E0,-2.305258222E1,2.416543077E1
5.894609292E0,7.892167060E0,-1.435897824E1,-2.960954928E1,3.384068507E1
5.904555292E0,1.043250627E1,-1.903525271E1,-1.934828691E1,2.907807144E1
5.914502292E0,8.063005160E0,-1.870014176E1,-6.395625424E0,2.134505513E1
5.924448292E0,2.861353106E0,-1.372090551E1,-4.053468230E-1,1.402194336E1
5.934394292E0,-1.212503415E0,-8.209001364E0,7.478466028E-1,8.331695054E0
5.944340292E0,-5.072852511E0,-3.924723651E0,4.236541629E-2,6.413975614E0
5.954286292E0,-7.413042701E0,6.316033709E-1,-1.105052715E0,7.521520220E0
5.964232292E0,-7.822789847E0,4.425779747E0,-2.036269462E0,9.215745259E0
5.974178292E0,-8.061609430E0,7.326529638E0,-3.828944505E0,1.154679173E1
5.984125292E0,-8.483540418E0,8.668584328E0,-3.083180096E0,1.251482368E1
5.994071292E0,-9.279069310E0,7.287160335E0,5.049509257E-1,1.180926790E1
6.004017292E0,-8.645298377E0,2.465924622E0,4.608428637E0,1.010245429E1
6.013963292E0,-5.848244762E0,-3.327550440E0,5.986833129E0,9.006482646E0
6.023909292E0,-2.775864474E0,-9.817080978E0,5.754637272E0,1.171308468E1
6.033855292E0,9.160734822E-1,-1.560327977E1,8.212719609E0,1.765645189E1
6.043802292E0,2.952739532E0,-1.609964873E1,1.039381057E1,1.938939551E1
6.053748292E0,5.209216597E0,-9.712833309E0,9.311115561E0,1.442816487E1
6.063694292E0,6.416196513E0,-3.300617580E0,8.336533231E0,1.102539978E1
6.073640292E0,7.886065491E0,5.221236718E0,8.301327145E0,1.258425104E1
6.083586292E0,5.355304602E0,2.819633807E0,7.182468862E0,9.392416150E0
6.093532292E0,3.386097149E0,3.348741335E-1,6.339590971E0,7.195012736E0
6.103479292E0,2.892060344E0,-2.246345887E0,6.019620221E0,7.045985416E0
6.113425292E0,2.970671773E0,-4.574400766E0,5.954529017E0,8.075051019E0
6.123371292E0,2.911856092E0,-5.725004168E0,5.975034617E0,8.772435084E0
6.133317292E0,2.989797723E0,-5.623115850E0,6.173575071E0,8.869687223E0
6.143263292E0,3.377316093E0,-4.018663264E0,6.399033766E0,8.276687233E0
6.153209292E0,4.201385829E0,-1.313284636E0,6.652173765E0,7.976702026E0
6.163156292E0,4.091625406E0,6.955952990E-1,6.559097786E0,7.761895068E0
6.173102292E0,3.401618291E0,1.816947420E0,6.089725413E0,7.208124619E0
6.183048292E0,2.672593875E0,1.779105409E0,4.949621272E0,5.899722435E0
6.192994292E0,1.668824437E0,1.398197901E-1,3.114106604E0,3.535842830E0
6.202940292E0,3.024830438E-1,-6.329055458E-1,1.770887733E-1,7.234817588E-1
6.212886292E0,-2.619846143E0,1.090950108E-1,-5.534800090E0,6.124500597E0
6.222833292E0,-5.219218844E0,1.055410146E0,-8.063613271E0,9.663125524E0
6.232779292E0,-4.687852537E0,1.824686210E0,-4.796486202E0,6.950663354E0
6.242725292E0,-3.775049549E0,1.413034042E0,-7.085304364E-1,4.092637252E0
6.252671292E0,-2.870403134E0,1.536751769E0,1.607735213E0,3.631202647E0
6.262617292E0,-1.546337841E0,2.817207797E0,1.257178262E0,3.450843038E0
6.272563292E0,-1.298824179E0,2.716977165E0,-3.895181179E-1,3.036549609E0
6.282510292E0,-1.591184815E0,2.733727099E0,-1.387796874E0,3.454144342E0
6.292456292E0,-2.078243115E0,2.238519389E0,-1.756763198E0,3.523674281E0
6.302402292E0,-1.696477528E0,1.922380904E0,-1.625529460E0,3.035775085E0
6.312348583E0,-4.199031740E-1,1.962412112E0,-1.539038615E0,2.529035356E0
6.322294583E0,8.592636160E-1,1.832647194E0,-1.684471001E0,2.633319626E0
6.332240583E0,1.584321207E0,1.483685948E0,-2.334892613E0,3.187965055E0
6.342187583E0,2.119501215E0,1.229278858E0,-3.051335574E0,3.913318374E0
6.352133583E0,2.619706979E0,1.042576677E0,-3.678794439E0,4.635014488E0
6.362079583E0,3.343629991E0,1.252122760E0,-3.944111849E0,5.320121352E0
6.372025583E0,3.836293578E0,1.850488218E0,-3.641486864E0,5.603738185E0
6.381971583E0,4.156757833E0,2.744559066E0,-3.359969158E0,6.008380222E0
6.391917583E0,3.716117509E0,2.674684839E0,-2.467433789E0,5.201124670E0
6.401864583E0,2.621075520E0,1.386681810E0,-8.756680526E-1,3.091879341E0
6.411810583E0,5.563308847E-1,-1.192201079E0,5.095627709E-1,1.410851403E0
6.421756583E0,1.165583383E0,-2.581588395E0,2.030264372E-1,2.839789253E0
6.431702583E0,4.554428724E0,-1.614227961E0,-3.498079222E0,5.965325738E0
6.441648583E0,6.716605403E0,-1.138566908E0,-6.766595004E0,9.601871208E0
6.451595583E0,7.070147358E0,-1.055790215E0,-7.343678936E0,1.024847779E1
6.461541583E0,5.768068326E0,-1.300288029E0,-5.580520054E0,8.130409906E0
6.471487583E0,3.840909955E0,-1.837152473E0,-3.518115876E0,5.523120296E0
6.481433583E0,2.171503866E0,-2.436736491E0,-2.258654276E0,3.969210615E0
6.491379583E0,1.167242019E0,-3.040901803E0,-8.825734681E-1,3.374681264E0
6.501325583E0,6.024608846E-1,-3.567106188E0,7.791993731E-1,3.700588782E0
6.511272583E0,9.128644571E-1,-3.518928055E0,1.003526778E0,3.771371391E0
6.521218583E0,2.807451133E0,-2.878933344E0,-1.754377534E0,4.387240545E0
6.531164583E0,5.582257261E0,-2.215546848E0,-6.370906320E0,8.755494920E0
6.541110583E0,7.472161560E0,-2.661250277E0,-9.407887564E0,1.230543782E1
6.551056583E0,7.484075262E0,-3.599077009E0,-9.624158530E0,1.271177270E1
6.561002583E0,8.108540352E0,-4.949312539E0,-8.817047473E0,1.296088143E1
6.570949583E0,6.939516467E0,-5.411719708E0,-6.597758991E0,1.099881915E1
6.580895583E0,5.765641732E0,-5.418696606E0,-2.992975684E0,8.459479945E0
6.590841583E0,6.256574543E0,-5.220959560E0,-1.175114345E0,8.233106185E0
6.600787583E0,7.289872858E0,-4.809047191E0,4.668557310E-1,8.745692394E0
6.610733583E0,7.504692544E0,-4.670899705E0,1.367132814E0,8.944650153E0
6.620680583E0,6.632410176E0,-4.254222440E0,1.983774329E0,8.125431305E0
6.630626583E0,5.792855843E0,-4.595856539E0,3.233430734E0,8.070573118E0
6.640572583E0,4.666902840E0,-5.754779359E0,6.027119275E0,9.551106447E0
6.650518583E0,3.141827376E0,-6.852846113E0,9.027690493E0,1.176145292E1
6.660464583E0,1.941778457E0,-6.349142983E0,9.604797814E0,1.167622633E1
6.670410583E0,1.498300187E0,-4.945821751E0,8.590983006E0,1.002551970E1
6.680357583E0,1.751436531E0,-4.151695606E0,7.232604643E0,8.521424544E0
6.690303583E0,2.105094991E0,-4.010697017E0,5.900916481E0,7.438946888E0
6.700249583E0,1.616291736E0,-4.209549712E0,4.793531312E0,6.581082752E0
6.710195583E0,6.177176955E-1,-3.988814397E0,3.852507907E0,5.579787865E0
6.720141583E0,-8.073711120E-1,-3.799252928E0,2.382824286E0,4.556755699E0
6.730087583E0,-2.040881161E0,-3.988443684E0,1.549746037E-1,4.482956174E0
6.740034583E0,-2.410518015E0,-3.715145994E0,-7.252588087E-1,4.487639379E0
6.749980583E0,-1.599455702E0,-2.946708421E0,1.300951104E0,3.596362445E0
6.759926583E0,-8.036661699E-1,-2.423929920E0,2.841333994E0,3.820274130E0
6.769872583E0,-8.185926497E-1,-1.857907165E0,3.218476772E0,3.805325964E0
6.779818583E0,-7.493715566E-1,-1.275804568E0,4.176909969E0,4.431231422E0
6.789765583E0,-5.360032222E-1,-6.842446840E-1,5.639994423E0,5.706577550E0
6.799711583E0,-4.081425230E-1,1.590553755E-1,5.865624442E0,5.881957924E0
6.809657583E0,-1.010904357E0,9.545784205E-1,6.089335404E0,6.246051012E0
6.819603583E0,-1.221989646E0,1.554469417E0,5.975456201E0,6.294101261E0
6.829549583E0,-1.126617392E0,2.126120701E0,5.728868592E0,6.213661669E0
6.839495583E0,-1.160373076E0,2.459040111E0,5.459347619E0,6.099001587E0
6.849442583E0,-1.668493192E0,2.441073956E0,5.308747317E0,6.076636378E0
6.859388583E0,-2.225146514E0,2.509289328E0,5.555755341E0,6.489547546E0
6.869334583E0,-2.412330506E0,3.075912006E0,5.767427471E0,6.967337567E0
6.879280583E0,-2.307829798E0,3.721482037E0,6.392650360E0,7.748644111E0
6.889226583E0,-2.712724193E0,3.839060773E0,7.381326819E0,8.751071121E0
6.899173583E0,-3.644504612E0,3.764634488E0,8.117188969E0,9.661451415E0
6.909119583E0,-3.979124684E0,4.140734416E0,8.401053162E0,1.017628660E1
6.919065583E0,-4.003659309E0,4.611408963E0,8.262720904E0,1.027457723E1
6.929011583E0,-3.844886354E0,4.777316691E0,7.583795432E0,9.752941043E0
6.938957583E0,-3.258147791E0,4.852962704E0,6.722297668E0,8.908201837E0
6.948903583E0,-2.482866930E0,4.951568395E0,5.901583648E0,8.093908037E0
6.958850583E0,-1.325247162E0,5.063613911E0,5.275570216E0,7.431561544E0
6.968796583E0,-1.085581487E0,4.713866799E0,4.600973437E0,6.675925699E0
6.978742583E0,-1.362361486E0,4.217165126E0,3.827320148E0,5.855671612E0
6.988688583E0,-9.919054373E-1,4.229696293E0,3.364749257E0,5.495065486E0
6.998634583E0,-8.238791174E-1,4.380343958E0,3.379319057E0,5.593387817E0
7.008580583E0,-1.124554641E0,3.756163627E0,3.013318732E0,4.945045815E0
7.018527583E0,-1.401206878E0,2.423629957E0,2.209544681E0,3.566433875E0
7.028473583E0,-6.924562213E-1,1.713124843E0,4.932301819E-1,1.912477022E0
7.038419583E0,4.450446665E-1,1.047990614E0,-2.678073593E0,2.910056228E0
7.048365583E0,1.321473953E0,-1.316974813E0,-7.309138264E0,7.543488466E0
7.058311583E0,2.399989518E0,-4.744548309E0,-1.641711512E1,1.725666124E1
7.068258583E0,5.028905423E0,-9.722451979E0,-2.514826875E1,2.742720152E1
7.078204583E0,7.595458288E0,-1.124903953E1,-2.060947753E1,2.467756959E1
7.088150583E0,7.424133115E0,-7.538602302E0,-1.110779653E1,1.534051567E1
7.098096583E0,5.236281019E0,-4.244351755E0,-4.575255336E0,8.146540501E0
7.108042583E0,2.703929688E0,-2.234245659E0,-5.028666857E-1,3.543439618E0
7.117988583E0,1.978776349E-1,-5.699555916E-1,1.204266808E0,1.346945982E0
7.127935583E0,-2.343816633E0,-4.587783873E-2,2.937857491E-1,2.362602644E0
7.137881583E0,-4.613637337E0,-1.182961893E-1,-1.813063114E0,4.958512007E0
7.147827583E0,-5.357062860E0,3.133049244E-1,-4.214780046E0,6.823536715E0
7.157773583E0,-5.101783950E0,2.497573847E-1,-5.541141980E0,7.536234647E0
7.167719583E0,-5.239584696E0,-8.012521470E-1,-2.792479922E0,5.991093131E0
7.177665583E0,-5.383311011E0,-3.246789867E0,1.683474197E0,6.508130858E0
7.187612583E0,-3.324459895E0,-4.114786227E0,9.140828853E0,1.056116714E1
7.197558583E0,-2.221146727E0,-5.931044260E0,5.108926324E0,8.137069925E0
7.207504583E0,3.634421673E-1,-7.760697094E0,-3.166728913E0,8.389796279E0
7.217450583E0,2.160042154E0,-6.762290869E0,1.661424640E0,7.290726420E0
7.227396583E0,3.474936674E-1,-3.974739565E0,7.934864014E0,8.881518641E0
7.237342583E0,-1.189216513E0,-1.405203450E0,7.125988267E0,7.359928086E0
7.247289583E0,-3.348591354E0,4.534410489E-1,6.132746302E0,7.002088977E0
7.257235583E0,-5.697622826E0,4.429903203E-1,5.884562988E0,8.202879242E0
7.267181583E0,-6.134406912E0,1.151848859E-1,5.862787372E0,8.486253089E0
7.277127583E0,-5.880548875E0,-2.827538073E-1,5.749615098E0,8.229148107E0
7.287073583E0,-5.287310255E0,-1.373848926E0,5.800703976E0,7.968141390E0
7.297020583E0,-3.877071183E0,-2.974369259E0,5.980878909E0,7.723306674E0
7.306966583E0,-1.466588105E0,-4.384856254E0,6.062525336E0,7.624438240E0
7.316911583E0,2.588601253E0,-3.681287692E0,5.888599906E0,7.411365891E0
7.326857583E0,6.212330416E0,-3.036964288E0,5.755073474E0,8.996503319E0
7.336803583E0,7.777306695E0,-3.840255359E0,5.887018234E0,1.048289294E1
7.346749583E0,8.176905413E0,-4.864671169E0,6.309463193E0,1.141648516E1
7.356696583E0,8.374517913E0,-4.875472730E0,5.963288730E0,1.137820711E1
7.366642583E0,8.121070935E0,-4.025710913E0,4.664026010E0,1.019368825E1
7.376588583E0,6.838540315E0,-2.341902840E0,3.488899971E0,8.026366897E0
7.386534583E0,4.058180501E0,-1.305124846E0,2.388135897E0,4.886243230E0
7.396480583E0,1.544473310E0,-1.321985292E-1,2.014818951E-1,1.563160008E0
7.406426583E0,-7.934887256E-2,1.339373158E0,-2.136288717E0,2.522686303E0
7.416373583E0,-1.416643674E0,2.471566016E0,-3.644745225E0,4.625979423E0
7.426319583E0,-2.455557801E0,3.135783402E0,-3.960620878E0,5.616886984E0
7.436265583E0,-2.487551134E0,3.757972171E0,-2.836771996E0,5.325179888E0
7.446211583E0,-2.237924435E0,4.170874473E0,-1.277174424E0,4.902619112E0
7.456157583E0,-2.029203833E0,4.639528223E0,2.662485793E-2,5.063950949E0
7.466103583E0,-2.433245850E0,3.913806900E0,6.908113264E-1,4.660020397E0
7.476050583E0,-3.310018149E0,2.314860637E0,6.120224344E-1,4.085262706E0
7.485996583E0,-2.383601381E0,2.997178078E0,-3.659911148E-1,3.846892444E0
7.495942583E0,-1.271344166E0,3.361648479E0,-7.748437091E-1,3.676598870E0
7.505888583E0,-8.363519593E-1,2.815755934E0,-8.105983365E-1,3.047135662E0
7.515834583E0,1.045879038E-1,2.364054431E0,-9.575376964E-1,2.552757416E0
7.525780583E0,1.083020845E0,1.709238199E0,-1.321096516E0,2.416552374E0
7.535727583E0,2.111857296E0,1.595437349E0,-1.786454775E0,3.193240084E0
7.545673583E0,2.707280143E0,1.239730756E0,-2.147302240E0,3.671131301E0
7.555619583E0,2.723999671E0,5.938508230E-1,-2.398215035E0,3.677535637E0
7.565565583E0,2.581111262E0,2.173269725E-1,-2.778205699E0,3.798393512E0
7.575511583E0,2.566235946E0,1.427381355E-1,-3.125467159E0,4.046540012E0
7.585458583E0,2.745485265E0,-1.772302759E-1,-2.989749776E0,4.062967343E0
7.595404583E0,2.966919322E0,-6.093015057E-1,-2.706227644E0,4.061714743E0
7.605350583E0,3.248750439E0,-7.593632787E-1,-2.646070320E0,4.258250831E0
7.615296583E0,3.529743357E0,-1.115601969E0,-3.042835477E0,4.791920665E0
7.625242583E0,4.038144432E0,-1.228654960E0,-3.998614916E0,5.814217463E0
7.635188583E0,4.253330154E0,-1.583021956E0,-4.634939913E0,6.486867034E0
7.645135583E0,4.043134739E0,-1.777711433E0,-4.422991210E0,6.250603786E0
7.655081583E0,4.714114721E0,-2.929404171E0,-4.469109369E0,7.125813985E0
7.665027583E0,4.900558747E0,-3.124256201E0,-4.628509730E0,7.429640312E0
7.674973583E0,3.959708420E0,-2.802210274E0,-4.255628110E0,6.453064683E0
7.684919583E0,2.995094715E0,-3.133040473E0,-3.065419763E0,5.308797725E0
7.694866583E0,2.673577377E0,-3.822681552E0,-2.286540963E0,5.195111146E0
7.704812583E0,2.393859590E0,-4.289108098E0,-2.789863878E0,5.648924895E0
7.714758583E0,1.877607166E0,-4.411863374E0,-4.708873862E0,6.720375000E0
7.724704583E0,1.758362704E0,-4.483129238E0,-7.113074107E0,8.589884191E0
7.734650583E0,2.808015389E0,-4.567184717E0,-7.946063771E0,9.585617148E0
7.744596583E0,4.552840912E0,-3.907036409E0,-7.117510389E0,9.308718924E0
7.754543583E0,5.745073566E0,-3.336123628E0,-7.286715361E0,9.860619245E0
7.764489583E0,5.883452017E0,-3.519587620E0,-8.717903838E0,1.109073271E1
7.774435583E0,5.636289627E0,-3.813703737E0,-9.966970843E0,1.206866209E1
7.784381583E0,5.007996950E0,-4.834034098E0,-9.071903629E0,1.143448095E1
7.794327583E0,4.130957579E0,-6.533822027E0,-4.160746511E0,8.778806999E0
7.804274583E0,4.739784290E0,-7.846062934E0,3.134549639E0,9.687706650E0
7.814220583E0,5.683964900E0,-8.090090048E0,9.999947970E0,1.406257350E1
7.824166583E0,6.637055204E0,-7.196577609E0,1.338511161E1,1.658319764E1
7.834112583E0,7.100371031E0,-5.990030386E0,1.434847781E1,1.709311406E1
7.844058583E0,6.064371886E0,-4.305283250E0,1.305100288E1,1.502134303E1
7.854004583E0,4.541039185E0,-2.546137311E0,9.742733631E0,1.104647956E1
7.863951583E0,5.128053735E0,-2.489304714E0,3.908205560E0,6.911414021E0
7.873897583E0,5.978010850E0,-3.146470942E0,-2.216081576E0,7.109705385E0
7.883843583E0,5.318288804E0,-3.527971943E0,-5.329475697E0,8.314691397E0
7.893789583E0,3.142408882E0,-3.551630947E0,-4.665027931E0,6.652165178E0
7.903735583E0,8.934241462E-1,-3.133091928E0,-1.218965831E0,3.478555653E0
7.913682583E0,-9.997883610E-2,-2.934968382E0,2.943972801E0,4.158246147E0
7.923628583E0,-1.054043944E-1,-2.911433339E0,6.985848050E0,7.568991157E0
7.933574583E0,-6.480596285E-1,-3.199778253E0,8.838214978E0,9.421921574E0
7.943520583E0,-2.971992074E-1,-3.277320519E0,7.510482457E0,8.199786820E0
7.953466583E0,2.137558586E-1,-3.031117072E0,3.874360998E0,4.923823252E0
7.963413583E0,6.191161302E-1,-2.773897471E0,1.316326357E0,3.132176087E0
7.973359583E0,1.412349479E0,-2.490854226E0,1.726769321E0,3.343773036E0
7.983305583E0,2.002849555E0,-1.827407504E0,3.759302412E0,4.634995054E0
7.993251583E0,1.487331395E0,-9.190600938E-1,5.544295968E0,5.813436498E0
8.003197583E0,3.453348023E-1,-3.737013996E-2,5.548221204E0,5.559083664E0
8.013143583E0,-9.148559457E-1,7.042795837E-1,5.544084883E0,5.663024662E0
8.023090583E0,-2.030079600E0,1.167172657E0,6.015937645E0,6.455619330E0
8.033036583E0,-2.764990992E0,1.525136860E0,6.708771304E0,7.414771071E0
8.042982583E0,-3.469439560E0,1.983391337E0,7.242885802E0,8.272257661E0
8.052928583E0,-4.289112775E0,2.362358154E0,7.636860668E0,9.071872205E0
8.062874583E0,-5.287087476E0,2.784953386E0,7.582320764E0,9.654058603E0
8.072821583E0,-6.149298016E0,3.183413066E0,7.197773949E0,9.987789278E0
8.082767583E0,-6.670468533E0,3.437050663E0,6.860655069E0,1.016745080E1
8.092713583E0,-7.003301988E0,3.705499257E0,6.810096534E0,1.044769727E1
8.102659583E0,-7.228992233E0,4.038544382E0,6.824885312E0,1.073066768E1
8.112605583E0,-7.238758838E0,4.566221096E0,6.537293519E0,1.076968946E1
8.122552583E0,-6.970495600E0,5.047606573E0,5.855189500E0,1.040910107E1
8.132498583E0,-6.414994326E0,5.460596584E0,4.864401612E0,9.727932478E0
8.142444583E0,-5.689028589E0,5.882304209E0,4.195798815E0,9.196264284E0
8.152390583E0,-4.827494572E0,6.071214298E0,3.470782666E0,8.497686697E0
8.162336583E0,-4.029808642E0,6.142205343E0,3.000817385E0,7.935423690E0
8.172283583E0,-3.471591336E0,5.747949226E0,2.324850020E0,7.106039285E0
8.182229583E0,-3.012374992E0,4.873471228E0,2.298540473E-1,5.733930396E0
8.192175583E0,-2.258111070E0,3.668931940E0,-2.911407903E0,5.199656062E0
8.202121583E0,-6.882921997E-1,2.590831089E0,-6.062071007E0,6.628337407E0
8.212068583E0,8.679994293E-1,1.752968355E0,-1.267401651E1,1.282407952E1
8.222014583E0,2.712641455E0,-9.063535094E-1,-2.016303793E1,2.036487169E1
8.231960583E0,4.454691889E0,-6.562985015E0,-2.202441952E1,2.340923124E1
8.241906583E0,8.750523700E0,-1.087258059E1,-1.218750595E1,1.852889568E1
8.251852583E0,1.239748531E1,-1.128479175E1,-2.539505399E0,1.695562604E1
8.261799583E0,1.131367232E1,-1.121246403E1,-2.261375570E-1,1.593014969E1
8.271745583E0,7.553908558E0,-8.711381854E0,-3.860884336E-1,1.153684413E1
8.281691583E0,4.506700241E0,-4.727987241E0,-1.861633596E0,6.791898855E0
8.291637583E0,2.531588854E0,-9.488276839E-1,-3.580046369E0,4.486195281E0
8.301583583E0,1.620166101E0,2.658237791E0,-3.589375601E0,4.751292830E0
8.311530583E0,6.999019195E-1,4.178795696E0,-2.716431620E0,5.033010721E0
8.321476958E0,8.696103372E-1,4.733644422E0,-2.227869270E0,5.303490656E0
8.331422958E0,2.161508343E0,5.186696631E0,1.253112109E0,5.757102588E0
8.341368958E0,1.844325253E0,4.348637431E0,4.323662803E0,6.403611729E0
8.351315958E0,5.876447345E-1,1.403252234E0,5.618301837E0,5.820632157E0
8.361261958E0,9.751830949E-2,-2.739559697E0,6.199360707E0,6.778404704E0
8.371207958E0,-1.712957540E-1,-6.726322891E0,6.879028190E0,9.622566743E0
8.381153958E0,-1.091017277E0,-1.117556342E1,6.730030026E0,1.309109776E1
8.391099958E0,-2.758881236E0,-1.522541632E1,5.914346366E0,1.656515079E1
8.401046958E0,-5.097105592E0,-1.407022285E1,4.833292086E0,1.572616828E1
8.410992958E0,-5.066691300E0,-8.932750422E-1,-1.880230665E-2,5.144866817E0
8.420938958E0,-7.598553219E0,2.353932316E0,-1.111917053E0,8.032145910E0
8.430884958E0,-7.304037153E0,2.260147655E0,5.217245994E0,9.256180741E0
8.440831958E0,-7.077155246E0,-1.327322046E0,6.511348253E0,9.708015568E0
8.450777958E0,-5.739570166E0,-2.890254723E0,5.709523079E0,8.596213809E0
8.460723958E0,-3.986683087E0,-3.368126609E0,5.843997345E0,7.835191374E0
8.470669958E0,-2.715555707E0,-4.164506856E0,6.545830454E0,8.219808786E0
8.480615958E0,-2.311395577E0,-4.575378420E0,7.676753297E0,9.230881777E0
8.490562958E0,-8.879800960E-1,-3.691211586E0,8.322026289E0,9.147112832E0
8.500508958E0,1.293315809E0,-2.230383573E0,8.018546441E0,8.422847718E0
8.510454958E0,2.640628024E0,-7.860511404E-1,7.715212773E0,8.192392867E0
8.520400958E0,2.977749535E0,4.715767729E-1,7.070504622E0,7.686443427E0
8.530347958E0,3.120380082E0,1.637515082E0,6.273277699E0,7.195292946E0
8.540293958E0,2.983956354E0,2.436296781E0,5.188539673E0,6.462235021E0
8.550239958E0,2.506076283E0,2.095575432E0,3.488851147E0,4.779533141E0
8.560185958E0,2.372720882E0,1.310196136E0,1.544216909E0,3.119458954E0
8.570131958E0,1.917548034E0,9.119481254E-1,-6.460696017E-1,2.219469706E0
8.580078958E0,6.902086247E-1,1.117816309E0,-4.323006746E0,4.518217411E0
8.590024958E0,-2.058174594E0,1.434017944E0,-1.009168844E1,1.039878194E1
8.599970958E0,-3.587906196E0,1.762974111E0,-1.056158707E1,1.129284154E1
8.609916958E0,-2.808116254E0,1.730553639E0,-6.408493391E0,7.207573818E0
8.619863958E0,-1.714074431E0,2.011794187E0,-2.884207533E0,3.912035289E0
8.629809958E0,-6.187851048E-1,2.930328031E0,-4.763452138E-1,3.032593303E0
8.639755958E0,5.599760755E-1,3.354883250E0,1.120443463E0,3.581090390E0
8.649701958E0,7.881758724E-1,3.361682977E0,1.253568776E0,3.673359269E0
8.659647958E0,8.223089938E-1,2.554347972E0,8.014258824E-1,2.800565851E0
8.669594958E0,1.363668192E0,2.157926631E0,1.339668734E-1,2.556205275E0
8.679540958E0,2.125947770E0,1.965768998E0,-6.725483523E-1,2.972578504E0
8.689486958E0,2.565494811E0,1.626695979E0,-1.495352751E0,3.385850452E0
8.699432958E0,3.531424139E0,1.164450778E0,-1.832163044E0,4.145325498E0
8.709379958E0,4.770162038E0,2.466916895E-1,-2.245520845E0,5.278036237E0
8.719325958E0,5.345806970E0,-9.096133322E-1,-3.385779353E0,6.392851508E0
8.729271958E0,5.046075772E0,-1.795114501E0,-4.949322479E0,7.292537952E0
8.739217958E0,4.246917805E0,-2.257957288E0,-6.521083283E0,8.103037032E0
8.749163958E0,3.680640697E0,-2.132699404E0,-7.562862400E0,8.677119935E0
8.759110958E0,3.224490341E0,-1.526979902E0,-7.552691753E0,8.352973021E0
8.769056958E0,2.297687510E0,-1.498248439E0,-6.353092192E0,6.919963633E0
8.779002958E0,1.463729401E0,-1.177867214E0,-4.499954893E0,4.876419688E0
8.788948958E0,5.899626439E-1,-9.863732404E-1,-2.436978274E0,2.694411104E0
8.798895958E0,-5.641866555E-1,-1.571314661E0,-6.025728223E-1,1.774945169E0
8.808841958E0,-1.197530596E0,-2.633148558E0,6.857700764E-1,2.972849047E0
8.818787958E0,-6.851613812E-1,-3.659359463E0,8.652955306E-1,3.822184474E0
8.828733958E0,1.331804814E0,-4.308121489E0,-3.024598011E-1,4.519413320E0
8.838679958E0,4.325730671E0,-3.976281475E0,-2.344881996E0,6.326233618E0
8.848626958E0,6.479059929E0,-3.629154502E0,-3.811153767E0,8.347087695E0
8.858572958E0,7.343671920E0,-3.254414636E0,-4.756545919E0,9.335173323E0
8.868518958E0,7.269621611E0,-3.359599029E0,-6.212382456E0,1.013548222E1
8.878464958E0,6.691655334E0,-3.641891491E0,-7.943031989E0,1.100606115E1
8.888410958E0,6.038550582E0,-3.292778218E0,-9.198953685E0,1.148595797E1
8.898357958E0,5.889790984E0,-2.431212042E0,-9.327847953E0,1.129642321E1
8.908303958E0,6.177656427E0,-2.378989390E0,-8.762493535E0,1.098199993E1
8.918249958E0,6.514111063E0,-2.866673487E0,-7.655062466E0,1.045234142E1
8.928195958E0,6.168075179E0,-3.741932089E0,-6.093997389E0,9.443728679E0
8.938141958E0,5.594726449E0,-4.565854475E0,-3.018071349E0,7.826668882E0
8.948088958E0,5.251700127E0,-4.995768667E0,2.386767941E0,7.631167670E0
8.958034958E0,5.904194430E0,-5.012784650E0,8.626798371E0,1.159349697E1
8.967980958E0,6.630104034E0,-4.359369995E0,1.290415123E1,1.514858096E1
8.977926958E0,5.182733973E0,-2.266462648E0,1.262223825E1,1.383179246E1
8.987872958E0,3.011162279E0,-5.945296848E-1,8.983910050E0,9.493745500E0
8.997819958E0,1.488774780E0,-9.249552566E-1,5.607503200E0,5.875039124E0
9.007765958E0,5.969505782E-1,-3.277500613E0,2.186378013E0,3.984797244E0
9.017711958E0,2.066069797E-2,-6.814954401E0,-1.614440654E0,7.003602572E0
9.027657958E0,-8.700190575E-1,-1.012995262E1,-2.727621729E0,1.052676558E1
9.037603958E0,-1.538250703E0,-1.131381382E1,-7.160757565E-1,1.144033928E1
9.047550958E0,-2.322753501E0,-1.123501791E1,1.460019343E0,1.156514020E1
9.057496958E0,-3.192241192E0,-1.046935776E1,2.743202512E0,1.128375008E1
9.067442958E0,-3.421050342E0,-8.426089770E0,3.508408621E0,9.747384537E0
9.077388958E0,-2.729009566E0,-5.569091086E0,3.279450075E0,7.015487262E0
9.087334958E0,-1.778199822E0,-2.522752542E0,4.205735573E0,5.216750589E0
9.097281958E0,-1.289796224E0,-3.005328512E-1,5.380578023E0,5.541165415E0
9.107227958E0,-1.632268376E0,9.804599512E-1,6.734140618E0,6.998160589E0
9.117173958E0,-1.599395329E0,1.888389870E0,7.223941408E0,7.636059926E0
9.127119958E0,-4.494696200E-1,2.215653852E0,5.092499156E0,5.571776430E0
9.137065958E0,9.302598506E-2,2.435100440E0,3.673014759E0,4.407879922E0
9.147012958E0,9.374124572E-2,2.762858512E0,3.267003399E0,4.279659542E0
9.156958958E0,-3.276618853E-1,3.086513008E0,4.356842244E0,5.349392414E0
9.166904958E0,-7.907208730E-1,3.419472764E0,5.569516178E0,6.583125697E0
9.176850958E0,-1.602563205E0,3.803732480E0,6.190664728E0,7.440491877E0
9.186796958E0,-2.505381049E0,4.178635483E0,6.945385317E0,8.483885071E0
9.196742958E0,-3.295956472E0,4.501760806E0,7.514777822E0,9.359544067E0
9.206689958E0,-4.439166070E0,4.474604582E0,8.010157440E0,1.019268874E1
9.216635958E0,-5.366709597E0,4.430533533E0,8.338815399E0,1.086126335E1
9.226581958E0,-5.811529511E0,4.757868267E0,8.020271369E0,1.098799065E1
9.236527958E0,-6.156714624E0,5.109916257E0,7.361488971E0,1.087234561E1
9.246473958E0,-6.298557551E0,5.571035285E0,6.906569161E0,1.088158807E1
9.256420958E0,-6.327764978E0,6.085753984E0,6.620979454E0,1.099610750E1
9.266366958E0,-6.128598872E0,6.693252209E0,6.462766662E0,1.114121637E1
9.276312958E0,-5.788680346E0,7.431186612E0,6.088720277E0,1.121623240E1
9.286258958E0,-5.510862173E0,7.963525311E0,5.349115909E0,1.106347044E1
9.296204958E0,-5.226115050E0,7.996157452E0,4.931288497E0,1.075027529E1
9.306151958E0,-4.704137033E0,7.686723969E0,5.011945574E0,1.031184896E1
9.316098292E0,-3.927875885E0,6.997786310E0,4.273027377E0,9.091533709E0
9.326044292E0,-2.701410123E0,5.724300163E0,1.642630519E0,6.539377954E0
9.335990292E0,-1.394406274E0,3.909656546E0,-1.276082895E0,4.342599535E0
9.345936292E0,3.437617551E-1,1.629651162E0,-3.685834486E0,4.044664500E0
9.355882292E0,3.621336190E0,-1.767793386E0,-9.890392199E0,1.067984209E1
9.365829292E0,9.084313760E0,-8.358110041E0,-3.113665724E1,3.349439033E1
9.375775292E0,1.588233112E1,-1.629649642E1,-3.660417342E1,4.310092515E1
9.385721292E0,1.866768854E1,-1.876800221E1,-1.656853228E1,3.122878103E1
9.395667292E0,1.401937313E1,-1.659462489E1,-4.488304901E0,2.218263463E1
9.405613292E0,6.305180692E0,-1.128975370E1,1.008899639E0,1.297041713E1
9.415560292E0,1.645473143E0,-5.991996805E0,2.977443725E0,6.890339521E0
9.425506292E0,-1.058392811E0,-1.801758692E0,1.409806086E0,2.520730634E0
9.435452292E0,-3.533678241E0,2.546695136E0,-2.814211684E0,5.185781082E0
9.445398292E0,-4.094025103E0,6.066197972E0,-4.302106458E0,8.489282617E0
9.455344292E0,-4.150749527E0,7.982803581E0,-3.303639421E0,9.584774805E0
9.465290292E0,-4.012490943E0,8.231048875E0,-2.929424052E0,9.614144498E0
9.475237292E0,-3.915307003E0,6.685656091E0,-4.776248404E-1,7.762457844E0
9.485183292E0,-4.113703615E0,2.768364835E0,2.962505844E0,5.776057666E0
9.495129292E0,-3.652666448E0,-3.102688746E0,6.612342532E0,8.166500070E0
9.505075292E0,-3.413386104E0,-9.166458954E0,7.744726594E0,1.247621595E1
9.515021292E0,-3.375147361E0,-1.496458723E1,7.065336853E0,1.688933023E1
9.524968292E0,-2.104118945E0,-1.856871506E1,7.802681272E0,2.025108221E1
9.534914292E0,-8.644954853E-1,-1.472915260E1,7.847049944E0,1.671141770E1
9.544860292E0,-3.614016353E-1,-7.076186947E0,5.605988771E0,9.034940118E0
9.554806292E0,-2.417964005E0,-4.296189076E-1,2.342232038E0,3.393696105E0
9.564752292E0,-5.040699842E0,3.617754185E0,2.969522795E0,6.878580222E0
9.574698292E0,-5.956908249E0,3.807786355E0,5.479012975E0,8.944471811E0
9.584645292E0,-6.132744548E0,2.719351720E0,6.007319434E0,9.005182744E0
9.594591292E0,-5.166041926E0,1.345019814E0,6.035023541E0,8.057206503E0
9.604537292E0,-3.775809979E0,-4.986680925E-2,6.488783848E0,7.507565752E0
9.614483292E0,-2.229224070E0,-1.473480803E0,6.927693397E0,7.425195043E0
9.624429292E0,-4.626875433E-1,-2.770632970E0,7.299563448E0,7.821388199E0
9.634376292E0,1.232656502E0,-3.596269176E0,7.475751750E0,8.386862242E0
9.644322292E0,2.701337618E0,-3.593515137E0,7.764412415E0,8.971993988E0
9.654268292E0,3.539956396E0,-2.887529921E0,7.327065243E0,8.634524040E0
9.664214292E0,3.932260712E0,-1.733518762E0,6.070907904E0,7.437989270E0
9.674160292E0,4.000167059E0,-6.941872895E-1,4.325083969E0,5.932080902E0
9.684106292E0,3.670127403E0,3.909740746E-2,2.558496864E0,4.474066379E0
9.694053292E0,3.112154219E0,1.111803033E0,1.240415465E0,3.529906569E0
9.703999292E0,2.455682932E0,2.245622002E0,-3.564927515E-1,3.346682524E0
9.713945292E0,1.844625069E0,3.174563890E0,-2.715347546E0,4.566575285E0
9.723891292E0,1.270985000E0,3.727735634E0,-4.900246214E0,6.286797975E0
9.733837292E0,5.206979160E-1,3.655029016E0,-6.024106790E0,7.065424689E0
9.743784292E0,2.027891864E-1,3.014996299E0,-4.892914975E0,5.750821079E0
9.753730292E0,3.677385552E-1,2.268812059E0,-2.956521803E0,3.744831235E0
9.763676292E0,5.191605368E-1,1.667728815E0,-1.174917294E0,2.105060025E0
9.773622292E0,1.132595147E0,1.277556394E0,9.977688789E-2,1.710227334E0
9.783568292E0,2.377915256E0,7.841946495E-1,1.109319720E0,2.738618713E0
9.793514292E0,3.353213578E0,1.817006477E0,2.254325582E0,4.430297695E0
9.803461292E0,2.282440165E0,2.211039814E0,3.054871970E0,4.408001012E0
9.813407292E0,1.313628598E0,2.650698391E0,2.967888790E0,4.190487552E0
9.823353292E0,3.334425158E-1,2.855549744E0,9.163956638E-1,3.017470674E0
9.833299292E0,-1.182184433E0,2.268388136E0,-2.452067745E0,3.543413748E0
9.843245292E0,-1.730295484E0,1.527108541E0,-5.006617591E0,5.512912358E0
9.853192292E0,-1.420249506E0,7.424578089E-1,-6.161930341E0,6.366925300E0
9.863138292E0,3.430122882E-4,4.239365834E-1,-5.116763347E0,5.134295423E0
9.873084292E0,2.131015990E0,-5.324883878E-2,-3.888944539E0,4.434856730E0
9.883030292E0,3.998165557E0,-1.063778096E0,-4.227817583E0,5.915352329E0
9.892976292E0,5.128532622E0,-2.116172833E0,-5.496889082E0,7.809982324E0
9.902922292E0,5.233831621E0,-2.958049681E0,-6.832713565E0,9.101045325E0
9.912869292E0,3.891528716E0,-3.157172517E0,-7.394312900E0,8.932390347E0
9.922815292E0,1.707030290E0,-2.639939514E0,-7.147494911E0,7.808323543E0
9.932761292E0,5.046485150E-2,-2.345054489E0,-5.870042598E0,6.321331138E0
9.942707292E0,-8.183630551E-2,-2.718896806E0,-2.848993261E0,3.939017597E0
9.952653292E0,1.584008381E0,-3.298952878E0,5.463619302E-1,3.700092432E0
9.962600292E0,4.863459918E0,-3.773309417E0,1.675148932E0,6.379438085E0
9.972546292E0,8.461527990E0,-3.557429631E0,8.334932555E-1,9.216695314E0
9.982492292E0,1.025973158E1,-2.539808870E0,-1.410880512E-1,1.057036551E1
9.992438292E0,1.065521853E1,-1.451735592E0,-1.288044544E0,1.083052524E1
1.000238429E1,1.023967913E1,-9.105500561E-1,-3.041044475E0,1.072045156E1
1.001233029E1,9.357077014E0,-1.368551933E0,-5.282655287E0,1.083209451E1
1.002227729E1,7.604820850E0,-2.503897026E0,-8.054979272E0,1.135717797E1
1.003222329E1,4.931011924E0,-3.530174004E0,-1.006243132E1,1.174859698E1
1.004216929E1,3.439947374E0,-4.347116570E0,-9.427386859E0,1.093646576E1
1.005211529E1,2.814482995E0,-4.468819347E0,-6.797846618E0,8.608273899E0
1.006206129E1,2.756207597E0,-4.186281302E0,-5.321869639E0,7.310535405E0
1.007200829E1,3.932994830E0,-3.630512225E0,-7.751858443E-1,5.408325105E0
1.008195429E1,6.008873039E0,-2.626923612E0,5.741673410E0,8.716312088E0
1.009190029E1,7.099409748E0,-1.506770756E0,8.960365652E0,1.153083386E1
1.010184629E1,5.308516352E0,1.357834572E-1,8.407486854E0,9.944074527E0
1.011179229E1,2.478889069E0,8.746779728E-1,6.429849762E0,6.946432216E0
1.012173829E1,9.203197302E-1,-4.905960113E-1,4.663391880E0,4.778587310E0
1.013168529E1,8.396240611E-1,-2.873825217E0,3.548999115E0,4.643192292E0
1.014163129E1,8.991023773E-1,-5.095153792E0,3.139662737E0,6.051979788E0
1.015157729E1,6.592206475E-1,-7.846536559E0,2.120046175E0,8.154587888E0
1.016152329E1,-3.594885725E-1,-1.110534304E1,2.656694126E-1,1.111433562E1
1.017146929E1,-2.258083003E0,-1.336022820E1,-1.218389296E0,1.360437830E1
1.018141629E1,-4.272649647E0,-1.346824966E1,-1.265268470E0,1.418626759E1
1.019136229E1,-5.848755224E0,-1.156122238E1,1.336267117E-1,1.295714693E1
1.020130829E1,-5.976160206E0,-8.263614943E0,1.370807497E0,1.028984625E1
1.021125429E1,-5.492822928E0,-5.054406885E0,2.140607471E0,7.765328906E0
1.022120029E1,-4.875054947E0,-2.521408267E0,3.101100057E0,6.304005231E0
1.023114629E1,-3.744385873E0,-9.602227378E-1,4.451076556E0,5.895297768E0
1.024109329E1,-4.161928234E0,-1.301666218E-1,5.787383434E0,7.129684213E0
1.025103929E1,-4.467002325E0,6.841897202E-1,6.107005690E0,7.597219481E0
1.026098529E1,-3.817493610E0,1.764145893E0,4.364312354E0,6.060749996E0
1.027093129E1,-2.863708364E0,2.591508197E0,4.026355861E0,5.579272520E0
1.028087729E1,-2.393645143E0,3.539522533E0,4.042985342E0,5.882472891E0
1.029082429E1,-2.099842437E0,4.202693267E0,4.136474719E0,6.259584016E0
1.030077029E1,-2.097817254E0,4.510735112E0,4.704479679E0,6.846875020E0
1.031071629E1,-2.213720178E0,4.738925627E0,4.951512262E0,7.202461163E0
1.032066242E1,-2.427935847E0,4.436321107E0,5.272865878E0,7.306088695E0
1.033060842E1,-2.868775854E0,3.992028612E0,5.454196807E0,7.342644629E0
1.034055542E1,-3.543153361E0,3.803965784E0,5.725089537E0,7.733093924E0
1.035050142E1,-4.202614329E0,3.756644268E0,6.238036530E0,8.407582477E0
1.036044742E1,-5.005360440E0,3.977055062E0,6.729131894E0,9.281800264E0
1.037039342E1,-5.490557717E0,4.416945189E0,7.186463680E0,1.006483428E1
1.038033942E1,-5.571392550E0,5.111234220E0,7.614872798E0,1.073086287E1
1.039028542E1,-5.406901603E0,5.875170606E0,7.731983172E0,1.111466501E1
1.040023242E1,-5.124258893E0,6.637976140E0,7.580193547E0,1.130398561E1
1.041017842E1,-4.752441173E0,7.219085881E0,7.092258019E0,1.118038559E1
1.042012442E1,-4.344836156E0,7.561594723E0,6.545297188E0,1.090395484E1
1.043007042E1,-4.146850311E0,7.510450298E0,5.811829473E0,1.036246076E1
1.044001642E1,-3.910652035E0,7.416451628E0,4.876835716E0,9.699509302E0
1.044996342E1,-3.147288383E0,7.282559161E0,4.119908972E0,8.939504574E0
1.045990942E1,-2.138396054E0,6.789611399E0,2.804322873E0,7.650868409E0
1.046985542E1,-1.101156861E0,5.705438799E0,2.627230006E-1,5.816665858E0
1.047980142E1,1.856284855E-1,3.817926596E0,-2.326568516E0,4.474812006E0
1.048974742E1,2.497715349E0,4.623329097E-1,-5.647997507E0,6.192916076E0
1.049969342E1,7.002337782E0,-5.890524225E0,-1.505735097E1,1.761972838E1
1.050964042E1,1.335092411E1,-1.597743491E1,-3.580172961E1,4.141605297E1
1.051958642E1,1.759464261E1,-2.131680819E1,-2.646200011E1,3.826506514E1
1.052953242E1,1.297352376E1,-1.808664839E1,-1.034046057E1,2.454311092E1
1.053947842E1,5.603884943E0,-1.247594208E1,-3.721946890E0,1.417411535E1
1.054942442E1,1.257650425E0,-7.902997858E0,-1.131093874E0,8.081982002E0
1.055937142E1,-1.578171398E0,-4.724059081E0,-2.677433031E0,5.654733132E0
1.056931742E1,-3.989790590E0,-4.514272678E-1,-5.428555012E0,6.752142256E0
1.057926342E1,-5.029398928E0,3.787218774E0,-4.829235580E0,7.934695704E0
1.058920942E1,-4.933019273E0,6.304576675E0,-2.606337028E0,8.418750435E0
1.059915542E1,-4.455335668E0,7.221896637E0,1.059320472E0,8.551489157E0
1.060910242E1,-4.705091006E0,5.220584169E0,4.857402495E0,8.543227694E0
1.061904842E1,-5.601016299E0,-8.519685566E-2,7.908190770E0,9.691136329E0
1.062899442E1,-5.940754731E0,-6.299879606E0,9.682144783E0,1.298941790E1
1.063894042E1,-6.108001471E0,-1.152985791E1,9.396194887E0,1.607898578E1
1.064888642E1,-5.508361904E0,-1.538725672E1,9.735010629E0,1.902314780E1
1.065883242E1,-3.492423795E0,-1.557830982E1,8.791864684E0,1.822574128E1
1.066877942E1,-1.670875494E0,-1.077722185E1,4.057623554E0,1.163635015E1
1.067872542E1,-2.776404465E0,-3.659717313E0,-4.862532550E0,6.689258207E0
1.068867142E1,-5.504471167E0,7.657864451E-1,-1.542947771E0,5.767696206E0
1.069861742E1,-6.150935236E0,3.338941401E-1,4.520310805E0,7.640595484E0
1.070856342E1,-5.768092300E0,9.038742900E-1,5.365840116E0,7.929698459E0
1.071851042E1,-5.184417386E0,8.385222995E-1,6.037806816E0,8.002275578E0
1.072845642E1,-3.634706140E0,3.418258882E-1,6.746499293E0,7.670931259E0
1.073840242E1,-1.797856261E0,-3.569725156E-3,7.442523193E0,7.656595285E0
1.074834842E1,1.089880067E-1,-4.007792705E-1,7.854954211E0,7.865927031E0
1.075829442E1,2.219569879E0,-9.199950635E-1,8.281294584E0,8.622802407E0
1.076824142E1,4.258892611E0,-1.095807390E0,8.876631185E0,9.906237494E0
1.077818742E1,5.543277968E0,-8.860870600E-1,8.612395509E0,1.028039091E1
1.078813342E1,5.811658734E0,-5.853518951E-1,6.794283324E0,8.959927454E0
1.079807942E1,5.948884699E0,-1.358857834E-1,3.946340808E0,7.140119038E0
1.080802542E1,5.757039893E0,4.913619965E-1,1.611889075E0,5.998594113E0
1.081797142E1,4.912623600E0,1.442743160E0,-6.313917017E-1,5.158879136E0
1.082791842E1,3.496073627E0,2.564442020E0,-3.344987422E0,5.476114913E0
1.083786442E1,1.757139467E0,2.995899292E0,-5.760743519E0,6.726746432E0
1.084781042E1,4.131351681E-1,2.808021821E0,-6.808893178E0,7.376767146E0
1.085775642E1,1.525618963E-1,2.045803347E0,-5.235391658E0,5.622980729E0
1.086770242E1,4.974090408E-1,1.891331604E0,-2.947410672E0,3.537199550E0
1.087764942E1,-4.033771884E-1,1.350253657E0,-1.829293815E0,2.309158712E0
1.088759542E1,-1.060444891E0,1.049561761E0,-1.075785354E0,1.839412239E0
1.089754142E1,-1.298737786E0,9.903604567E-1,-7.634183228E-1,1.802870269E0
1.090748742E1,-1.514880405E0,1.242474269E0,1.992871428E-1,1.969345149E0
1.091743342E1,-1.863208105E0,1.525321047E0,1.069651113E0,2.634824898E0
1.092738042E1,-2.284269174E0,1.833803773E0,5.748782893E-1,2.985164482E0
1.093732642E1,-2.426081256E0,2.291887511E0,-2.519598846E-1,3.346954199E0
1.094727242E1,-2.403150231E0,2.688056252E0,-1.180416600E0,3.793963731E0
1.095721842E1,-2.095739300E0,2.892466140E0,-2.267425100E0,4.230803726E0
1.096716442E1,-1.347596828E0,2.955659924E0,-2.909065801E0,4.360574117E0
1.097711142E1,-1.215123041E-1,2.571821206E0,-3.027232182E0,3.974061429E0
1.098705742E1,1.656393695E0,1.667880258E0,-2.656095371E0,3.546872883E0
1.099700342E1,3.430727192E0,8.099276608E-1,-2.578836111E0,4.367638672E0
1.100694942E1,4.933871797E0,2.459198570E-1,-3.330738635E0,5.957968390E0
1.101689542E1,5.911124550E0,-1.141709787E-1,-4.195526335E0,7.249611692E0
1.102684142E1,5.925777088E0,-4.605506784E-1,-4.347459217E0,7.363921690E0
1.103678842E1,4.689609625E0,-9.833788812E-1,-3.936338561E0,6.201147775E0
1.104673442E1,2.790212080E0,-1.608701173E0,-3.773628383E0,4.961196840E0
1.105668042E1,1.240154094E0,-2.199224346E0,-3.891171451E0,4.638511093E0
1.106662642E1,6.105096866E-1,-2.739320546E0,-3.266226597E0,4.306371479E0
1.107657242E1,1.216634619E0,-3.339767613E0,-1.549276505E0,3.877435389E0
1.108651942E1,2.850647439E0,-3.898711143E0,5.434966484E-1,4.860198350E0
1.109646542E1,4.441878301E0,-3.961958136E0,1.560286227E0,6.153201461E0
1.110641142E1,5.253543169E0,-3.255989876E0,5.032944095E-1,6.201168533E0
1.111635742E1,5.077206348E0,-2.360144398E0,-2.101515033E0,5.980357123E0
1.112630342E1,4.154699321E0,-2.012316928E0,-5.373906934E0,7.084477511E0
1.113625042E1,3.088200807E0,-2.407137301E0,-7.925044785E0,8.839549143E0
1.114619642E1,2.971801162E0,-3.619473851E0,-8.054273513E0,9.316840394E0
1.115614242E1,3.953983119E0,-4.753189325E0,-6.512939866E0,8.980265973E0
1.116608842E1,5.110661777E0,-5.031148415E0,-6.085260479E0,9.405408725E0
1.117603442E1,6.712329919E0,-4.513458161E0,-6.248533452E0,1.022109817E1
1.118598142E1,8.566709459E0,-4.283459103E0,-4.939267023E0,1.077649718E1
1.119592742E1,9.837004781E0,-3.969753059E0,-3.305308802E0,1.111083564E1
1.120587342E1,1.007428596E1,-3.004649066E0,-2.155746789E0,1.073156083E1
1.121581942E1,9.594471046E0,-2.067277831E0,-1.332407370E0,9.904686855E0
1.122576542E1,8.511238094E0,-1.224626228E0,-6.503343415E-1,8.623445834E0
1.123571242E1,6.149754099E0,-1.017300918E0,-8.347292107E-1,6.288970463E0
1.124565842E1,1.309848227E0,-1.761486579E0,-1.688770021E0,2.769563418E0
1.125560442E1,-3.129178972E0,-3.359552252E0,-1.151189293E0,4.733242985E0
1.126555042E1,-3.970168796E0,-4.856700829E0,3.293581041E0,7.085016534E0
1.127549642E1,-1.991494847E0,-5.842886374E0,7.398985995E0,9.635889511E0
1.128544342E1,-7.098015480E-1,-7.053538926E0,7.767092779E0,1.051589083E1
1.129538942E1,-8.176129487E-1,-8.750521946E0,6.232458286E0,1.077421280E1
1.130533542E1,-1.975280664E0,-1.036006161E1,3.964894023E0,1.126734196E1
1.131528142E1,-3.659617326E0,-1.159456671E1,-1.939645247E0,1.231214846E1
1.132522692E1,-4.387671103E0,-1.072847362E1,-6.092989329E0,1.309489682E1
1.133517292E1,-3.783294708E0,-7.781112648E0,-3.237290773E0,9.237915589E0
1.134511992E1,-3.633607741E0,-5.293632265E0,1.046540797E0,6.505451207E0
1.135506592E1,-3.605663605E0,-3.555845620E0,3.427234358E0,6.114800360E0
1.136501192E1,-3.500265204E0,-2.285954926E0,4.597269519E0,6.213882317E0
1.137495792E1,-3.579368092E0,-1.177094212E0,6.355421723E0,7.388424189E0
1.138490392E1,-3.255939298E0,-3.696562958E-1,6.933528918E0,7.668872782E0
1.139485092E1,-3.447756330E0,5.693053812E-1,6.496517960E0,7.376711865E0
1.140479692E1,-2.935960362E0,1.450776649E0,5.951339360E0,6.792868048E0
1.141474292E1,-2.084677099E0,2.208447744E0,4.258511372E0,5.230491291E0
1.142468892E1,-1.814172916E0,3.052676926E0,3.761103647E0,5.172616400E0
1.143463492E1,-1.380051945E0,3.659927813E0,3.442117276E0,5.210353760E0
1.144458192E1,-1.365084534E0,3.515305704E0,3.602243861E0,5.215073424E0
1.145452792E1,-1.869691059E0,3.350427087E0,4.133002642E0,5.639398653E0
1.146447392E1,-2.115261837E0,3.312872760E0,4.902886524E0,6.283928296E0
1.147441992E1,-2.193647564E0,3.313839889E0,5.837821516E0,7.062137389E0
1.148436592E1,-2.361871081E0,3.431257242E0,6.743693215E0,7.926497299E0
1.149431292E1,-3.022017635E0,3.712681977E0,7.444005463E0,8.850413288E0
1.150425892E1,-4.257016824E0,4.166350483E0,7.660638371E0,9.703919251E0
1.151420492E1,-5.035342623E0,4.768960435E0,7.517180443E0,1.022769088E1
1.152415092E1,-5.405423427E0,5.455316548E0,7.391400402E0,1.065888742E1
1.153409692E1,-5.433706409E0,6.266366290E0,7.282756796E0,1.103771074E1
1.154404392E1,-5.158049367E0,7.085149559E0,7.094470021E0,1.127547438E1
1.155398992E1,-4.869908812E0,7.873127357E0,6.632198507E0,1.138807285E1
1.156393592E1,-4.555989638E0,8.459695473E0,5.817317669E0,1.123230493E1
1.157388192E1,-4.088873414E0,8.761345727E0,5.008078811E0,1.088856823E1
1.158382792E1,-3.449455239E0,8.877143986E0,4.299125547E0,1.044915821E1
1.159377392E1,-2.669119459E0,8.867337036E0,3.730366589E0,9.983461307E0
1.160372092E1,-1.730779341E0,8.383721430E0,2.288196748E0,8.861051095E0
1.161366692E1,-6.799990207E-1,7.144123991E0,-4.713592565E-1,7.191876377E0
1.162361292E1,5.944434384E-1,4.985927219E0,-4.251884723E0,6.579616777E0
1.163355892E1,2.770142097E0,1.356310787E0,-1.093418217E1,1.136088051E1
1.164350492E1,7.340830758E0,-5.434699266E0,-2.424932015E1,2.591241556E1
1.165345192E1,1.369996780E1,-1.473668849E1,-3.043962235E1,3.648876148E1
1.166339792E1,1.670484023E1,-1.963274459E1,-1.853434747E1,3.174930524E1
1.167334392E1,1.247005511E1,-1.911166646E1,-7.568910175E0,2.404259700E1
1.168328992E1,5.745051346E0,-1.431157019E1,-2.326162427E0,1.559607925E1
1.169323592E1,1.130626389E0,-9.542685766E0,-5.482410792E-1,9.625057711E0
1.170318292E1,-2.768003185E0,-5.304846640E0,-7.302923843E-1,6.027981957E0
1.171312892E1,-5.214469736E0,-2.441779715E-1,-2.606310423E0,5.834652648E0
1.172307492E1,-5.346593421E0,3.750422246E0,-6.049421141E0,8.902091011E0
1.173302092E1,-4.642873415E0,6.162303393E0,-4.653297247E0,9.010184899E0
1.174296692E1,-4.689434794E0,6.037800969E0,3.010457105E0,8.216367275E0
1.175291392E1,-6.126560533E0,2.746389830E0,7.079428058E0,9.756828516E0
1.176285992E1,-7.329114107E0,-2.443616325E0,7.813928391E0,1.098838711E1
1.177280592E1,-7.522663377E0,-8.256700611E0,6.923356517E0,1.314140155E1
1.178275192E1,-5.872155197E0,-1.497218393E1,5.310085160E0,1.693651389E1
1.179269792E1,-1.888765554E0,-1.594468582E1,6.855783754E0,1.745858563E1
1.180264492E1,5.775002539E-2,-8.855819190E0,8.859922766E0,1.252705472E1
1.181259092E1,-5.251437002E-1,-2.342544279E0,7.501509905E0,7.876289765E0
1.182253692E1,-2.111762863E0,2.925979457E0,6.138432720E0,7.120481334E0
1.183248292E1,-3.093023883E0,3.866456732E0,5.960128310E0,7.748510430E0
1.184242892E1,-3.668494568E0,1.818968802E0,5.987005622E0,7.253325873E0
1.185237592E1,-3.494529670E0,-5.129966944E-1,6.624179635E0,7.506974028E0
1.186232192E1,-2.628587145E0,-2.576324147E0,7.400646604E0,8.265378797E0
1.187226792E1,-1.324695477E0,-4.202816643E0,8.115537130E0,9.234740319E0
1.188221392E1,-1.325334285E-1,-5.604516442E0,8.528785003E0,1.020628940E1
1.189215992E1,1.109258471E0,-5.593782123E0,8.519503133E0,1.025196500E1
1.190210692E1,1.949215677E0,-4.374900200E0,8.054116223E0,9.370591318E0
1.191205292E1,2.696301996E0,-2.536281829E0,7.215115621E0,8.109294877E0
1.192199892E1,2.772820121E0,-6.908871210E-1,6.071158165E0,6.710053495E0
1.193194492E1,1.974142357E0,4.575949109E-1,4.431345127E0,4.872725190E0
1.194189092E1,1.012309735E0,1.068560534E0,1.963357168E0,2.453846773E0
1.195183792E1,2.158601984E-2,1.631221724E0,-1.452481112E0,2.184273713E0
1.196178392E1,-1.054466990E0,2.194675212E0,-5.774532423E0,6.266875188E0
1.197172992E1,-1.591655224E0,2.505239546E0,-8.365538929E0,8.876476390E0
1.198167592E1,-1.966142343E-1,2.099145157E0,-5.246588491E0,5.654357465E0
1.199162192E1,9.755751872E-1,1.515184899E0,-1.203788433E0,2.167173001E0
1.200156892E1,1.152006003E0,1.080919794E0,8.666134930E-1,1.801811415E0
1.201151492E1,1.111521928E0,1.001732122E0,1.777865800E0,2.323737300E0
1.202146092E1,6.413055097E-1,1.344985315E0,1.979376054E0,2.477536643E0
1.203140692E1,6.041422150E-1,1.849683056E0,1.702405143E0,2.585439710E0
1.204135292E1,7.204057659E-1,2.195016105E0,1.193019104E0,2.600072066E0
1.205129992E1,7.841576658E-1,2.347340750E0,5.825347066E-1,2.542490615E0
1.206124592E1,9.915335543E-1,2.492141199E0,-1.666538687E-1,2.687318376E0
1.207119192E1,1.010290107E0,2.580272187E0,-8.457658303E-1,2.897207362E0
1.208113792E1,9.564689715E-1,2.466628042E0,-1.330951413E0,2.961506113E0
1.209108392E1,8.897211045E-1,2.224064487E0,-1.514534689E0,2.834057482E0
1.210103092E1,6.522933049E-1,1.840135723E0,-1.776388793E0,2.639534652E0
1.211097692E1,3.594931041E-1,1.340436766E0,-2.324056553E0,2.706888412E0
1.212092292E1,-1.763247614E-1,9.080304909E-1,-3.144976394E0,3.278183386E0
1.213086892E1,-9.583973102E-1,7.057413876E-1,-4.041673227E0,4.213278864E0
1.214081492E1,-1.741374204E0,6.202843308E-1,-4.844375483E0,5.185085399E0
1.215076192E1,-2.141574600E0,4.422635114E-1,-5.588117926E0,6.000750014E0
1.216070792E1,-1.626898001E0,2.710523593E-1,-5.811870988E0,6.041366639E0
1.217065392E1,-7.260747146E-2,-6.169806540E-2,-4.416223058E0,4.417250795E0
1.218059992E1,2.128175705E0,-6.827220690E-1,-2.574599218E0,3.409369794E0
1.219054692E1,4.224716805E0,-1.363798147E0,-1.420205652E0,4.661025805E0
1.220049292E1,5.690545356E0,-1.981644189E0,-8.251020625E-1,6.081941594E0
1.221043892E1,6.488393254E0,-2.466774223E0,-1.083804518E0,7.025585692E0
1.222038492E1,6.552315601E0,-2.740439703E0,-2.216539267E0,7.440154287E0
1.223033092E1,6.552070017E0,-3.011177482E0,-2.962465498E0,7.795704790E0
1.224027792E1,7.048264738E0,-3.328647378E0,-2.592663606E0,8.214610992E0
1.225022392E1,7.613491686E0,-3.467749130E0,-2.087411695E0,8.622518615E0
1.226016992E1,7.656343006E0,-3.286710563E0,-2.994725464E0,8.853837312E0
1.227011592E1,6.865685429E0,-2.971220534E0,-6.019889778E0,9.602336216E0
1.228006292E1,5.741993837E0,-2.952825193E0,-9.707628703E0,1.165880461E1
1.229000892E1,5.162445304E0,-3.523887663E0,-1.088360960E1,1.255076029E1
1.229995492E1,5.699210930E0,-3.901462843E0,-8.867915325E0,1.124021084E1
1.230990092E1,7.529411064E0,-4.064695469E0,-7.458579648E0,1.135095549E1
1.231984696E1,9.832383142E0,-4.573421357E0,-5.972962364E0,1.238015430E1
1.232979396E1,1.074198887E1,-4.846576960E0,-2.844235382E0,1.212308987E1
1.233973996E1,9.113544576E0,-4.118886879E0,-1.534750267E0,1.011817089E1
1.234968596E1,6.893491278E0,-3.178554615E0,-2.209041821E0,7.905902681E0
1.235963196E1,4.724920376E0,-3.013995255E0,-1.655309329E0,5.843722181E0
1.236957796E1,3.546294778E0,-3.659274094E0,2.681182265E0,5.758057996E0
1.237952496E1,3.773689779E0,-4.011228529E0,8.978307248E0,1.053283864E1
1.238947096E1,3.329798695E0,-3.098320876E0,1.041148553E1,1.136161004E1
1.239941696E1,2.248846449E0,-1.969536944E0,6.956037190E0,7.571184816E0
1.240936296E1,9.133092110E-1,-2.552660465E0,3.265919033E0,4.244577281E0
1.241930996E1,-3.060248485E-1,-5.171859321E0,1.033553839E-1,5.181936161E0
1.242925596E1,-8.329566273E-1,-8.126059195E0,-1.513111038E0,8.307596511E0
1.243920196E1,-2.028824495E0,-1.042401845E1,-1.273477961E0,1.069570174E1
1.244914796E1,-3.416438643E0,-1.136651010E1,-8.382273075E-1,1.189841291E1
1.245909396E1,-3.950467188E0,-9.972311690E0,4.697799236E-2,1.072638795E1
1.246904096E1,-3.689606818E0,-6.801520423E0,1.224191780E0,7.834061785E0
1.247898696E1,-2.944268086E0,-3.262651609E0,2.312084963E0,4.965817854E0
1.248893296E1,-2.404073360E0,-6.181272930E-1,3.683599681E0,4.441909125E0
1.249887896E1,-2.433550636E0,7.320702302E-1,6.071795511E0,6.582157416E0
1.250882596E1,-2.761825894E0,1.124730642E0,8.001877783E0,8.539481796E0
1.251877196E1,-3.660334194E0,9.615249127E-1,9.737757651E0,1.044732026E1
1.252871796E1,-3.508095503E0,7.739906734E-1,8.987589118E0,9.678974831E0
1.253866396E1,-2.151186838E0,6.828624022E-1,5.129606171E0,5.604173922E0
1.254860996E1,-6.203381252E-1,7.467970276E-1,1.623698404E0,1.891803821E0
1.255855696E1,-5.583476990E-2,8.775840390E-1,1.363465440E0,1.622439297E0
1.256850296E1,1.219290644E-1,1.101256410E0,2.461601484E0,2.699465547E0
1.257844896E1,2.850546867E-1,1.325529875E0,3.980175721E0,4.204769244E0
1.258839496E1,1.524600086E-1,1.521553102E0,5.124165337E0,5.347470271E0
1.259834196E1,-5.436983773E-1,1.912074017E0,6.026426380E0,6.345821451E0
1.260828796E1,-1.881658848E0,2.459058822E0,6.769235607E0,7.443800173E0
1.261823396E1,-3.824233403E0,3.198726339E0,7.482134571E0,8.991048273E0
1.262817996E1,-5.697540380E0,4.022897233E0,8.020347968E0,1.062881226E1
1.263812596E1,-6.846536382E0,4.708521860E0,7.979078904E0,1.152002338E1
1.264807296E1,-7.446744883E0,5.289346840E0,7.585505742E0,1.187312498E1
1.265801896E1,-7.712095622E0,5.862231302E0,7.260526267E0,1.210609005E1
1.266796496E1,-7.827526091E0,6.494178489E0,7.107066092E0,1.240785668E1
1.267791096E1,-7.839414650E0,7.245588385E0,6.614594294E0,1.255817785E1
1.268785796E1,-7.792180842E0,8.056480837E0,6.100212979E0,1.276078227E1
1.269780396E1,-7.727098993E0,8.888976996E0,5.041210304E0,1.281154839E1
1.270774996E1,-7.394273139E0,9.497248807E0,4.216999065E0,1.275366972E1
1.271769596E1,-6.180256099E0,9.780405487E0,3.954363480E0,1.222656483E1
1.272764296E1,-4.345183188E0,9.507059850E0,2.649841482E0,1.078362016E1
1.273758896E1,-2.582353503E0,8.388264132E0,8.907730186E-1,8.821847955E0
1.274753496E1,-1.125324427E0,5.957994077E0,-4.712507907E-1,6.081621970E0
1.275748096E1,1.813599596E0,1.691235791E0,-4.046483731E0,4.745887966E0
1.276742696E1,8.266076036E0,-7.714539174E0,-3.017724142E1,3.222589063E1
1.277737396E1,1.912552436E1,-2.198679385E1,-4.571663801E1,5.421453474E1
1.278731996E1,2.104284742E1,-2.615423075E1,-1.593012158E1,3.715661431E1
1.279726596E1,1.334554116E1,-2.211601732E1,-3.957937590E0,2.613210594E1
1.280721196E1,4.863629780E0,-1.593051685E1,-2.823158509E-1,1.665881040E1
1.281715896E1,-4.563085234E-1,-1.041975466E1,1.112297707E0,1.048888511E1
1.282710496E1,-4.800045403E0,-4.830253288E0,-9.270649320E-1,6.872498242E0
1.283705096E1,-7.510783589E0,1.231038870E0,-4.026363462E0,8.610396596E0
1.284699696E1,-7.871893010E0,5.642411077E0,-4.811128800E0,1.081436372E1
1.285694296E1,-7.190443295E0,9.157860623E0,-1.443617026E0,1.173255795E1
1.286688996E1,-6.067574991E0,9.984506643E0,7.145759457E0,1.369553640E1
1.287683596E1,-6.137100724E0,7.318289157E0,1.008418413E1,1.388928116E1
1.288678196E1,-6.888179668E0,1.950382635E0,9.656687175E0,1.202092421E1
1.289672796E1,-7.177146142E0,-5.661665958E0,8.795329159E0,1.268557067E1
1.290667496E1,-6.105028746E0,-1.503909713E1,8.104649615E0,1.814197244E1
1.291662096E1,-3.361807523E0,-2.046000632E1,6.910724777E0,2.185570236E1
1.292656696E1,-4.178326750E-1,-1.733814982E1,2.152767048E0,1.747628191E1
1.293651296E1,1.123380227E0,-1.084786441E1,-7.440426967E-1,1.093122797E1
1.294645996E1,-2.486423791E0,-3.810631610E0,3.388609113E0,5.673260813E0
1.295640596E1,-5.371344684E0,-8.359957176E-1,8.067070144E0,9.727684888E0
1.296635196E1,-5.604248055E0,5.322878283E-1,6.673962829E0,8.731134315E0
1.297629796E1,-4.787059321E0,1.225241940E0,5.654608369E0,7.509444092E0
1.298624396E1,-4.121259972E0,9.175889343E-1,5.653181648E0,7.055863941E0
1.299619096E1,-3.423671357E0,2.129620260E-1,6.360502954E0,7.226539712E0
1.300613696E1,-2.479091090E0,-5.151414531E-1,7.060490681E0,7.500786093E0
1.301608296E1,-8.424019271E-1,-1.163222278E0,7.325923866E0,7.465379265E0
1.302602896E1,6.753206635E-1,-1.190206593E0,7.622687017E0,7.744546927E0
1.303597596E1,2.187554327E0,-9.237203246E-1,7.534414526E0,7.899750339E0
1.304592196E1,3.197555142E0,-4.778619450E-1,6.516636475E0,7.274562659E0
1.305586796E1,3.729368176E0,1.810660493E-1,5.263268843E0,6.453136511E0
1.306581396E1,3.916733724E0,3.787089550E-1,3.535837033E0,5.290214273E0
1.307575996E1,3.946540782E0,7.371812814E-1,1.865589237E0,4.427080708E0
1.308570696E1,3.197796924E0,1.086863489E0,-1.146084673E0,3.566607280E0
1.309565296E1,2.049338281E0,1.528127126E0,-4.566407622E0,5.233262699E0
1.310559896E1,1.414173956E0,2.171825463E0,-6.976317673E0,7.442158429E0
1.311554496E1,1.606365210E0,2.202675957E0,-6.276801231E0,6.843275842E0
1.312549196E1,1.933375131E0,1.865122629E0,-3.193551553E0,4.173175451E0
1.313543796E1,1.849625754E0,1.810347083E0,-6.129507530E-1,2.659733185E0
1.314538396E1,1.762176551E0,1.912879763E0,8.231078696E-1,2.727981259E0
1.315532996E1,1.558339397E0,2.145432885E0,1.563362448E0,3.078214756E0
1.316527696E1,1.550663172E0,2.287161207E0,1.712850024E0,3.251079492E0
1.317522296E1,1.615537153E0,2.244902794E0,1.793202462E0,3.296228742E0
1.318516896E1,1.329075626E0,2.404000270E0,1.446516953E0,3.104524217E0
1.319511496E1,8.309245737E-1,2.659512484E0,5.810764110E-1,2.846241749E0
1.320506096E1,1.005811724E-1,2.799057455E0,-1.031459439E0,2.984752550E0
1.321500796E1,-5.178249597E-1,2.881085120E0,-2.714727741E0,3.992310217E0
1.322495396E1,-1.166243826E0,2.882359813E0,-3.761439570E0,4.880220322E0
1.323489996E1,-1.810556121E0,2.475670177E0,-4.080873545E0,5.104956923E0
1.324484596E1,-2.186982030E0,1.413143969E0,-4.420989123E0,5.130790495E0
1.325479296E1,-1.480872999E0,9.438809395E-2,-4.313790364E0,4.561872560E0
1.326473896E1,2.743938238E-1,-1.182767181E0,-3.859752315E0,4.046222696E0
1.327468496E1,2.576394021E0,-1.966313959E0,-4.571760163E0,5.604033166E0
1.328463096E1,4.547166482E0,-2.151612223E0,-5.228458030E0,7.255544882E0
1.329457796E1,5.588105062E0,-2.147308087E0,-4.669209859E0,7.592059728E0
1.330452396E1,5.572977730E0,-1.974919891E0,-3.096727509E0,6.674437102E0
1.331446996E1,4.718973758E0,-1.577329692E0,-2.285010308E0,5.475212726E0
1.332441592E1,3.484597882E0,-1.373360683E0,-2.604766173E0,4.562164923E0
1.333436292E1,2.681353296E0,-1.639117804E0,-2.559894640E0,4.053322495E0
1.334430892E1,3.065269197E0,-2.201979554E0,-1.447735512E0,4.042341811E0
1.335425492E1,4.666100018E0,-2.886466897E0,-7.601204932E-2,5.487254173E0
1.336420092E1,6.670794808E0,-3.133422296E0,1.575187272E-1,7.371746794E0
1.337414692E1,8.258293392E0,-2.902963647E0,-1.471335606E0,8.876454030E0
1.338409392E1,9.138478273E0,-2.172787330E0,-3.929946969E0,1.018220374E1
1.339403992E1,8.808450311E0,-1.777669918E0,-6.846595439E0,1.129711363E1
1.340398592E1,8.040275863E0,-1.841417432E0,-8.462486933E0,1.181738293E1
1.341393192E1,7.119172752E0,-2.240389913E0,-7.670756977E0,1.070245207E1
1.342387892E1,6.643388323E0,-3.215999599E0,-6.294919413E0,9.700684113E0
1.343382492E1,7.088439202E0,-4.631409364E0,-5.024590763E0,9.845934966E0
1.344377092E1,7.706008671E0,-5.682901291E0,-3.487451323E0,1.019020380E1
1.345371692E1,6.926038050E0,-5.534931652E0,-1.614993947E0,9.011863121E0
1.346366392E1,5.770541698E0,-4.575361463E0,1.027538516E-1,7.365028334E0
1.347360992E1,4.670631902E0,-3.258539847E0,2.698092413E-1,5.701375389E0
1.348355592E1,1.761847645E0,-2.090408832E0,-1.359410396E0,3.053180773E0
1.349350192E1,-1.433832295E0,-2.212823215E0,-2.185218510E0,3.424564435E0
1.350344892E1,-2.952399516E0,-3.121265350E0,1.486263986E0,4.546200713E0
1.351339492E1,-2.088414493E0,-4.019637410E0,6.949774822E0,8.295681411E0
1.352334092E1,-1.516763355E-1,-4.710983537E0,8.302799474E0,9.547400207E0
1.353328692E1,5.764533100E-1,-5.664813514E0,6.511382167E0,8.649884872E0
1.354323392E1,5.172052279E-1,-7.504415386E0,3.985555744E0,8.512837725E0
1.355317992E1,-7.858951660E-1,-1.043585790E1,-4.376836798E-1,1.047455623E1
1.356312592E1,-2.648195491E0,-1.249246047E1,-5.182615274E0,1.378165480E1
1.357307192E1,-4.058460583E0,-1.122179385E1,-4.493389932E0,1.275109064E1
1.358301892E1,-4.651360649E0,-8.013611391E0,-1.399607080E0,9.370806976E0
1.359296492E1,-4.654182808E0,-5.063609818E0,9.849263468E-1,6.947779638E0
1.360291092E1,-4.371839475E0,-2.809899947E0,2.410470506E0,5.728777022E0
1.361285692E1,-3.986384879E0,-1.071764808E0,3.431485283E0,5.367963810E0
1.362280392E1,-3.617699514E0,1.195743906E-1,4.529590044E0,5.798209532E0
1.363274992E1,-3.840851482E0,4.567558354E-1,5.656380075E0,6.852401153E0
1.364269592E1,-3.969296392E0,7.371789426E-1,6.205852286E0,7.403468730E0
1.365264192E1,-3.257295560E0,9.650455213E-1,5.921967627E0,6.827224018E0
1.366258792E1,-2.350367561E0,1.341446580E0,4.915775249E0,5.611466199E0
1.367253492E1,-1.795198993E0,1.859078947E0,4.016959093E0,4.776491842E0
1.368248092E1,-1.458351132E0,2.282212708E0,3.469344835E0,4.401322126E0
1.369242692E1,-1.487445123E0,2.642357338E0,3.065885201E0,4.312098951E0
1.370237292E1,-1.752801417E0,3.001959931E0,3.370345919E0,4.841828978E0
1.371231992E1,-2.194151594E0,3.227123927E0,4.518865081E0,5.970659233E0
1.372226592E1,-2.889989552E0,3.494206612E0,5.871999076E0,7.419022348E0
1.373221192E1,-3.974642501E0,3.720062333E0,6.737834305E0,8.662277869E0
1.374215792E1,-5.403894964E0,3.911933452E0,7.084580040E0,9.731216700E0
1.375210492E1,-6.155299013E0,4.285026156E0,7.210471762E0,1.040384824E1
1.376205092E1,-6.546159067E0,4.882672992E0,7.164389856E0,1.086375516E1
1.377199692E1,-6.782400613E0,5.660235144E0,6.943915327E0,1.123642203E1
1.378194292E1,-6.896372786E0,6.451481536E0,6.975478597E0,1.174048011E1
1.379188992E1,-6.855179737E0,7.298900959E0,7.120669055E0,1.228704082E1
1.380183592E1,-6.665151075E0,8.063088775E0,6.708927425E0,1.242768469E1
1.381178192E1,-6.337566665E0,8.796309738E0,5.921546627E0,1.235332063E1
1.382172792E1,-5.835260435E0,9.145319515E0,4.976499168E0,1.193535409E1
1.383167492E1,-4.926780878E0,9.103191496E0,4.004489028E0,1.109852232E1
1.384162092E1,-3.496836104E0,8.367409453E0,1.967995618E0,9.279785043E0
1.385156692E1,-1.729296780E0,6.988577530E0,-4.075333893E-1,7.210878359E0
1.386151292E1,1.936390248E-1,4.830316438E0,-2.597039370E0,5.487628491E0
1.387145992E1,2.677884143E0,8.007738447E-1,-6.632860411E0,7.197717657E0
1.388140592E1,7.323063408E0,-8.503227993E0,-2.910575552E1,3.119418453E1
1.389135192E1,1.523720314E1,-1.907905303E1,-3.114102160E1,3.957203369E1
1.390129792E1,1.705627660E1,-2.240257298E1,-1.300262652E1,3.101387019E1
1.391124492E1,1.137423895E1,-1.933616329E1,-5.984529911E0,2.321799131E1
1.392119092E1,5.100568314E0,-1.312709036E1,-2.697488103E0,1.433920292E1
1.393113692E1,1.179256805E0,-6.829414566E0,-1.482474698E0,7.087261894E0
1.394108292E1,-2.187735736E0,-3.917874223E-1,-1.640999731E0,2.762709748E0
1.395102892E1,-3.722601779E0,4.284695789E0,-1.503071807E0,5.871593213E0
1.396097592E1,-3.553628648E0,7.619374570E0,1.019921055E-1,8.407945516E0
1.397092192E1,-2.398664978E0,1.021398296E1,2.468958743E0,1.077844139E1
1.398086792E1,-1.602799871E0,1.060323328E1,4.413671333E0,1.159646575E1
1.399081392E1,-1.220134105E0,6.370067829E0,4.775927392E0,8.054562299E0
1.400076092E1,-7.714798790E-1,-2.502979597E0,5.410855490E0,6.011442855E0
1.401070692E1,-3.110902914E-1,-1.130349231E1,5.844490850E0,1.272885655E1
1.402065292E1,-4.191845512E-1,-1.755823668E1,3.699963406E0,1.794873589E1
1.403059892E1,-4.059803689E-1,-2.079379814E1,4.633045123E0,2.130755660E1
1.404054592E1,-1.786708544E0,-1.792401978E1,5.052897134E0,1.870814213E1
1.405049192E1,-5.210762601E0,-8.439296291E0,-3.432607949E-3,9.918355739E0
1.406043792E1,-7.868672363E0,-7.358153719E-1,1.447080916E0,8.034393082E0
1.407038392E1,-8.383862933E0,5.070284414E-1,5.207854196E0,9.882711209E0
1.408033092E1,-7.677654938E0,1.854563727E0,5.302919397E0,9.513503355E0
1.409027692E1,-6.371489872E0,3.347780052E0,5.686784427E0,9.172951084E0
1.410022292E1,-5.359715742E0,3.686303433E0,6.888223522E0,9.474334231E0
1.411016892E1,-4.498291945E0,2.586580163E0,8.189951720E0,9.695377071E0
1.412011592E1,-3.784860007E0,4.085379410E-1,8.684560676E0,9.482281511E0
1.413006192E1,-2.415778609E0,-1.351755221E0,8.256780717E0,8.708481858E0
1.414000792E1,-8.550398067E-1,-2.360410447E0,8.208923596E0,8.584233056E0
1.414995392E1,4.762568843E-1,-2.813195438E0,7.812095289E0,8.316833652E0
1.415989992E1,1.370175120E0,-2.593030227E0,7.304939378E0,7.871678661E0
1.416984692E1,1.593805391E0,-1.443008623E0,6.998164040E0,7.320982819E0
1.417979292E1,1.134558057E0,-4.190921652E-1,5.265366240E0,5.402494041E0
1.418973892E1,1.728553891E-1,-2.174211127E-1,3.052335448E0,3.064947408E0
1.419968492E1,-4.067687197E-1,2.951539975E-1,9.516716234E-1,1.076222817E0
1.420963192E1,-6.386945817E-1,1.238688197E0,-2.161309830E0,2.571680268E0
1.421957792E1,-3.696723756E-1,1.827455451E0,-6.274520817E0,6.545675104E0
1.422952392E1,4.255805281E-1,1.681731142E0,-7.710633234E0,7.903366579E0
1.423946992E1,7.663952865E-1,1.326714520E0,-4.522169927E0,4.774678419E0
1.424941692E1,5.309589024E-1,1.024985329E0,-1.190207763E0,1.658043063E0
1.425936292E1,4.197223489E-1,5.889175272E-1,4.600402164E-1,8.571042555E-1
1.426930892E1,3.985234147E-1,6.472815102E-1,1.367024640E0,1.564145336E0
1.427925492E1,1.583288589E-1,1.089852585E0,1.704848694E0,2.029619608E0
1.428920192E1,-1.162369461E-1,1.502413995E0,1.345212187E0,2.019988780E0
1.429914792E1,3.961108536E-2,1.946165038E0,8.029167762E-1,2.105659693E0
1.430909392E1,4.111925769E-1,2.384654172E0,3.801870581E-1,2.449529966E0
1.431903979E1,7.438905229E-1,2.687850430E0,-6.392592765E-2,2.789623553E0
1.432898679E1,9.544550443E-1,2.841462632E0,-6.497480120E-1,3.067094195E0
1.433893279E1,1.161353069E0,2.782794594E0,-1.040343772E0,3.189827874E0
1.434887879E1,1.436438692E0,2.682976191E0,-1.167768488E0,3.259662651E0
1.435882479E1,1.318563794E0,2.683904729E0,-1.528936819E0,3.358512002E0
1.436877079E1,8.726868497E-1,2.040511617E0,-2.509887206E0,3.350343830E0
1.437871779E1,7.840212795E-1,4.806358641E-1,-3.703186976E0,3.815664291E0
1.438866379E1,1.063831087E0,-8.720940882E-1,-5.353472670E0,5.527382229E0
1.439860979E1,1.741758220E0,-1.699162862E0,-7.323711280E0,7.717358553E0
1.440855579E1,2.645675048E0,-2.338819603E0,-8.309601540E0,9.028795675E0
1.441850279E1,3.108373117E0,-2.774615509E0,-7.349363015E0,8.448290441E0
1.442844879E1,2.842601085E0,-2.846459663E0,-4.977765675E0,6.400067551E0
1.443839479E1,2.564634686E0,-2.354080836E0,-2.230876786E0,4.134713882E0
1.444834079E1,3.019143144E0,-1.798188967E0,1.101393235E-1,3.515798566E0
1.445828779E1,4.541381831E0,-1.735365313E0,1.446549112E0,5.072291991E0
1.446823379E1,6.950680556E0,-1.951198322E0,1.877734489E0,7.459559095E0
1.447817979E1,9.255125547E0,-1.965439215E0,1.624453280E0,9.599955659E0
1.448812579E1,1.027256154E1,-1.457555911E0,2.447556764E-1,1.037833778E1
1.449807179E1,9.973523233E0,-8.752182555E-1,-2.462360160E0,1.031020806E1
1.450801879E1,8.780041614E0,-8.334276205E-1,-5.730484178E0,1.051770799E1
1.451796479E1,7.196836056E0,-1.280191734E0,-7.910534334E0,1.077078890E1
1.452791079E1,5.624302250E0,-1.793483128E0,-7.883147146E0,9.848521029E0
1.453785679E1,4.529656702E0,-2.492797256E0,-6.383682486E0,8.214817714E0
1.454780379E1,4.648485573E0,-3.575159558E0,-4.989843099E0,7.699916762E0
1.455774979E1,5.797945844E0,-4.453153487E0,-3.744262204E0,8.213784234E0
1.456769579E1,6.277669542E0,-4.916147717E0,-3.263088396E0,8.615415784E0
1.457764179E1,6.218237273E0,-4.862460921E0,-3.059618740E0,8.465888484E0
1.458758879E1,5.988645766E0,-4.299906735E0,-1.951662591E0,7.626405635E0
1.459753479E1,4.658269134E0,-3.363603203E0,-6.147557154E-1,5.778513859E0
1.460748079E1,2.057332010E0,-2.855840936E0,-9.433079123E-1,3.643936370E0
1.461742679E1,-1.770084910E0,-3.123670895E0,-1.673231045E0,3.961088559E0
1.462737379E1,-4.132157135E0,-4.301124710E0,2.530136625E-1,5.969791644E0
1.463731979E1,-3.539738880E0,-5.635499668E0,4.467207270E0,8.015269717E0
1.464726579E1,-1.468782711E0,-6.453227515E0,7.826979961E0,1.025002845E1
1.465721179E1,-6.105934480E-1,-7.549162374E0,7.629261042E0,1.075026981E1
1.466715779E1,-1.385400100E0,-9.267467265E0,5.486476361E0,1.085848543E1
1.467710479E1,-3.623897855E0,-1.124053417E1,1.682193511E0,1.192946014E1
1.468705079E1,-5.553709985E0,-1.254367623E1,-3.313363341E0,1.411261438E1
1.469699679E1,-5.113809333E0,-1.121655942E1,-4.583163403E0,1.315171616E1
1.470694279E1,-3.341466521E0,-7.707997309E0,-2.627939566E0,8.802538690E0
1.471688979E1,-2.417673984E0,-4.877619243E0,-1.860116243E-2,5.443956555E0
1.472683579E1,-2.020591615E0,-2.803356328E0,2.127696526E0,4.058163339E0
1.473678179E1,-1.720374806E0,-1.045188628E0,3.988347205E0,4.467552145E0
1.474672779E1,-1.885513625E0,3.918903333E-1,5.824641892E0,6.134752874E0
1.475667479E1,-2.834287222E0,1.284743207E0,7.340851808E0,7.973195998E0
1.476662079E1,-2.999232790E0,2.249904503E0,8.066313515E0,8.895104345E0
1.477656679E1,-2.179437660E0,3.005199289E0,6.936012815E0,7.866984496E0
1.478651279E1,-1.312686173E0,3.338083615E0,4.205371876E0,5.527304933E0
1.479645979E1,-1.107761437E0,3.657717565E0,2.614903491E0,4.630740055E0
1.480640579E1,-1.244733049E0,3.586298504E0,1.641532704E0,4.135882849E0
1.481635179E1,-1.670768782E0,3.133890073E0,1.471310316E0,3.844150018E0
1.482629779E1,-2.591244780E0,2.943174364E0,2.918782119E0,4.888365156E0
1.483624379E1,-3.315767131E0,2.845819978E0,4.726699684E0,6.436978555E0
1.484619079E1,-3.664695632E0,2.959288121E0,5.865790502E0,7.522956764E0
1.485613679E1,-4.537564769E0,3.058503676E0,6.545896527E0,8.531863812E0
1.486608279E1,-5.444437219E0,3.297541360E0,6.806578850E0,9.319076740E0
1.487602879E1,-5.922697359E0,3.843096521E0,6.793950618E0,9.798239632E0
1.488597579E1,-6.212819828E0,4.507261282E0,6.776241741E0,1.023874927E1
1.489592179E1,-6.405987275E0,5.117060385E0,6.682773414E0,1.057735508E1
1.490586779E1,-6.391140025E0,5.720236933E0,6.614755678E0,1.083156379E1
1.491581379E1,-6.109328789E0,6.222998076E0,6.490528657E0,1.087090454E1
1.492576079E1,-5.602835952E0,6.566289276E0,6.378193704E0,1.073262692E1
1.493570679E1,-5.084672073E0,6.718916808E0,5.975229914E0,1.032962273E1
1.494565279E1,-4.412671166E0,6.738167596E0,5.163708302E0,9.567572984E0
1.495559879E1,-3.753459874E0,6.839778171E0,4.146338387E0,8.835335221E0
1.496554579E1,-2.863748125E0,6.961505506E0,3.447091794E0,8.279254440E0
1.497549179E1,-1.476989132E0,6.810712831E0,2.917458894E0,7.555056093E0
1.498543779E1,5.872007847E-2,5.919983667E0,1.690935829E0,6.157021897E0
1.499538379E1,1.744336696E0,4.268406615E0,-4.504461050E-1,4.633023552E0
1.500532979E1,3.824693579E0,1.714563843E0,-3.194126335E0,5.269767850E0
1.501527679E1,6.389340252E0,-2.081792960E0,-7.893327148E0,1.036639495E1
1.502522279E1,9.317330566E0,-8.378637861E0,-1.984003774E1,2.346574778E1
1.503516879E1,1.305699394E1,-1.485385734E1,-2.603233033E1,3.269257394E1
1.504511479E1,1.460596814E1,-1.707266284E1,-1.682221958E1,2.806772512E1
1.505506179E1,9.426850669E0,-1.445895510E1,-9.547006858E0,1.972491410E1
1.506500779E1,3.180587692E0,-9.809155662E0,-5.535658461E0,1.170381081E1
1.507495379E1,-7.911390951E-1,-6.721991858E0,-2.284851556E0,7.143642086E0
1.508489979E1,-4.573095667E0,-4.084623950E0,-1.652404140E0,6.350417013E0
1.509484679E1,-7.100355243E0,-8.188797480E-1,-2.641066858E0,7.619766582E0
1.510479279E1,-8.289974191E0,2.000098586E0,-2.925352635E0,9.015639439E0
1.511473879E1,-8.859657887E0,3.357536716E0,-3.400178998E0,1.006617146E1
1.512468479E1,-8.228146902E0,1.382606885E0,-4.084737970E0,9.289730218E0
1.513463179E1,-6.702677336E0,-4.030175847E0,-2.675568354E0,8.266006704E0
1.514457779E1,-5.014588516E0,-9.587008830E0,2.001427366E0,1.100284271E1
1.515452379E1,-3.077482861E0,-1.245344901E1,7.332820072E0,1.477597859E1
1.516446979E1,-1.212427767E0,-1.274840479E1,8.805171193E0,1.554100529E1
1.517441579E1,5.598527724E-1,-8.445867977E0,9.328004658E0,1.259594347E1
1.518436279E1,1.506035176E-1,-1.590529781E0,9.411597038E0,9.546236180E0
1.519430879E1,-1.389222133E0,3.109133547E0,8.614225688E0,9.262911732E0
1.520425479E1,-3.400312315E0,6.561188750E0,6.490680685E0,9.835662530E0
1.521420079E1,-4.532433837E0,7.425428858E0,4.436494477E0,9.765369090E0
1.522414779E1,-4.658835145E0,4.806972599E0,4.718658593E0,8.190083601E0
1.523409379E1,-3.602452314E0,1.167631663E0,6.147520462E0,7.220320922E0
1.524403979E1,-2.411941666E0,-1.993723952E0,7.806610601E0,8.410443916E0
1.525398579E1,-1.326750188E0,-5.086748419E0,8.785047415E0,1.023778949E1
1.526393279E1,8.118946642E-2,-7.586092803E0,8.739618058E0,1.157308600E1
1.527387879E1,1.727999575E0,-8.233807592E0,8.572298813E0,1.201107310E1
1.528382479E1,3.617213902E0,-6.880516307E0,8.064878608E0,1.120125029E1
1.529377079E1,4.577556801E0,-4.503659981E0,7.068490841E0,9.549897500E0
1.530371679E1,4.022180656E0,-1.922557490E0,5.670408130E0,7.213022452E0
1.531366379E1,2.837260239E0,2.119510424E-1,4.323429792E0,5.175617265E0
1.532360942E1,1.796940294E0,1.523082733E0,2.831452199E0,3.683191142E0
1.533355542E1,7.734429355E-1,2.074088668E0,5.901464657E-1,2.290923532E0
1.534350142E1,-4.885336983E-1,2.375580463E0,-2.677390931E0,3.612543412E0
1.535344842E1,-2.064590597E0,2.639929574E0,-6.683257563E0,7.476476051E0
1.536339442E1,-2.475567266E0,2.672881558E0,-7.581263587E0,8.411200074E0
1.537334042E1,-1.757327455E0,1.915351966E0,-4.537910632E0,5.229665940E0
1.538328642E1,-1.662810722E0,1.148148156E0,-1.579800725E0,2.564947176E0
1.539323342E1,-1.483748221E0,5.889724910E-1,3.348887881E-1,1.631118598E0
1.540317942E1,-4.941126730E-1,5.908307362E-1,1.646596978E0,1.817831098E0
1.541312542E1,-5.214757419E-1,9.580154139E-1,2.000698510E0,2.278711261E0
1.542307142E1,-1.344572502E0,1.048672984E0,1.888220301E0,2.544202457E0
1.543301842E1,-9.820357758E-1,1.457402129E0,1.200183113E0,2.128110602E0
1.544296442E1,-1.669377145E-1,1.972153573E0,5.050959732E-1,2.042640413E0
1.545291042E1,5.076730970E-1,2.072995239E0,-1.691967863E-1,2.140950440E0
1.546285642E1,1.016230439E0,2.131911784E0,-9.743993852E-1,2.554843698E0
1.547280342E1,1.636471647E0,2.192257973E0,-1.781078260E0,3.264394927E0
1.548274942E1,2.278450171E0,2.094795998E0,-2.328975669E0,3.873452352E0
1.549269542E1,2.670056768E0,1.943475319E0,-2.274016666E0,4.009669719E0
1.550264142E1,2.839747644E0,1.836641427E0,-1.845358456E0,3.852631081E0
1.551258842E1,2.735665451E0,1.739582909E0,-1.355129650E0,3.513743094E0
1.552253442E1,2.350167002E0,1.636342131E0,-1.246778405E0,3.123356671E0
1.553248042E1,1.914469036E0,1.472371586E0,-1.463486157E0,2.823979729E0
1.554242642E1,1.676172487E0,1.111658022E0,-1.961416477E0,2.809357998E0
1.555237242E1,1.750447913E0,3.352699900E-1,-2.876470497E0,3.383867075E0
1.556231942E1,1.999584470E0,-6.037332022E-1,-4.146033747E0,4.642459226E0
1.557226542E1,2.178938308E0,-1.227424706E0,-5.411519734E0,5.961450275E0
1.558221142E1,1.930794609E0,-1.366524704E0,-6.191172851E0,6.627667678E0
1.559215742E1,1.393348513E0,-1.174998570E0,-5.900716506E0,6.175799301E0
1.560210442E1,9.963347031E-1,-1.070509411E0,-4.663406498E0,4.887333977E0
1.561205042E1,1.175764702E0,-1.038021111E0,-2.959441026E0,3.349358393E0
1.562199642E1,2.022032661E0,-1.113018669E0,-1.009651591E0,2.519290173E0
1.563194242E1,3.062038903E0,-1.656120338E0,6.562672189E-1,3.542527837E0
1.564188942E1,3.714461870E0,-2.359873087E0,1.430239474E0,4.627290019E0
1.565183542E1,4.449291693E0,-2.977634345E0,1.170890755E0,5.480281747E0
1.566178142E1,5.090791769E0,-3.110471390E0,2.388613907E-1,5.970615368E0
1.567172742E1,5.413193792E0,-2.666938448E0,-1.201787004E0,6.153008997E0
1.568167442E1,5.428911692E0,-2.063381832E0,-3.269698089E0,6.664949537E0
1.569162042E1,5.212116231E0,-1.790910353E0,-5.303530431E0,7.648591409E0
1.570156642E1,4.607980741E0,-1.950981975E0,-6.373931084E0,8.103506318E0
1.571151242E1,3.788028029E0,-2.330451068E0,-6.389429129E0,7.784918954E0
1.572145942E1,3.340020505E0,-2.899926603E0,-5.966086038E0,7.426943779E0
1.573140542E1,4.303276486E0,-3.775136088E0,-5.732256469E0,8.101148389E0
1.574135142E1,6.485294815E0,-4.452831305E0,-5.241380376E0,9.452979621E0
1.575129742E1,7.953635330E0,-4.542234063E0,-4.462954005E0,1.018872729E1
1.576124442E1,8.284364957E0,-3.835716165E0,-4.129663882E0,1.001985754E1
1.577119042E1,7.935488496E0,-2.917847149E0,-3.739970348E0,9.245171057E0
1.578113642E1,6.527664324E0,-1.986231329E0,-2.303532241E0,7.201512147E0
1.579108242E1,3.987876504E0,-1.238556050E0,-7.026938188E-1,4.234496275E0
1.580102942E1,1.094953331E0,-1.298834996E0,-1.351139692E-1,1.704156955E0
1.581097542E1,-1.430926521E0,-2.073353088E0,7.430325902E-1,2.626488372E0
1.582092142E1,-2.274163139E0,-3.264564233E0,3.363599110E0,5.209894105E0
1.583086742E1,-8.502833891E-1,-4.202306181E0,6.786563830E0,8.027440919E0
1.584081442E1,-8.279028788E-2,-5.350673023E0,7.982988353E0,9.610653415E0
1.585076042E1,-1.085909369E0,-7.403338078E0,6.728614415E0,1.006294518E1
1.586070642E1,-2.606430291E0,-9.515496213E0,4.194520321E0,1.072064120E1
1.587065242E1,-4.831868581E0,-1.149945356E1,-9.262594780E-1,1.250769135E1
1.588059942E1,-5.669363233E0,-1.148034603E1,-4.821022874E0,1.368145774E1
1.589054542E1,-4.360755493E0,-8.075621113E0,-3.768159775E0,9.921233437E0
1.590049142E1,-3.390828131E0,-5.066923435E0,-9.782789397E-1,6.174824547E0
1.591043742E1,-2.658584531E0,-3.332754462E0,1.263645575E0,4.446585674E0
1.592038442E1,-2.387209405E0,-2.048855009E0,3.213604287E0,4.497091072E0
1.593033042E1,-2.319968179E0,-5.842017478E-1,5.029999437E0,5.569958561E0
1.594027642E1,-2.583091130E0,2.609933943E-1,5.526168430E0,6.105654334E0
1.595022242E1,-3.385701877E0,1.224174238E0,6.533044932E0,7.459373690E0
1.596016942E1,-3.121021229E0,2.070606651E0,7.182794552E0,8.100661886E0
1.597011542E1,-1.993991169E0,2.710251698E0,5.216056085E0,6.207149598E0
1.598006142E1,-1.240162280E0,3.373839338E0,3.121101043E0,4.760469103E0
1.599000742E1,-7.238405666E-1,3.662375457E0,2.114523334E0,4.290471779E0
1.599995442E1,-9.881370530E-1,3.403154354E0,1.772757087E0,3.962390955E0
1.600990042E1,-1.552889500E0,3.156727543E0,2.339313108E0,4.224781698E0
1.601984642E1,-1.944635699E0,2.810541971E0,3.437595916E0,4.847454988E0
1.602979242E1,-2.336946740E0,2.606679967E0,4.296514181E0,5.542213874E0
1.603973942E1,-2.948180458E0,2.500616153E0,5.306005558E0,6.564948144E0
1.604968542E1,-4.060688372E0,2.597134972E0,5.972378812E0,7.674868650E0
1.605963142E1,-5.588422565E0,2.964733633E0,6.090696051E0,8.781610938E0
1.606957742E1,-6.537172481E0,3.620536290E0,6.012983047E0,9.591604256E0
1.607952442E1,-7.027136993E0,4.358730310E0,5.870570017E0,1.014114276E1
1.608947042E1,-7.143601835E0,5.098271527E0,5.880951748E0,1.056451670E1
1.609941642E1,-7.001706283E0,5.763714489E0,5.885465798E0,1.081124430E1
1.610936242E1,-6.622638894E0,6.196189762E0,5.706158007E0,1.071505262E1
1.611930942E1,-6.038792657E0,6.378655635E0,5.367169188E0,1.029372477E1
1.612925542E1,-5.293288448E0,6.161927417E0,4.810083025E0,9.440611781E0
1.613920142E1,-4.480250654E0,5.904888495E0,3.934190586E0,8.391555852E0
1.614914742E1,-3.605038830E0,5.837551959E0,3.024460017E0,7.498044828E0
1.615909442E1,-2.534732025E0,5.880730723E0,2.392343261E0,6.836019789E0
1.616904042E1,-1.022595280E0,5.929573100E0,2.222348914E0,6.414387964E0
1.617898642E1,7.077981457E-1,5.638826734E0,1.767570315E0,5.951609023E0
1.618893242E1,2.492626517E0,4.566062052E0,-1.199591374E-1,5.203508414E0
1.619887942E1,4.478149457E0,2.600640378E0,-3.469750924E0,6.233484131E0
1.620882542E1,6.389699271E0,-1.024492993E0,-6.907959044E0,9.465608317E0
1.621877142E1,8.529665594E0,-6.599159399E0,-1.159642612E1,1.583607271E1
1.622871742E1,1.164650636E1,-1.292930946E1,-2.120906973E1,2.743415375E1
1.623866442E1,1.380556150E1,-1.647944410E1,-1.939071430E1,2.895108646E1
1.624861042E1,1.094451420E1,-1.430967335E1,-1.383541037E1,2.271492290E1
1.625855642E1,6.016720587E0,-8.979589543E0,-1.077445612E1,1.526181050E1
1.626850242E1,2.623611165E0,-4.669992802E0,-8.032921236E0,9.655050072E0
1.627844942E1,-1.848538756E-1,-8.865384650E-1,-4.971991550E0,5.053792771E0
1.628839542E1,-2.668188875E0,1.766597046E0,-1.875512839E0,3.709130006E0
1.629834142E1,-4.582478987E0,3.249236342E0,6.629330447E-1,5.656512238E0
1.630828742E1,-5.503343824E0,4.131184158E0,1.890298401E0,7.136294825E0
1.631823442E1,-5.773865256E0,3.846917676E0,1.633405952E0,7.127714262E0
1.632818042E1,-5.738129997E0,1.040597395E0,2.439896911E0,6.321556433E0
1.633812642E1,-6.180920928E0,-4.413233961E0,3.097296736E0,8.202052461E0
1.634807242E1,-6.986937386E0,-1.078776906E1,3.071492096E0,1.321466303E1
1.635801942E1,-8.778307330E0,-1.760718255E1,-1.340965939E0,1.971978059E1
1.636796542E1,-7.026714824E0,-1.987302072E1,3.066264393E0,2.130055518E1
1.637791142E1,-4.283280178E0,-1.306510519E1,9.250131440E0,1.657131239E1
1.638785742E1,-4.200033661E0,-4.892073560E0,8.256287212E0,1.047563578E1
1.639780442E1,-5.858956861E0,5.987279856E-1,6.335765723E0,8.650305081E0
1.640775042E1,-6.472386501E0,4.341128436E0,5.079320701E0,9.302509442E0
1.641769642E1,-5.719106666E0,5.069540648E0,5.253382956E0,9.273966569E0
1.642764242E1,-5.260580878E0,3.277793559E0,4.783754767E0,7.829556275E0
1.643758942E1,-4.962904977E0,1.691167379E0,5.046083958E0,7.276911173E0
1.644753542E1,-4.705823662E0,2.103225929E-1,6.103533028E0,7.709872072E0
1.645748142E1,-3.872761200E0,-1.385987746E0,7.496923349E0,8.551204654E0
1.646742742E1,-2.123563714E0,-2.831193168E0,8.488767829E0,9.196975419E0
1.647737442E1,-3.094735363E-1,-3.230717041E0,8.754154236E0,9.336408456E0
1.648732042E1,1.285669698E0,-2.840797219E0,8.731337231E0,9.271425201E0
1.649726642E1,2.415758143E0,-1.734967702E0,8.693250808E0,9.187960053E0
1.650721242E1,2.964566987E0,-3.727026951E-1,8.271892846E0,8.794985843E0
1.651715942E1,2.842710428E0,-2.579154199E-1,5.231743580E0,5.959753672E0
1.652710542E1,2.756234202E0,-4.349468905E-1,2.064706811E0,3.471169830E0
1.653705142E1,3.038150103E0,-2.631831765E-2,2.610384178E-1,3.049457289E0
1.654699742E1,2.991841325E0,9.040309954E-1,-1.695244642E0,3.555592911E0
1.655694442E1,3.147202722E0,1.867954436E0,-4.179127818E0,5.555110086E0
1.656689042E1,3.004704614E0,2.232979737E0,-5.651034551E0,6.778542603E0
