"Time (s)","Linear Acceleration x (m/s^2)","Linear Acceleration y (m/s^2)","Linear Acceleration z (m/s^2)","Absolute acceleration (m/s^2)"
1.073483337E-2,2.067561129E0,-1.272480133E0,-1.609095275E-1,2.433085816E0
2.068083338E-2,2.200890510E0,-1.200351220E0,-1.029826823E0,2.710222385E0
3.062683338E-2,1.965135160E0,-1.229276226E0,-1.813023938E0,2.942776247E0
4.057283333E-2,1.598762368E0,-1.381742959E0,-2.471001175E0,3.251323042E0
5.051883333E-2,1.323709344E0,-1.576345898E0,-2.918837668E0,3.571650339E0
6.046483334E-2,1.144595899E0,-1.717245961E0,-3.309809988E0,3.900496843E0
7.041083334E-2,1.062062816E0,-1.744891012E0,-3.923026789E0,4.422981037E0
8.035683335E-2,1.094937616E0,-1.752075486E0,-4.650197638E0,5.088515988E0
9.030283336E-2,8.814360385E-1,-1.719442760E0,-5.354152116E0,5.692131216E0
1.002488334E-1,5.640705152E-1,-1.847028421E0,-5.987576895E0,6.291324710E0
1.101948334E-1,3.476097712E-1,-1.943502801E0,-6.430104700E0,6.726387006E0
1.201408334E-1,3.127151596E-1,-1.949092739E0,-6.789151808E0,7.070313681E0
1.300868334E-1,4.439130110E-1,-1.858158011E0,-7.139063226E0,7.390266145E0
1.400328334E-1,1.349809634E-1,-1.535790487E0,-7.285042473E0,7.446389468E0
1.499788333E-1,-1.576052660E-1,-1.411688012E0,-6.922676486E0,7.066905418E0
1.599248333E-1,1.499615810E0,-2.741465889E0,-8.125356944E0,8.705510225E0
1.698708333E-1,1.795756964E0,-2.043963813E0,-8.269879650E0,8.705942830E0
1.798168333E-1,1.388113208E0,-1.341474062E0,-6.702529401E0,6.974977513E0
1.897628334E-1,1.496521756E0,-1.973221275E0,-6.367533646E0,6.832178591E0
1.997088334E-1,1.736326887E0,-1.899931104E0,-6.025227116E0,6.551941015E0
2.096548334E-1,1.947066094E0,-1.679459499E0,-5.303256197E0,5.893740483E0
2.196008334E-1,1.720498182E0,-1.664766616E0,-4.657789078E0,5.237037423E0
2.295468334E-1,1.371647449E0,-1.848243472E0,-4.299750030E0,4.877014556E0
2.394928334E-1,1.179584395E0,-1.997987449E0,-3.796469654E0,4.449331975E0
2.494388333E-1,1.000848461E0,-2.474881972E0,-3.039637050E0,4.045507609E0
2.593848333E-1,4.691592416E-1,-3.290158958E0,-2.382031696E0,4.088927899E0
2.693308333E-1,2.991928156E-1,-4.058647402E0,-2.301085181E0,4.675160755E0
2.792768333E-1,2.131924063E-1,-4.618901585E0,-2.621317887E0,5.315167948E0
2.892228334E-1,-1.279424287E0,-5.932611898E0,-3.073225211E0,6.802758531E0
2.991688334E-1,-4.599815689E0,-8.835811772E0,-3.845437746E0,1.067788675E1
3.091148334E-1,-5.806890914E0,-9.127301905E0,-4.997104756E0,1.191631982E1
3.190608334E-1,-3.268805511E0,-5.137735555E0,-7.682783530E0,9.803396293E0
3.290068334E-1,-3.938295039E0,-6.671909872E0,-1.133629519E1,1.373084622E1
3.389528334E-1,-7.561880652E0,-8.782059488E0,-1.432156425E1,1.842318676E1
3.488988333E-1,-8.672490268E0,-8.821862655E0,-1.614447817E1,2.033916231E1
3.588448333E-1,-7.516748918E0,-1.048764552E1,-1.807623333E1,2.220906198E1
3.687908333E-1,-7.326968763E0,-1.258627436E1,-1.765349367E1,2.288546727E1
3.787368333E-1,-7.117068340E0,-1.370836791E1,-1.429896944E1,2.104833816E1
3.886828333E-1,-4.811572019E0,-1.441909931E1,-9.965568681E0,1.817619898E1
3.986288334E-1,-1.470453699E0,-1.531420863E1,-6.727182432E0,1.679113467E1
4.085748334E-1,3.096228742E0,-1.543619324E1,-3.501508030E0,1.612833695E1
4.185218334E-1,7.827157132E0,-1.372544997E1,-1.455131071E0,1.586725471E1
4.284678334E-1,9.229926386E0,-1.270684161E1,-6.058592498E-1,1.571694723E1
4.384138334E-1,7.245660306E0,-1.362762020E1,5.972363609E-1,1.544565690E1
4.483598333E-1,5.604763194E0,-1.366459449E1,8.708053619E-1,1.479502669E1
4.583058333E-1,3.642925864E0,-1.486543483E1,-8.549740255E-2,1.530553401E1
4.682518333E-1,3.144520311E0,-1.664215457E1,-5.148420757E-1,1.694444980E1
4.781978333E-1,5.746788554E0,-1.735706205E1,-2.613740297E-1,1.828555436E1
4.881438334E-1,1.131334487E1,-1.752162726E1,3.854285753E-1,2.086019533E1
4.980898334E-1,1.717726251E1,-1.637869073E1,1.192961801E0,2.376432232E1
5.080358334E-1,2.000830657E1,-1.576128440E1,2.318064326E0,2.557584485E1
5.179818334E-1,2.276845666E1,-1.517525072E1,4.278241632E0,2.769466021E1
5.279278334E-1,2.408297856E1,-1.374662157E1,5.376392001E0,2.824650513E1
5.378738334E-1,2.249806737E1,-1.288817663E1,5.276122777E0,2.645950876E1
5.478198333E-1,1.942079940E1,-1.254979475E1,4.887411575E0,2.363369606E1
5.577658333E-1,1.708435961E1,-1.206559735E1,4.320112374E0,2.135690412E1
5.677118333E-1,1.614197790E1,-1.142406307E1,3.666900033E0,2.011265331E1
5.776578333E-1,1.572897736E1,-1.044107361E1,3.552265370E0,1.921029246E1
5.876038334E-1,1.592497135E1,-9.159651040E0,3.772280600E0,1.875457333E1
5.975498334E-1,1.638782525E1,-7.829332296E0,4.136441975E0,1.862711499E1
6.074958334E-1,1.677393678E1,-6.162162475E0,4.583986399E0,1.844858078E1
6.174418334E-1,1.680583919E1,-4.367174858E0,4.928622751E0,1.804992436E1
6.273878334E-1,1.663779606E1,-2.632568514E0,5.139231273E0,1.761131377E1
6.373338334E-1,1.628837931E1,-6.352877015E-1,5.413149937E0,1.717606135E1
6.472798333E-1,1.602220002E1,1.204870825E0,5.702127521E0,1.704924824E1
6.572258333E-1,1.573890009E1,2.495132634E0,5.577302331E0,1.688327468E1
6.671718333E-1,1.484828143E1,4.169650066E0,6.092271291E0,1.658231626E1
6.771178333E-1,1.433072216E1,5.288159856E0,6.400524806E0,1.656203339E1
6.870638333E-1,1.364255165E1,6.202363252E0,6.385568798E0,1.628999737E1
6.970108334E-1,1.276194109E1,6.828059181E0,5.972346067E0,1.565753653E1
7.069565834E-1,1.181911616E1,7.128282130E0,5.270450978E0,1.477435503E1
7.169025834E-1,1.085742694E1,7.298830208E0,4.481544642E0,1.382898711E1
7.268485834E-1,9.690533198E0,7.428043149E0,3.759719611E0,1.277567025E1
7.367945834E-1,8.610227947E0,7.326280546E0,3.188664451E0,1.174640340E1
7.467405833E-1,7.878154793E0,7.008175642E0,2.640619838E0,1.086980781E1
7.566865833E-1,7.177826757E0,6.860527015E0,2.287976016E0,1.018935043E1
7.666325833E-1,6.684321756E0,6.846623506E0,1.926382885E0,9.760500079E0
7.765785833E-1,6.038876272E0,6.864371560E0,2.054396123E0,9.370601206E0
7.865245834E-1,6.518278373E0,5.830423034E0,1.533824214E0,8.878873939E0
7.964705834E-1,6.601298311E0,5.248902234E0,5.656165190E-1,8.452694014E0
8.064165834E-1,6.218339015E0,5.678790114E0,2.342640173E-1,8.424445198E0
8.163625834E-1,6.296812742E0,5.657585771E0,2.294061506E-1,8.468220276E0
8.263085834E-1,6.240486513E0,5.639433675E0,6.373545460E-1,8.435229986E0
8.362545834E-1,6.572541119E0,5.451536908E0,8.678881860E-1,8.583168490E0
8.462005833E-1,6.893316447E0,5.018886804E0,8.968609934E-1,8.573878704E0
8.561465833E-1,7.634853319E0,4.802102453E0,8.333383043E-1,9.057904057E0
8.660925833E-1,8.216327925E0,4.624420187E0,8.577350807E-1,9.467260222E0
8.760385833E-1,8.726273543E0,4.331103385E0,1.485300218E0,9.854563573E0
8.859845834E-1,1.096529287E1,2.576794263E0,1.177973049E0,1.132541994E1
8.959305834E-1,1.224634531E1,1.256188914E0,9.694731791E-1,1.234871906E1
9.058765834E-1,1.313620617E1,2.695127875E-1,1.250443439E0,1.319833923E1
9.158225834E-1,1.370559984E1,-8.511938006E-1,1.745056196E0,1.384244267E1
9.257685834E-1,1.377879879E1,-2.298700102E0,2.718570532E0,1.423130156E1
9.357145834E-1,1.468519791E1,-4.923370197E0,2.621387469E0,1.570879639E1
9.456605834E-1,1.341867931E1,-6.006599641E0,3.020917189E0,1.500886852E1
9.556065833E-1,1.147650207E1,-6.630290560E0,4.263806026E0,1.392303467E1
9.655535833E-1,1.055768113E1,-8.175934190E0,5.017613865E0,1.426488624E1
9.754995834E-1,9.635233741E0,-9.005673387E0,5.489394121E0,1.428542370E1
9.854455834E-1,9.138077738E0,-9.810698158E0,5.650267396E0,1.454921939E1
9.953915834E-1,9.243233480E0,-1.074501890E1,5.472748268E0,1.519354369E1
1.005337583E0,1.000441407E1,-1.195073582E1,5.003851858E0,1.636908430E1
1.015283583E0,1.074956452E1,-1.297410848E1,4.489185784E0,1.743655406E1
1.025229583E0,1.061636612E1,-1.396215578E1,3.631555953E0,1.791192961E1
1.035175583E0,9.613159917E0,-1.498711187E1,2.880308025E0,1.803669982E1
1.045121583E0,7.892621974E0,-1.555067704E1,1.962764114E0,1.754905927E1
1.055067583E0,6.006071053E0,-1.534134789E1,6.788709466E-1,1.648910884E1
1.065013583E0,4.992857339E0,-1.442881388E1,-4.857638723E-1,1.527597005E1
1.074959583E0,5.741478113E0,-1.345581497E1,-1.515240155E0,1.470780338E1
1.084905583E0,6.884591816E0,-1.311846688E1,-2.597688704E0,1.504126871E1
1.094851583E0,7.332020173E0,-1.317823478E1,-3.957958056E0,1.559133810E1
1.104797583E0,7.411527688E0,-1.400248052E1,-4.884712208E0,1.657892086E1
1.114743583E0,5.565434822E0,-1.449459739E1,-5.492491391E0,1.646921006E1
1.124689583E0,6.135012099E0,-1.713821714E1,-5.763460135E0,1.909382971E1
1.134635583E0,1.767972311E0,-1.755885765E1,-5.276245569E0,1.841949987E1
1.144581583E0,-4.691422262E0,-1.613089275E1,-5.043393070E0,1.753998168E1
1.154527583E0,-5.982532502E0,-1.604119295E1,-5.133678172E0,1.787358996E1
1.164473583E0,-5.997541135E0,-1.460506182E1,-5.674693555E0,1.677737993E1
1.174419583E0,-5.113759047E0,-1.209742141E1,-6.056786878E0,1.446315331E1
1.184365583E0,-3.588104124E0,-1.008686098E1,-6.362333132E0,1.245385637E1
1.194311583E0,-2.294812288E0,-8.984471968E0,-6.160882519E0,1.113298583E1
1.204258583E0,-2.315589200E0,-9.009086992E0,-6.222998661E0,1.119157335E1
1.214204583E0,-3.673528436E0,-9.248567895E0,-6.538466470E0,1.190723994E1
1.224150583E0,-6.021576115E0,-9.072986534E0,-6.909161232E0,1.289631624E1
1.234096583E0,-8.578379332E0,-9.364924563E0,-7.552578317E0,1.477605642E1
1.244042583E0,-9.574903339E0,-9.236574671E0,-8.555873399E0,1.581758690E1
1.253988583E0,-9.953786541E0,-8.429535534E0,-9.256075720E0,1.599405745E1
1.263934583E0,-1.111038568E1,-8.243346155E0,-9.266156904E0,1.665097864E1
1.273880583E0,-1.097924433E1,-6.107975158E0,-8.861286922E0,1.537444543E1
1.283826583E0,-1.116738083E1,-4.224732592E0,-8.191790085E0,1.447978539E1
1.293772583E0,-1.124836944E1,-4.690238201E0,-7.276823627E0,1.419423515E1
1.303718583E0,-1.079893023E1,-5.776539187E0,-2.181451441E-1,1.224879122E1
1.313664583E0,-9.710072839E0,-5.825784438E0,1.408132905E0,1.141087714E1
1.323610583E0,-7.778418835E0,-5.751426566E0,1.168675391E0,9.744152569E0
1.333556583E0,-6.350144611E0,-6.375534391E0,-1.240077496E-2,8.998440372E0
1.343502583E0,-6.525292109E0,-7.246248536E0,-2.976135703E0,1.019533907E1
1.353448583E0,-6.589192235E0,-5.874520395E0,-5.539703565E0,1.042188849E1
1.363394583E0,-7.009795906E0,-5.573668871E0,-6.427017955E0,1.102313853E1
1.373340583E0,-7.127005683E0,-5.100426811E0,-5.979230579E0,1.060941855E1
1.383286583E0,-7.773304276E0,-4.063814878E0,-5.549539166E0,1.037960672E1
1.393232583E0,-9.106876411E0,-2.340997106E0,-4.765418192E0,1.054156895E1
1.403178583E0,-9.683587291E0,-1.267816687E0,-3.942124965E0,1.053183608E1
1.413124583E0,-9.475785432E0,-1.249847023E0,-4.981479242E0,1.077811498E1
1.423070583E0,-7.347748598E0,-1.699730042E0,-5.596932018E0,9.391705899E0
1.433016583E0,-3.586692021E0,-1.681239976E0,-4.989511562E0,6.370726265E0
1.442962583E0,-4.077842349E-1,-2.421102791E0,-4.036526508E0,4.724571193E0
1.452909583E0,6.422523201E-1,-3.375650806E0,-3.291069077E0,4.758008205E0
1.462855583E0,1.040662884E0,-3.135826086E0,-2.621982130E0,4.217958603E0
1.472801583E0,-4.245768535E-1,-2.727460054E0,-1.736086859E0,3.260874335E0
1.482747583E0,-6.826752913E-1,-2.720946840E0,-1.916855724E0,3.397636403E0
1.492693583E0,-7.677277207E-2,-2.573341482E0,-2.913304448E0,3.887843007E0
1.502639583E0,3.938549978E-1,-1.236373869E0,-3.862584706E0,4.074715047E0
1.512585583E0,5.933076167E-1,-1.912074602E-1,-4.770271381E0,4.810827711E0
1.522531583E0,9.027831995E-1,-3.345507824E-1,-5.322045055E0,5.408429097E0
1.532477583E0,8.005843949E-1,-3.026682544E-1,-4.928291214E0,5.002059350E0
1.542423583E0,1.629461128E-1,-3.905893278E-1,-4.085504540E0,4.107366408E0
1.552369583E0,-9.542001057E-1,-1.898648810E0,-4.043865933E0,4.568174343E0
1.562315583E0,-2.565327289E0,-2.306692661E0,-4.043529718E0,5.315248603E0
1.572261583E0,-2.383841994E0,-1.733762006E0,-4.517003328E0,5.393695617E0
1.582207583E0,-8.298193038E-1,-3.040138449E0,-4.577115043E0,5.557069730E0
1.592153583E0,9.631007373E-2,-4.089718044E0,-4.140566601E0,5.820598000E0
1.602099583E0,3.864921838E-1,-4.699407805E0,-3.652297196E0,5.964317625E0
1.612045583E0,2.251577391E0,-5.000196179E0,-3.724423771E0,6.628943732E0
1.621991583E0,3.603313317E0,-4.610149765E0,-2.856094705E0,6.511115471E0
1.631937583E0,4.101347571E0,-4.312679978E0,-1.825911201E0,6.225288122E0
1.641883583E0,4.138777353E0,-4.348754960E0,-9.046380825E-1,6.071203977E0
1.651829583E0,4.490654020E0,-5.081429207E0,-1.078044279E0,6.866518461E0
1.661775583E0,5.263416193E0,-5.842895730E0,-1.067597644E0,7.936166912E0
1.671721583E0,4.684929514E0,-6.443244563E0,-1.440403104E-1,7.967729455E0
1.681667583E0,2.917206295E0,-7.272593166E0,4.984226556E-1,7.851695936E0
1.691614583E0,1.698964056E0,-8.642185904E0,5.842551036E-1,8.826959277E0
1.701560583E0,2.431448269E0,-1.032716868E1,1.558530016E-1,1.061068536E1
1.711507500E0,8.045954095E0,-1.405252801E1,-1.039024786E0,1.622622856E1
1.721453500E0,1.398784728E1,-1.613349359E1,-2.730252099E-1,2.135471914E1
1.731399500E0,1.255378022E1,-1.300524491E1,2.907439983E0,1.830811296E1
1.741345500E0,8.673501252E0,-1.057691145E1,4.657330656E0,1.444961621E1
1.751291500E0,7.557989330E0,-1.067399394E1,3.803419070E0,1.362069550E1
1.761237500E0,8.095145550E0,-1.035818582E1,2.563987107E0,1.339393239E1
1.771183500E0,1.033867133E1,-9.495298176E0,1.888951495E0,1.416393130E1
1.781129500E0,1.294365618E1,-7.622608080E0,1.748756606E0,1.512284824E1
1.791075500E0,1.289503776E1,-3.519639076E0,3.263299481E0,1.375932344E1
1.801021500E0,9.939460863E0,-1.883829334E0,3.195693096E0,1.060915405E1
1.810967500E0,6.482972301E0,-1.329025340E0,1.775965455E0,6.851955305E0
1.820913500E0,4.709458584E0,1.145685893E-1,9.104389590E-1,4.798023052E0
1.830859500E0,5.129389824E0,1.893217916E0,1.883911487E-1,5.470868786E0
1.840805500E0,5.345326914E0,3.475019850E0,-6.257947469E-1,6.406239290E0
1.850751500E0,4.112338582E0,5.350892293E0,-1.206016003E0,6.855497907E0
1.860697500E0,2.803202546E0,6.216587189E0,-1.817995825E0,7.057549831E0
1.870643500E0,2.835180969E0,6.552958794E0,-2.829817902E0,7.680324827E0
1.880589500E0,2.915546270E0,7.123194467E0,-3.291679819E0,8.371108977E0
1.890535500E0,1.759628334E0,8.184605026E0,-3.277029620E0,8.990159867E0
1.900481500E0,-1.418879503E-1,8.829435968E0,-3.603065687E0,9.537355716E0
1.910428500E0,2.018248343E-1,8.163778998E0,-4.146796224E0,9.158817594E0
1.920374500E0,3.711402606E0,6.798133716E0,-4.489567022E0,8.952393165E0
1.930320500E0,8.925299900E0,5.392022778E0,-4.436519912E0,1.133214882E1
1.940266500E0,1.073955292E1,6.245075408E0,-2.517045367E0,1.267574381E1
1.950212500E0,8.248945448E0,8.146874698E0,-3.587351587E-1,1.159936892E1
1.960158500E0,5.614411685E0,8.822782422E0,4.491910002E-1,1.046732443E1
1.970104500E0,4.185118876E0,9.057444050E0,-1.958092189E-1,9.979521730E0
1.980050500E0,4.764056375E0,8.706188357E0,-1.157608074E0,9.991696818E0
1.989996500E0,7.483189994E0,8.115431880E0,-1.998337112E0,1.121836522E1
1.999942500E0,9.925562031E0,7.885462643E0,-1.748272164E0,1.279663074E1
2.009888500E0,9.874748558E0,8.670713300E0,-3.937924325E-1,1.314712899E1
2.019834500E0,7.275436667E0,1.029660996E1,9.591021189E-1,1.264405126E1
2.029780500E0,4.623233787E0,1.085037169E1,2.685883427E-1,1.179733005E1
2.039726500E0,2.796302247E0,1.165106134E1,-5.062873068E-1,1.199261704E1
2.049672500E0,3.066935946E0,1.172668689E1,-1.554064498E0,1.222032724E1
2.059618500E0,4.455266086E0,1.188285783E1,-1.928785944E0,1.283635156E1
2.069564500E0,6.043866870E0,1.190592276E1,-1.578245366E0,1.344508021E1
2.079510500E0,7.975896265E0,1.142167039E1,-1.616915342E0,1.402440341E1
2.089456500E0,9.854462228E0,1.069043397E1,-1.900318482E0,1.466311749E1
2.099402500E0,1.061341211E1,1.016595159E1,-1.827252553E0,1.480979204E1
2.109348500E0,1.017086676E1,9.859030073E0,-1.604390021E0,1.425556284E1
2.119294500E0,1.003152761E1,8.960221810E0,-1.811122131E0,1.357193002E1
2.129240500E0,1.262311416E1,7.086158203E0,-2.359024949E0,1.466702587E1
2.139186500E0,1.523533553E1,5.292209052E0,-2.155096871E0,1.627167379E1
2.149133500E0,1.537417065E1,4.499401454E0,-2.061499028E0,1.615114593E1
2.159079500E0,1.352991908E1,3.609157024E0,-1.416237731E0,1.407446105E1
2.169025500E0,1.100901250E1,2.853277516E0,-1.227080305E0,1.143876195E1
2.178971500E0,9.905893167E0,2.159438721E0,-1.610007295E0,1.026557444E1
2.188917500E0,9.592141516E0,1.997267657E0,-1.732699421E0,9.949899710E0
2.198863500E0,1.088047082E1,1.260265885E0,-1.907848965E0,1.111812948E1
2.208809500E0,1.362555964E1,-1.570708305E-2,-1.913226357E0,1.375923535E1
2.218755500E0,1.632143362E1,-1.372036874E0,-1.497999640E0,1.644736099E1
2.228701500E0,1.888529501E1,-3.363121100E0,-8.500609025E-1,1.920123837E1
2.238647500E0,1.793514469E1,-5.087207426E0,2.279054627E-1,1.864406166E1
2.248593500E0,1.447344217E1,-6.921129897E0,5.302152827E-2,1.604323466E1
2.258539500E0,1.069626598E1,-8.684649553E0,-1.864190729E0,1.390354095E1
2.268485500E0,8.561554554E0,-9.339796153E0,-2.642676011E0,1.294278738E1
2.278431500E0,9.909746482E0,-9.719278695E0,-2.522907493E0,1.410788843E1
2.288377500E0,1.082112977E1,-9.482019734E0,-1.511763693E0,1.446689245E1
2.298323500E0,1.014706859E1,-9.333570038E0,-9.962380048E-1,1.382284417E1
2.308269500E0,9.899226172E0,-1.001797143E1,-1.365970241E0,1.414992244E1
2.318215500E0,1.020313404E1,-1.030189234E1,-1.026270474E0,1.453568578E1
2.328161500E0,1.002333566E1,-1.036774017E1,-4.126870521E-1,1.442662832E1
2.338107500E0,8.839841673E0,-1.027821229E1,6.267291319E-1,1.357119147E1
2.348053500E0,7.670931224E0,-1.054573410E1,1.071531504E0,1.308448980E1
2.357999500E0,8.460380182E0,-1.142822044E1,1.066106458E0,1.425899149E1
2.367946500E0,9.470763844E0,-1.208177660E1,1.250325326E0,1.540220786E1
2.377892500E0,9.827911191E0,-1.242050814E1,1.606699671E0,1.591974700E1
2.387838500E0,9.127846865E0,-1.281616583E1,2.200601950E0,1.588755312E1
2.397784500E0,7.021845848E0,-1.222560875E1,2.575711359E0,1.433199628E1
2.407730500E0,5.203235480E0,-1.166753645E1,2.285791204E0,1.297805485E1
2.417676500E0,4.272089776E0,-1.202963113E1,1.529928069E0,1.285703916E1
2.427622500E0,3.690804035E0,-1.223166529E1,9.601537406E-1,1.281239890E1
2.437568500E0,2.886717158E0,-1.217576357E1,7.496586549E-1,1.253572266E1
2.447514500E0,1.751804760E0,-1.197228631E1,3.632173419E-1,1.210522145E1
2.457460500E0,4.556501269E-1,-1.142777722E1,-7.256160736E-2,1.143708767E1
2.467406500E0,-2.799459743E-1,-1.095872995E1,-5.054777598E-1,1.097395278E1
2.477352500E0,-4.324615315E-1,-1.064613079E1,-9.698671353E-1,1.069896098E1
2.487298500E0,-4.763831842E-1,-1.033278435E1,-1.344374281E0,1.043075815E1
2.497244500E0,-7.685165101E-1,-9.933441739E0,-1.635059252E0,1.009640041E1
2.507190500E0,-1.013330366E0,-9.702030578E0,-1.747045126E0,9.910015260E0
2.517136500E0,-1.142484250E0,-9.928540603E0,-1.846873469E0,1.016327361E1
2.527082500E0,-1.603381376E0,-1.006876034E1,-1.944251829E0,1.037934882E1
2.537028500E0,-2.166945669E0,-9.999481362E0,-2.104414083E0,1.044575702E1
2.546974500E0,-2.739220851E0,-9.919487944E0,-2.371241244E0,1.056041462E1
2.556920500E0,-3.538644866E0,-9.787929100E0,-2.716743861E0,1.075668447E1
2.566866500E0,-4.476085097E0,-9.481087103E0,-3.052951745E0,1.092002128E1
2.576813500E0,-5.393759401E0,-9.156074883E0,-3.158435515E0,1.108612027E1
2.586759500E0,-6.015059978E0,-9.065103317E0,-3.259725662E0,1.135706195E1
2.596705500E0,-6.178803066E0,-9.117840525E0,-3.442175163E0,1.153954908E1
2.606651500E0,-6.245977634E0,-9.311746475E0,-3.621338528E0,1.178282444E1
2.616597500E0,-6.795218879E0,-9.202339808E0,-3.748806660E0,1.203792378E1
2.626543500E0,-7.267353476E0,-8.267903291E0,-2.935718579E0,1.139258948E1
2.636489500E0,-7.432201688E0,-8.202792206E0,-3.287089462E0,1.154679085E1
2.646435500E0,-8.076628003E0,-8.485018010E0,-3.976322991E0,1.237087689E1
2.656381500E0,-8.318500417E0,-8.483356231E0,-4.408064438E0,1.267264038E1
2.666327500E0,-8.665668907E0,-8.134780902E0,-4.382747748E0,1.266794994E1
2.676273500E0,-9.030195440E0,-8.143795554E0,-4.174886248E0,1.285673018E1
2.686219500E0,-8.143257025E0,-8.296007933E0,-4.106300163E0,1.232875029E1
2.696165500E0,-5.624503394E0,-8.504687458E0,-3.512228900E0,1.078427091E1
2.706111208E0,-2.884553688E0,-8.510704243E0,-1.907823091E0,9.186540461E0
2.716057208E0,-2.855002445E-1,-8.330370850E0,-1.984393696E-1,8.337623587E0
2.726003208E0,2.932908992E0,-8.001626937E0,1.021179961E0,8.583169421E0
2.735949208E0,4.864853017E0,-7.794143752E0,1.363932048E0,9.288475782E0
2.745895208E0,6.157005231E0,-7.460441401E0,-7.080810048E-2,9.673257626E0
2.755841208E0,7.122802704E0,-6.657269028E0,-3.136620138E0,1.024167638E1
2.765787208E0,6.034768603E0,-5.830987875E0,-6.658696334E0,1.071247350E1
2.775733208E0,4.038361364E0,-4.743209297E0,-7.117409817E0,9.458536855E0
2.785679208E0,1.141413918E0,-3.852442126E0,-2.825372849E0,4.911910809E0
2.795626208E0,-4.995884442E-1,-5.216091169E0,4.787153462E-1,5.261783355E0
2.805572208E0,-6.183664441E-1,-7.440438076E0,1.953748585E0,7.717488540E0
2.815518208E0,5.368615204E-1,-8.968390371E0,2.976070215E0,9.464525347E0
2.825464208E0,2.053350348E0,-9.575010928E0,4.013714765E0,1.058333540E1
2.835410208E0,3.273877679E0,-9.952307196E0,4.001401406E0,1.121507498E1
2.845356208E0,3.472394743E0,-9.685682348E0,2.325551540E0,1.054884628E1
2.855302208E0,2.453891053E0,-8.541510884E0,1.814880721E-1,8.888865360E0
2.865248208E0,1.464302428E0,-8.513782802E0,-2.034208172E0,8.875059554E0
2.875194208E0,1.211164768E0,-9.053721712E0,-4.261796338E0,1.007966790E1
2.885140208E0,1.475594571E0,-9.426237296E0,-5.902522711E0,1.121922917E1
2.895086208E0,1.968410770E0,-1.038331949E1,-6.063544505E0,1.218419208E1
2.905032208E0,2.559847278E0,-1.130679833E1,-4.608519854E0,1.247537421E1
2.914978208E0,2.425056678E0,-1.195976041E1,-2.814714544E0,1.252355329E1
2.924924208E0,2.319861175E0,-1.284071011E1,-1.268290311E0,1.311007827E1
2.934870208E0,2.808635779E0,-1.332968585E1,-1.955624664E-1,1.362377351E1
2.944816208E0,3.509574264E0,-1.284444531E1,1.622555200E-1,1.331627627E1
2.954762208E0,4.202973933E0,-1.177076437E1,7.049087441E-1,1.251849751E1
2.964708208E0,5.773336667E0,-1.050060879E1,1.350636649E0,1.205895604E1
2.974654208E0,6.045996426E0,-9.893660792E0,1.630997776E0,1.170891756E1
2.984600208E0,5.344002519E0,-9.466175534E0,2.602442490E0,1.117763611E1
2.994546208E0,6.055534989E0,-8.683670729E0,3.771870418E0,1.123844508E1
3.004492208E0,6.649896274E0,-8.166792068E0,4.550544126E0,1.147279674E1
3.014439208E0,7.391950625E0,-7.137802566E0,5.916950716E0,1.185746454E1
3.024385208E0,7.578551649E0,-6.929744600E0,7.058729500E0,1.246119848E1
3.034331208E0,6.797066014E0,-6.605988947E0,7.188233632E0,1.189579334E1
3.044277208E0,5.991737189E0,-6.066628911E0,6.413517319E0,1.066949414E1
3.054223208E0,6.225552725E0,-5.422141786E0,5.109918011E0,9.709191025E0
3.064169208E0,7.526797943E0,-4.388697875E0,3.363569874E0,9.339537387E0
3.074115208E0,9.305927326E0,-3.534755883E0,1.725745620E0,1.010311737E1
3.084061208E0,9.730416471E0,-2.551968155E0,1.319558844E0,1.014567798E1
3.094007208E0,9.017429799E0,-3.906450518E0,1.354418482E0,9.920123248E0
3.103953208E0,1.138966039E1,-9.560548425E-2,3.137192581E0,1.181420677E1
3.113899208E0,1.249227803E1,9.545825136E-1,4.260798218E0,1.323339109E1
3.123845208E0,1.186081149E1,1.527421367E-1,2.933985465E0,1.221926553E1
3.133791208E0,1.061205438E1,9.375969368E-1,2.418569923E0,1.092448016E1
3.143737208E0,7.516505674E0,-6.462026989E-1,-3.348827581E-1,7.551660873E0
3.153683208E0,1.026188569E1,3.925546355E0,5.878919256E-1,1.100281005E1
3.163629208E0,1.119089131E1,6.496793364E0,3.162749591E0,1.332093680E1
3.173575208E0,1.309763676E1,3.158115088E0,1.358808718E0,1.354134930E1
3.183521208E0,1.323561702E1,3.717921082E0,2.473637685E0,1.396865700E1
3.193467208E0,1.232967047E1,4.163544404E0,3.815494447E0,1.356148494E1
3.203413208E0,1.198780483E1,3.422851869E0,3.590257069E0,1.297356255E1
3.213359208E0,1.211230023E1,3.175157382E0,3.677559507E0,1.305043621E1
3.223305208E0,1.281994547E1,2.998886635E0,4.668337455E0,1.396916954E1
3.233252208E0,1.329792963E1,3.195474118E0,6.234897745E0,1.503063329E1
3.243198208E0,1.366557682E1,3.704975932E0,7.323456341E0,1.594076062E1
3.253144208E0,1.356477550E1,4.635107728E0,8.048591774E0,1.643980497E1
3.263090208E0,1.343046262E1,4.921050022E0,8.108346809E0,1.644199949E1
3.273036208E0,1.322000963E1,4.980318570E0,7.720346628E0,1.609894344E1
3.282982208E0,1.254421651E1,5.005752788E0,7.175734624E0,1.529398889E1
3.292928208E0,1.181211471E1,5.115274646E0,6.561083500E0,1.444783393E1
3.302874208E0,1.148269895E1,4.998097613E0,5.455524709E0,1.366001848E1
3.312820208E0,1.083205003E1,4.803616297E0,4.830491270E0,1.279615892E1
3.322766208E0,1.040508517E1,4.088653851E0,4.732956204E0,1.214017142E1
3.332712208E0,9.436645925E0,3.564801800E0,5.125755780E0,1.131509923E1
3.342658208E0,8.756838108E0,2.675015792E0,5.414831597E0,1.063759016E1
3.352604208E0,8.295586933E0,2.060858758E0,5.512618092E0,1.017117789E1
3.362550208E0,7.394956679E0,1.480257141E0,5.577074289E0,9.379781613E0
3.372496208E0,6.852671281E0,1.012355343E0,5.653110312E0,8.941007954E0
3.382442208E0,6.626273523E0,4.858445638E-1,5.487118385E0,8.616960828E0
3.392388208E0,6.377083318E0,-7.680329454E-1,5.046986768E0,8.168790712E0
3.402334208E0,5.333713759E0,-2.306503211E0,4.731178651E0,7.493497911E0
3.412280208E0,3.940894711E0,-3.828688397E0,4.330926799E0,6.996172733E0
3.422226208E0,2.898058417E0,-5.447836205E0,3.606905261E0,7.147546955E0
3.432172208E0,2.346650779E0,-6.977883557E0,2.623586022E0,7.815422729E0
3.442118208E0,2.291262444E0,-7.782307234E0,1.758032044E0,8.300895502E0
3.452065208E0,2.337520936E0,-8.350823241E0,1.074688416E0,8.738146721E0
3.462011208E0,2.285017617E0,-8.812083771E0,3.724704145E-1,9.111139342E0
3.471957208E0,2.121527129E0,-9.300302889E0,-9.723685741E-2,9.539704723E0
3.481903208E0,1.842971038E0,-9.686138431E0,-4.190474340E-1,9.868810501E0
3.491849208E0,1.300586237E0,-9.289115996E0,-8.894550562E-1,9.421800828E0
3.501795208E0,4.632398129E-1,-8.911865337E0,-1.931013733E0,9.130429834E0
3.511741208E0,-8.503670043E-1,-9.024363427E0,-3.253750393E0,9.630636060E0
3.521687208E0,-2.710217199E0,-8.980261388E0,-4.479512150E0,1.039501808E1
3.531633208E0,-4.531307371E0,-8.634683926E0,-5.450757474E0,1.117144888E1
3.541579208E0,-5.515789037E0,-8.490538366E0,-6.420632796E0,1.198906568E1
3.551525208E0,-6.770587483E0,-8.605168351E0,-6.852108779E0,1.291670128E1
3.561471208E0,-8.076554913E0,-8.233161474E0,-7.280845342E0,1.363914939E1
3.571417208E0,-9.667826121E0,-8.675156599E0,-7.667411200E0,1.508358042E1
3.581363208E0,-1.091010451E1,-8.634883316E0,-7.881584769E0,1.599096522E1
3.591309208E0,-1.126499308E1,-8.350154319E0,-8.038002466E0,1.616275440E1
3.601255208E0,-1.110737904E1,-8.157878573E0,-7.906181082E0,1.588812611E1
3.611201208E0,-1.100488670E1,-7.752091747E0,-7.734198098E0,1.552482779E1
3.621147208E0,-1.045509641E1,-7.415676872E0,-7.257320824E0,1.472990190E1
3.631093208E0,-9.924594902E0,-6.935086032E0,-6.743417226E0,1.385881229E1
3.641039208E0,-9.527272505E0,-6.493948109E0,-6.310970605E0,1.314414826E1
3.650985208E0,-8.962667701E0,-6.419035336E0,-5.668819442E0,1.239632772E1
3.660931208E0,-8.766634533E0,-6.155914725E0,-5.324536554E0,1.196243523E1
3.670877208E0,-8.441048702E0,-6.160883689E0,-5.060623645E0,1.161110256E1
3.680824208E0,-8.376949185E0,-5.909752209E0,-4.470602748E0,1.118412883E1
3.690770208E0,-8.403678562E0,-5.495507970E0,-3.655069946E0,1.068559580E1
3.700716208E0,-8.316523474E0,-5.122017070E0,-3.082711149E0,1.024220336E1
3.710662000E0,-8.075200113E0,-4.872446504E0,-2.622333548E0,9.789087038E0
3.720608000E0,-7.928891083E0,-4.639412156E0,-2.075342896E0,9.417988485E0
3.730554000E0,-7.238071205E0,-3.957974136E0,-1.584633595E0,8.400374852E0
3.740500000E0,-6.203525094E0,-3.243956014E0,-1.143897303E0,7.093340204E0
3.750446000E0,-4.980205134E0,-2.850119143E0,-4.762177811E-1,5.757812577E0
3.760392000E0,-4.242253189E0,-2.261061575E0,-2.977986932E-3,4.807194653E0
3.770338000E0,-3.434609451E0,-1.996478575E0,4.801031828E-1,4.001620652E0
3.780284000E0,-2.267791135E0,-1.933708715E0,1.496261555E0,3.334802043E0
3.790230000E0,-8.115333062E-1,-1.322546040E0,2.493749768E0,2.937090778E0
3.800176000E0,4.274624544E-1,-7.335565925E-2,2.453957126E0,2.491989322E0
3.810122000E0,4.049907861E0,-5.133215073E-1,3.066348885E0,5.105658443E0
3.820068000E0,6.557116165E0,2.714028999E-1,3.661767347E0,7.515182768E0
3.830014000E0,8.736040147E0,1.349557838E0,4.108836100E0,9.747935058E0
3.839960000E0,1.108520055E1,1.859570113E0,4.322191644E0,1.204246706E1
3.849906000E0,1.354640822E1,2.837315787E0,4.241010071E0,1.447555536E1
3.859852000E0,1.555325801E1,3.953303087E0,4.142537112E0,1.657386659E1
3.869798000E0,1.694821772E1,4.909397691E0,4.034588156E0,1.810033622E1
3.879744000E0,1.792528512E1,5.515284423E0,3.684655688E0,1.911310797E1
3.889690000E0,1.840694600E1,5.525308889E0,3.198645648E0,1.948271114E1
3.899636000E0,1.821657586E1,5.102335927E0,2.701078001E0,1.910950785E1
3.909583000E0,1.725914224E1,4.672535756E0,2.449841856E0,1.804750139E1
3.919529000E0,1.587879238E1,4.298962410E0,2.748332275E0,1.667844284E1
3.929475000E0,1.454572545E1,4.081189880E0,3.621265438E0,1.553537264E1
3.939421000E0,1.355674376E1,3.778908126E0,4.522876271E0,1.478248483E1
3.949367000E0,1.287783993E1,3.255385274E0,4.941656195E0,1.417237667E1
3.959313000E0,1.217430645E1,2.611646007E0,4.918184887E0,1.338741853E1
3.969259000E0,1.122380763E1,1.676889648E0,4.457580414E0,1.219245011E1
3.979205000E0,9.999318810E0,3.355088487E-1,3.589629663E0,1.062941127E1
3.989151000E0,8.316865536E0,-9.542515612E-1,2.552011424E0,8.751777573E0
3.999097000E0,4.091917766E0,-2.857851501E0,5.497406707E-1,5.021286788E0
4.009043000E0,5.482577437E-1,-5.130628265E0,-5.384712589E-1,5.187859312E0
4.018989000E0,5.200170370E0,-3.814496620E0,1.367319925E0,6.592550350E0
4.028935000E0,9.771544617E0,-1.926109673E0,2.073112768E0,1.017304179E1
4.038881000E0,8.791321478E0,-3.616823308E0,6.047892094E-1,9.525466611E0
4.048827000E0,9.955670514E0,-4.838298765E0,9.903113401E-1,1.111329055E1
4.058773000E0,8.326804048E0,-5.408689681E0,2.530963787E0,1.024672472E1
4.068719000E0,6.755250236E0,-5.645029460E0,3.687171745E0,9.544370007E0
4.078665000E0,5.300223246E0,-6.308186746E0,4.125427575E0,9.214376764E0
4.088611000E0,3.737061943E0,-6.684028226E0,4.531209723E0,8.897961949E0
4.098557000E0,2.769138422E0,-6.642227651E0,4.793890623E0,8.646889792E0
4.108503000E0,2.119798107E0,-6.410090266E0,4.744632509E0,8.251929404E0
4.118449000E0,1.745219041E0,-6.271387879E0,4.214208189E0,7.754717666E0
4.128396000E0,2.117855662E0,-6.394304538E0,3.474954069E0,7.579429326E0
4.138342000E0,2.349545150E0,-6.660478565E0,2.726630334E0,7.570789266E0
4.148288000E0,2.040864789E0,-7.091788487E0,2.057248541E0,7.660996319E0
4.158234000E0,1.203342948E0,-7.651237217E0,1.478885384E0,7.885211930E0
4.168180000E0,-1.088587832E-1,-8.019563856E0,8.309852386E-1,8.063237014E0
4.178126000E0,-1.283037574E0,-8.156277021E0,-6.819929212E-2,8.256857235E0
4.188072000E0,-2.176650000E0,-8.361671580E0,-1.223580746E0,8.726540361E0
4.198018000E0,-2.854230028E0,-8.614505185E0,-2.324644198E0,9.368046716E0
4.207964000E0,-3.423827770E0,-8.594181433E0,-2.984662113E0,9.720635732E0
4.217910000E0,-4.058323174E0,-8.337007440E0,-3.186408302E0,9.804533538E0
4.227856000E0,-4.417109495E0,-8.292870317E0,-2.977339353E0,9.856323047E0
4.237802000E0,-4.396980456E0,-8.246387876E0,-2.736193163E0,9.737715500E0
4.247748000E0,-4.591941243E0,-7.919533199E0,-2.434040340E0,9.472564745E0
4.257694000E0,-4.820876693E0,-7.888547049E0,-1.953789515E0,9.449196797E0
4.267640000E0,-4.510467310E0,-8.271505761E0,-1.730826704E0,9.579033562E0
4.277586000E0,-4.588410110E0,-7.583044649E0,-1.732074500E0,9.030844676E0
4.287532000E0,-4.699951596E0,-6.888807074E0,-1.907331925E0,8.554713495E0
4.297478000E0,-5.016843787E0,-6.192227688E0,-2.012662206E0,8.219684573E0
4.307424000E0,-4.980288164E0,-5.543454553E0,-2.067414656E0,7.733521962E0
4.317370000E0,-4.421458070E0,-5.002880051E0,-2.216632676E0,7.035023858E0
4.327316000E0,-3.869426533E0,-4.666667490E0,-2.483855694E0,6.551319429E0
4.337263000E0,-3.630502869E0,-4.732796575E0,-2.808297810E0,6.592909153E0
4.347209000E0,-3.897303718E0,-5.153777976E0,-3.251300117E0,7.233350272E0
4.357155000E0,-4.531245975E0,-5.670221019E0,-3.447908943E0,8.035650103E0
4.367101000E0,-5.189299226E0,-6.277324557E0,-3.608471146E0,8.908125171E0
4.377047000E0,-5.590865532E0,-6.899888132E0,-3.786486118E0,9.654206894E0
4.386993000E0,-5.539412373E0,-7.284327943E0,-3.718145615E0,9.877809972E0
4.396939000E0,-4.985112702E0,-7.308514951E0,-3.346691886E0,9.458651384E0
4.406885000E0,-3.987611625E0,-6.806877058E0,-2.778718208E0,8.363964169E0
4.416831000E0,-2.847663020E0,-5.959788002E0,-2.284595156E0,6.989108150E0
4.426777000E0,-2.279148182E0,-5.171404408E0,-1.872043979E0,5.953359442E0
4.436723000E0,-2.708360124E0,-4.570497165E0,-1.743730924E0,5.591534354E0
4.446669000E0,-3.821577013E0,-3.806919213E0,-1.060166271E0,5.497366395E0
4.456615000E0,-5.130069271E0,-2.886455203E0,-1.355655899E0,6.040450089E0
4.466561000E0,-7.238101611E0,-2.468840044E0,-1.275353163E0,7.753180752E0
4.476507000E0,-9.675713430E0,-3.172599226E0,-1.468190534E0,1.028787634E1
4.486453000E0,-1.082805404E1,-5.973092172E0,-2.807005868E0,1.268084644E1
4.496399000E0,-1.058867371E1,-9.245903319E0,-4.663620214E0,1.481067495E1
4.506345000E0,-9.574096423E0,-1.045302415E1,-5.822063270E0,1.532401569E1
4.516291000E0,-7.558642464E0,-1.100248584E1,-6.399710873E0,1.480351545E1
4.526237000E0,-4.490113737E0,-1.133424282E1,-6.369364409E0,1.375481678E1
4.536184000E0,-6.715369302E-1,-1.024871425E1,-5.730106448E0,1.176100445E1
4.546130000E0,3.665856305E0,-8.539319347E0,-5.363870773E0,1.072984562E1
4.556076000E0,6.933495004E0,-7.528471416E0,-6.135405616E0,1.193291402E1
4.566022000E0,7.286933463E0,-8.221104516E0,-8.188448401E0,1.370170230E1
4.575968000E0,5.605739095E0,-1.021304857E1,-9.768178959E0,1.520355196E1
4.585914000E0,3.003321163E0,-1.165881358E1,-8.960202515E0,1.500776803E1
4.595860000E0,4.130385429E-1,-1.125632166E1,-5.430581657E0,1.250466294E1
4.605806000E0,-2.829344863E-1,-1.096035548E1,-2.411823844E0,1.122614531E1
4.615752000E0,2.895723624E0,-1.072342045E1,-9.459537774E-1,1.114772578E1
4.625698000E0,8.451315828E0,-9.489920492E0,-3.545856822E-1,1.271255526E1
4.635644000E0,1.160588341E1,-8.153825283E0,-2.251073142E-1,1.418562899E1
4.645590000E0,1.146793824E1,-7.302747257E0,-5.242427174E-1,1.360582799E1
4.655536000E0,9.683667397E0,-6.745917495E0,-5.130102161E-1,1.181287419E1
4.665482000E0,7.384995947E0,-6.456681465E0,-2.461583503E-1,9.812619151E0
4.675428000E0,5.682793702E0,-6.147385392E0,-1.889400561E-1,8.373779897E0
4.685374000E0,5.732863410E0,-5.360533183E0,-3.309862467E-1,7.855608874E0
4.695320000E0,7.339396436E0,-4.828585078E0,-8.111139878E-1,8.822691188E0
4.705266000E0,9.557006181E0,-2.458187294E0,-3.387699871E-1,9.873895737E0
4.715213458E0,1.021749831E1,-1.061203860E0,-1.574602404E0,1.039243946E1
4.725159458E0,6.825785199E0,-2.546147544E0,2.075262204E0,7.575019743E0
4.735105458E0,6.680366115E0,-5.901299474E-1,3.722659081E0,7.670315210E0
4.745051458E0,5.575270423E0,9.562571561E-1,4.109743588E0,6.991999743E0
4.754997458E0,5.252353846E0,1.044417965E0,3.131306773E0,6.203475793E0
4.764943458E0,5.039050342E0,1.334867293E0,2.318007170E0,5.705002742E0
4.774889458E0,4.301374971E0,1.537102017E0,2.023752912E0,4.996006916E0
4.784835458E0,2.983745854E0,2.481040260E0,2.452391242E0,4.590481772E0
4.794781458E0,2.018986847E0,2.927103876E0,2.594255219E0,4.401636642E0
4.804727458E0,1.519027689E0,2.803320075E0,2.154324746E0,3.848007754E0
4.814673458E0,2.028317249E0,3.114864988E0,2.095713426E0,4.267138329E0
4.824619458E0,3.060428579E0,3.594746561E0,2.192744461E0,5.205435064E0
4.834565458E0,3.663940757E0,4.009703575E0,2.481004007E0,5.971395609E0
4.844511458E0,3.779928465E0,4.397903146E0,2.868348130E0,6.469685640E0
4.854457458E0,3.895170069E0,4.749642988E0,3.161221129E0,6.908312197E0
4.864403458E0,4.207325431E0,5.002308193E0,3.337851480E0,7.339341050E0
4.874349458E0,4.673197076E0,5.211622726E0,3.509946731E0,7.830677391E0
4.884295458E0,5.035299354E0,5.483190225E0,3.593616879E0,8.266419836E0
4.894242458E0,5.173028179E0,5.751789678E0,3.580568233E0,8.524304893E0
4.904188458E0,5.484772482E0,5.996387479E0,3.713364347E0,8.934677765E0
4.914134458E0,5.917168817E0,6.108006148E0,3.793327360E0,9.311818210E0
4.924080458E0,6.336682566E0,6.046363047E0,3.744687004E0,9.525478088E0
4.934026458E0,7.018599474E0,6.052015550E0,3.670358076E0,9.967906460E0
4.943972458E0,7.844408757E0,6.117623649E0,3.555512913E0,1.056417247E1
4.953918458E0,8.768995639E0,5.890665727E0,3.726774352E0,1.120196743E1
4.963864458E0,9.762266840E0,5.895340576E0,4.432733548E0,1.223544119E1
4.973810458E0,1.063656708E1,5.988553964E0,5.236358203E0,1.328227334E1
4.983756458E0,1.136910860E1,5.885314355E0,5.979627605E0,1.412973820E1
4.993702458E0,1.153171148E1,5.909473881E0,6.497854049E0,1.449566689E1
5.003648458E0,1.125614507E1,6.009580552E0,6.799026586E0,1.445830636E1
5.013594458E0,1.126542226E1,5.902491721E0,6.732293483E0,1.439002859E1
5.023540458E0,1.176622108E1,5.283131250E0,6.055146149E0,1.424851674E1
5.033486458E0,1.225097748E1,4.260027555E0,5.348620065E0,1.403003993E1
5.043432458E0,1.256634004E1,3.013138638E0,5.083623083E0,1.388650892E1
5.053378458E0,1.235524620E1,1.912024900E0,5.185725993E0,1.353512844E1
5.063324458E0,1.164094215E1,1.198020812E0,5.558726896E0,1.295554833E1
5.073270458E0,1.067723681E1,9.038292664E-1,5.911980582E0,1.223812925E1
5.083216458E0,9.846727531E0,7.720225006E-1,5.813815187E0,1.146099947E1
5.093163458E0,9.417536640E0,5.298010075E-1,5.143505588E0,1.074366489E1
5.103109458E0,9.232400343E0,3.644160211E-2,4.232088389E0,1.015623534E1
5.113055458E0,9.347653642E0,-8.864086568E-1,3.445676476E0,1.000185159E1
5.123001458E0,9.293680918E0,-1.877669585E0,2.687836397E0,9.855080546E0
5.132947458E0,9.435239670E0,-3.142349240E0,2.018828387E0,1.014759944E1
5.142893458E0,1.014340590E1,-5.047004895E0,1.499343038E0,1.142842820E1
5.152839458E0,1.019834634E1,-6.449189427E0,1.157823470E0,1.212183433E1
5.162785458E0,9.777473109E0,-7.170643453E0,1.261533269E0,1.219051164E1
5.172731458E0,8.868170264E0,-7.359864614E0,1.763940071E0,1.165862494E1
5.182677458E0,8.171071646E0,-7.627497522E0,2.462343203E0,1.144588417E1
5.192623458E0,7.492688211E0,-7.877727946E0,2.857646556E0,1.124122405E1
5.202569458E0,6.891202093E0,-8.056841610E0,2.942320086E0,1.100266379E1
5.212515458E0,6.492934787E0,-8.211581740E0,3.071589160E0,1.090976337E1
5.222461458E0,6.005078196E0,-8.261022288E0,3.224125475E0,1.070982906E1
5.232407458E0,5.495146612E0,-8.166595602E0,3.350481466E0,1.039786738E1
5.242353458E0,5.106075221E0,-8.058411587E0,3.213222756E0,1.006651886E1
5.252299458E0,4.948803831E0,-8.145778345E0,2.797076418E0,9.933176768E0
5.262245458E0,4.934423774E0,-8.338842881E0,2.437479088E0,9.991303362E0
5.272192458E0,4.772904382E0,-8.480080036E0,2.078377601E0,9.950478737E0
5.282138458E0,4.451756002E0,-8.786087635E0,1.623109297E0,9.982382042E0
5.292084458E0,4.013211320E0,-9.317258061E0,1.120980238E0,1.020655474E1
5.302030458E0,3.427812063E0,-9.952704806E0,6.895380952E-1,1.054901376E1
5.311976458E0,3.129387133E0,-1.050204721E1,3.099468684E-1,1.096276090E1
5.321922458E0,2.745954797E0,-1.085006530E1,2.846497670E-2,1.119218455E1
5.331868458E0,1.985993348E0,-1.101257345E1,-2.164919901E-1,1.119231042E1
5.341814458E0,1.294736683E0,-1.107043984E1,-3.984257662E-1,1.115301414E1
5.351760458E0,5.585517669E-1,-1.110369880E1,-8.675063628E-1,1.115153238E1
5.361706458E0,-1.721829593E-2,-1.111908049E1,-1.450008764E0,1.121324096E1
5.371652458E0,-3.547833180E-1,-1.106325946E1,-1.888302893E0,1.122885875E1
5.381598458E0,-3.301513374E-1,-1.086554639E1,-2.182490053E0,1.108748669E1
5.391544458E0,-3.771050638E-1,-1.071473734E1,-2.253328047E0,1.095560550E1
5.401490458E0,-6.408343703E-1,-1.064436025E1,-2.273264714E0,1.090324751E1
5.411436458E0,-1.025664191E0,-1.060412439E1,-2.372729507E0,1.091463634E1
5.421382458E0,-1.497712834E0,-1.066464307E1,-2.550750765E0,1.106725282E1
5.431328458E0,-1.812283096E0,-1.062876690E1,-2.704897987E0,1.111627316E1
5.441274458E0,-2.217626703E0,-1.052782407E1,-2.887138450E0,1.113950252E1
5.451220458E0,-2.789624142E0,-1.053196156E1,-3.037100820E0,1.131053485E1
5.461166458E0,-3.489484400E0,-1.054104697E1,-3.127694948E0,1.153571187E1
5.471113458E0,-4.221488557E0,-1.043170403E1,-3.183551353E0,1.169514489E1
5.481059458E0,-4.883186377E0,-1.035847351E1,-3.447041216E0,1.195933007E1
5.491005458E0,-5.359079565E0,-1.011425168E1,-3.774187084E0,1.205248145E1
5.500951458E0,-5.571887809E0,-9.797877553E0,-3.998659939E0,1.195966637E1
5.510897458E0,-6.085528867E0,-9.651094313E0,-4.142178093E0,1.213815976E1
5.520843458E0,-6.671290067E0,-9.542133204E0,-4.458279448E0,1.246734426E1
5.530789458E0,-7.216189170E0,-9.410179088E0,-4.898289735E0,1.283035849E1
5.540735458E0,-7.598250918E0,-9.190948262E0,-5.319238976E0,1.305761273E1
5.550681458E0,-7.826357818E0,-9.001031867E0,-5.726394051E0,1.323110125E1
5.560627458E0,-7.878737175E0,-8.889244214E0,-5.921131475E0,1.327226281E1
5.570573458E0,-7.656573386E0,-8.675379378E0,-5.859492466E0,1.296992580E1
5.580519458E0,-7.243819018E0,-8.492169154E0,-5.626204934E0,1.249976131E1
5.590465458E0,-6.863195685E0,-8.345024557E0,-5.261727517E0,1.201784782E1
5.600411458E0,-6.460990863E0,-8.299482933E0,-4.927342211E0,1.161484056E1
5.610357458E0,-5.923414228E0,-8.450006636E0,-4.724034523E0,1.134927092E1
5.620303458E0,-5.197029245E0,-8.445039427E0,-4.856877415E0,1.104160596E1
5.630249458E0,-4.557212875E0,-8.344560288E0,-5.281407491E0,1.087626502E1
5.640195458E0,-4.096303178E0,-8.376887205E0,-5.368240398E0,1.075964423E1
5.650141458E0,-3.443251051E0,-8.024434002E0,-5.053132192E0,1.008868990E1
5.660087458E0,-2.520358692E0,-7.748310353E0,-4.857187610E0,9.485820615E0
5.670034458E0,-1.045850533E0,-7.550263989E0,-4.133217820E0,8.670858042E0
5.679980458E0,8.539396530E-1,-7.053079920E0,-2.856442614E0,7.657311127E0
5.689926458E0,2.606595182E0,-6.447903625E0,-1.846435659E0,7.195771275E0
5.699872458E0,3.803412053E0,-6.108834114E0,-1.466555945E0,7.344016872E0
5.709817750E0,4.062689874E0,-6.292236126E0,-1.714730489E0,7.683617971E0
5.719763750E0,3.599435443E0,-6.709518578E0,-2.500532245E0,8.014127312E0
5.729709750E0,2.462059613E0,-7.333989515E0,-3.443248127E0,8.467886242E0
5.739655750E0,1.174305675E0,-8.048239186E0,-4.130952609E0,9.122385503E0
5.749601750E0,6.900486302E-1,-8.608272053E0,-4.549836028E0,9.761123026E0
5.759547750E0,1.722343563E0,-8.575703647E0,-4.627926763E0,9.895800448E0
5.769493750E0,4.398503655E0,-7.750897161E0,-4.058842406E0,9.792723977E0
5.779439750E0,7.666260468E0,-6.283492785E0,-2.644082851E0,1.025889883E1
5.789385750E0,1.143340692E1,-4.876367939E0,-1.380310099E0,1.250627899E1
5.799331750E0,1.431099950E1,-3.999488490E0,-1.824244745E0,1.497092127E1
5.809277750E0,1.484439187E1,-3.099814547E0,-2.199735392E0,1.532330434E1
5.819223750E0,1.347866472E1,-2.089182086E0,-2.451830932E0,1.385823075E1
5.829169750E0,1.032646819E1,-1.252352409E0,-1.673358514E0,1.053586544E1
5.839115750E0,7.887172953E0,-9.364038125E-1,-5.753648508E-1,7.963378304E0
5.849061750E0,5.812981374E0,-7.569856547E-1,7.939203233E-3,5.862068131E0
5.859008750E0,3.869430626E0,-8.741970393E-1,5.000654308E-1,3.998347067E0
5.868954750E0,2.581307729E0,-1.002324445E0,1.239795660E0,3.033957343E0
5.878900750E0,2.413855752E0,-8.258545992E-1,2.090096591E0,3.298065974E0
5.888846750E0,3.131175211E0,-4.446632087E-1,2.768975869E0,4.203476054E0
5.898792750E0,4.064473860E0,2.219708312E-1,3.211970283E0,5.185168455E0
5.908738750E0,4.496457381E0,9.953490087E-1,3.477149699E0,5.770564847E0
5.918684750E0,4.073121307E0,1.482757410E0,3.556379471E0,5.606845964E0
5.928630750E0,3.472521043E0,1.793189598E0,3.451239517E0,5.213922279E0
5.938576750E0,2.968822006E0,2.102278972E0,3.162509855E0,4.820264470E0
5.948522750E0,2.562477356E0,2.346097632E0,2.795758456E0,4.459453962E0
5.958468750E0,2.663934733E0,2.571684381E0,2.463150119E0,4.447158343E0
5.968414750E0,2.817773808E0,2.738717113E0,2.296081865E0,4.551089165E0
5.978360750E0,2.781773670E0,2.851039787E0,2.205819859E0,4.553277267E0
5.988306750E0,2.794347523E0,2.907225097E0,2.176999371E0,4.582538828E0
5.998252750E0,3.125246719E0,2.926257200E0,2.355780183E0,4.886701190E0
6.008198750E0,3.656783180E0,3.082248049E0,2.699985741E0,5.492015957E0
6.018144750E0,3.988591619E0,3.411657375E0,3.094107665E0,6.092763854E0
6.028091750E0,4.140744941E0,3.596439915E0,3.447863334E0,6.478264451E0
6.038037750E0,4.116994135E0,3.596566799E0,3.621701348E0,6.557564648E0
6.047983750E0,4.068655788E0,3.613877481E0,3.669137470E0,6.563279679E0
6.057929750E0,4.276685688E0,3.608784556E0,3.718852836E0,6.718871398E0
6.067875750E0,4.429237790E0,3.546233967E0,3.767573884E0,6.810912987E0
6.077821750E0,4.550021970E0,3.600081561E0,4.004061305E0,7.049524388E0
6.087767750E0,4.806289060E0,3.411897111E0,4.395033040E0,7.352399054E0
6.097713750E0,4.985862899E0,3.185832644E0,4.765686871E0,7.597376510E0
6.107659750E0,4.943557709E0,2.996765265E0,5.189120886E0,7.768290703E0
6.117605750E0,4.821294769E0,2.903840729E0,5.637538007E0,7.966116307E0
6.127551750E0,4.775417515E0,3.083412815E0,6.112150655E0,8.346881613E0
6.137497750E0,5.019090872E0,3.351803522E0,6.467088339E0,8.845851661E0
6.147443750E0,5.435048345E0,3.550276732E0,6.642584331E0,9.288064490E0
6.157389750E0,5.903645377E0,3.768498913E0,6.712691277E0,9.701280172E0
6.167335750E0,6.368687886E0,3.667680051E0,6.492688619E0,9.806480911E0
6.177281750E0,7.000450301E0,2.940474120E0,6.020673305E0,9.690263129E0
6.187227750E0,7.574323527E0,1.918803577E0,5.600205874E0,9.613245545E0
6.197174750E0,7.676375567E0,1.405319225E0,5.696185580E0,9.661686920E0
6.207120750E0,7.747055540E0,1.424597495E0,6.118976694E0,9.974378344E0
6.217066750E0,8.084726982E0,1.535451348E0,6.510278798E0,1.049305252E1
6.227012750E0,8.598151107E0,1.766649086E0,6.744343425E0,1.106957179E1
6.236958750E0,9.186020229E0,2.071407135E0,6.695705116E0,1.155448667E1
6.246904750E0,9.948429322E0,2.388319207E0,6.236050816E0,1.198180472E1
6.256850750E0,1.058309663E1,2.450219001E0,5.434191728E0,1.214643764E1
6.266796750E0,1.109962914E1,2.231251885E0,4.454873445E0,1.216659975E1
6.276742750E0,1.140344462E1,1.882109376E0,3.539705843E0,1.208761359E1
6.286688750E0,1.118191116E1,1.523314868E0,2.840695478E0,1.163723232E1
6.296634750E0,1.030587429E1,1.136442615E0,2.162990027E0,1.059155667E1
6.306580750E0,9.100460261E0,5.769804364E-1,1.757906914E0,9.286631257E0
6.316526750E0,7.974370726E0,-8.250421286E-3,1.792110786E0,8.173268478E0
6.326472750E0,7.196047266E0,-6.099254036E-1,2.046676190E0,7.506263297E0
6.336418750E0,6.763415288E0,-1.289299942E0,2.460682594E0,7.311705651E0
6.346364750E0,6.364217690E0,-1.733354455E0,2.836403621E0,7.180039692E0
6.356311750E0,5.836862572E0,-2.188516924E0,2.833481183E0,6.847421897E0
6.366257750E0,5.267675305E0,-2.713129697E0,2.541243192E0,6.447277940E0
6.376203750E0,4.514315947E0,-3.079313624E0,2.286375926E0,5.923574575E0
6.386149750E0,3.698717657E0,-3.331587650E0,2.131068177E0,5.414927530E0
6.396095750E0,3.016097914E0,-3.558449970E0,1.991426142E0,5.072000680E0
6.406041750E0,2.541886386E0,-3.724219118E0,1.790790485E0,4.851589946E0
6.415987750E0,2.282660605E0,-3.923685771E0,1.550473430E0,4.796854941E0
6.425933750E0,2.153485671E0,-4.161137105E0,1.184684483E0,4.832808693E0
6.435879750E0,1.925272352E0,-4.424468801E0,8.669643259E-1,4.902471310E0
6.445825750E0,1.679178833E0,-4.704481726E0,5.174095881E-1,5.021902283E0
6.455771750E0,1.440080922E0,-5.005354008E0,1.443198073E-1,5.210396340E0
6.465717750E0,1.022679187E0,-5.346992201E0,-1.047107685E-1,5.444920813E0
6.475663750E0,7.198705995E-1,-5.709128977E0,-4.068954581E-1,5.768702737E0
6.485609750E0,2.467519158E-1,-6.043630058E0,-6.985159832E-1,6.088864867E0
6.495555750E0,-1.928528666E-1,-6.373813555E0,-8.845919269E-1,6.437794214E0
6.505501750E0,-5.497084379E-1,-6.709851869E0,-1.075990591E0,6.817774360E0
6.515448750E0,-8.882715797E-1,-7.159938955E0,-1.307225166E0,7.332297722E0
6.525394750E0,-1.290323789E0,-7.463165619E0,-1.325024675E0,7.688918450E0
6.535340750E0,-1.772468820E0,-7.568263473E0,-1.187882325E0,7.863289523E0
6.545286750E0,-2.112223624E0,-7.650761839E0,-1.212682121E0,8.029087325E0
6.555232750E0,-2.378711062E0,-7.650808616E0,-9.577202026E-1,8.069099503E0
6.565178750E0,-2.647866000E0,-7.528127015E0,-8.001686579E-1,8.020234447E0
6.575124750E0,-2.703024539E0,-7.436142127E0,-7.388658643E-1,7.946601422E0
6.585070750E0,-2.563856714E0,-7.366538041E0,-5.908658195E-1,7.822299303E0
6.595016750E0,-2.480743221E0,-7.352918122E0,-4.923888041E-1,7.775727527E0
6.604962750E0,-2.495708000E0,-7.441014027E0,-3.654276260E-1,7.856894140E0
6.614908750E0,-2.388706293E0,-7.605685068E0,-1.388860263E-1,7.973183332E0
6.624854750E0,-2.105549612E0,-7.787283214E0,9.417521875E-2,8.067464782E0
6.634800750E0,-1.744028547E0,-8.019134086E0,2.112511307E-1,8.209310209E0
6.644746750E0,-1.586199918E0,-8.334758601E0,2.808418043E-1,8.488998953E0
6.654692750E0,-1.653839339E0,-8.646944368E0,4.510431423E-1,8.815229514E0
6.664638750E0,-1.636881244E0,-8.811765683E0,6.395263481E-1,8.985298471E0
6.674585750E0,-1.499303861E0,-8.942356228E0,5.969001460E-1,9.086800138E0
6.684531750E0,-1.737364476E0,-8.976613310E0,4.127946774E-1,9.152509016E0
6.694477750E0,-2.412169415E0,-8.953353671E0,2.659471554E-1,9.276412622E0
6.704423750E0,-3.239953887E0,-8.818829119E0,1.420779848E-1,9.396235117E0
6.714370083E0,-3.837794266E0,-8.510943394E0,-1.601263661E-2,9.336224006E0
6.724316083E0,-4.114643555E0,-8.308825030E0,-1.163472392E-1,9.272561762E0
6.734262083E0,-4.331910301E0,-8.285322146E0,-2.740455856E-1,9.353454491E0
6.744208083E0,-4.450804660E0,-8.127932643E0,-4.945317721E-1,9.279952200E0
6.754154083E0,-4.611061639E0,-8.058819138E0,-7.392348236E-1,9.314124944E0
6.764100083E0,-4.875536465E0,-8.227141181E0,-1.138774996E0,9.630862699E0
6.774046083E0,-5.257279540E0,-8.419231571E0,-1.602406645E0,1.005436002E1
6.783992083E0,-6.104576172E0,-8.436696035E0,-2.044184253E0,1.061236917E1
6.793938083E0,-6.686870558E0,-8.357698982E0,-2.392474238E0,1.096764802E1
6.803884083E0,-6.229833471E0,-8.103110043E0,-2.203237875E0,1.045588230E1
6.813831083E0,-4.770918667E0,-7.363544267E0,-1.545927805E0,8.909171784E0
6.823777083E0,-2.729438751E0,-6.299516494E0,-7.059325916E-1,6.901600161E0
6.833723083E0,-6.545887756E-1,-5.335624629E0,-1.131494792E-1,5.376818711E0
6.843669083E0,9.825468224E-1,-4.600083491E0,-1.265664911E-1,4.705548370E0
6.853615083E0,2.094590176E0,-4.095185190E0,-7.560391366E-1,4.661485270E0
6.863561083E0,2.515487961E0,-3.945275445E0,-1.768015580E0,5.001875359E0
6.873507083E0,2.014967471E0,-4.151108838E0,-3.053810116E0,5.533313177E0
6.883453083E0,9.901166278E-1,-4.597216601E0,-4.442741350E0,6.469364893E0
6.893399083E0,1.386567789E-1,-5.339215989E0,-5.528569297E0,7.687101635E0
6.903345083E0,-3.232042605E-1,-5.762746190E0,-5.763053169E0,8.156377044E0
6.913291083E0,-4.515173149E-1,-5.660482482E0,-5.787545986E0,8.108058852E0
6.923237083E0,-1.225956470E-1,-5.751035387E0,-5.630588007E0,8.049407371E0
6.933183083E0,2.142747259E-1,-5.860634428E0,-5.044086549E0,7.735357695E0
6.943129083E0,8.890007275E-1,-5.637245647E0,-4.275793988E0,7.131007993E0
6.953075083E0,2.267950764E0,-5.202488206E0,-3.641366411E0,6.743073005E0
6.963022083E0,3.625648511E0,-4.402582088E0,-3.044774998E0,6.465192260E0
6.972968083E0,4.296429981E0,-3.486645869E0,-2.328253684E0,6.003063819E0
6.982914083E0,4.802878963E0,-2.691410215E0,-1.764199833E0,5.781326520E0
6.992860083E0,5.020115889E0,-1.922307814E0,-1.477839464E0,5.575019314E0
7.002806083E0,4.669907432E0,-1.217709264E0,-1.287300632E0,4.994796712E0
7.012752083E0,3.985613632E0,-7.930625367E-1,-1.074158074E0,4.203317710E0
7.022698083E0,3.394457790E0,-6.030669120E-1,-7.959088151E-1,3.538291146E0
7.032644083E0,3.007079169E0,-5.136662006E-1,-4.191132152E-1,3.079291149E0
7.042590083E0,2.837009393E0,-3.832227132E-1,7.200846076E-2,2.863680702E0
7.052536083E0,2.738541697E0,-1.843416595E-1,5.881622131E-1,2.807049565E0
7.062482083E0,2.497458656E0,-1.125860909E-1,1.147526597E0,2.750780373E0
7.072428083E0,2.248243893E0,-1.366465062E-1,1.686653621E0,2.813907125E0
7.082374083E0,2.121497308E0,-1.709281468E-1,2.165309033E0,3.036203298E0
7.092320083E0,2.193034483E0,-1.269915837E-1,2.737821027E0,3.510155422E0
7.102266083E0,2.485710431E0,8.012264192E-2,3.350803063E0,4.172895535E0
7.112213083E0,2.758478363E0,4.034970564E-1,3.833857043E0,4.740303005E0
7.122159083E0,3.002607218E0,7.112026870E-1,4.206519685E0,5.216921240E0
7.132105083E0,3.316547150E0,1.072117395E0,4.540288695E0,5.723909690E0
7.142051083E0,3.521411367E0,1.467920685E0,4.819040083E0,6.146403540E0
7.151997083E0,3.360146329E0,1.796803177E0,5.076852007E0,6.347717015E0
7.161943083E0,3.293266461E0,2.162566981E0,5.144779111E0,6.480050311E0
7.171889083E0,3.421105891E0,2.414767917E0,5.175155396E0,6.657124228E0
7.181835083E0,3.401410714E0,2.557686732E0,5.329118432E0,6.819887061E0
7.191781083E0,3.332267974E0,2.808382010E0,5.562488995E0,7.066279302E0
7.201727083E0,3.369825225E0,3.004297648E0,5.805237322E0,7.354067362E0
7.211673083E0,3.487402207E0,3.186702125E0,5.955666885E0,7.601776939E0
7.221619083E0,3.777296049E0,3.326855206E0,6.075948204E0,7.890061950E0
7.231565083E0,4.147538821E0,3.337702961E0,6.094973289E0,8.092653380E0
7.241512083E0,4.559258232E0,3.243720664E0,6.026647990E0,8.223688063E0
7.251458083E0,4.985131997E0,3.060541431E0,5.934611061E0,8.332950458E0
7.261404083E0,5.319034908E0,2.850837473E0,5.853949306E0,8.407623275E0
7.271350083E0,5.499151370E0,2.662347799E0,5.795809856E0,8.421411608E0
7.281296083E0,5.610518024E0,2.511972615E0,5.851491721E0,8.486923723E0
7.291242083E0,5.749503416E0,2.610903411E0,5.879901588E0,8.628258737E0
7.301188083E0,5.897517495E0,3.021024193E0,5.927854604E0,8.890824482E0
7.311134083E0,6.258700005E0,3.392715320E0,5.893130329E0,9.241797881E0
7.321080083E0,6.933214338E0,3.446271138E0,5.754875253E0,9.647011713E0
7.331026083E0,7.557676504E0,3.568299020E0,5.575592020E0,1.004681335E1
7.340972083E0,8.009889638E0,3.827948139E0,5.477471064E0,1.043140490E1
7.350918083E0,8.649434112E0,3.684523541E0,5.192006487E0,1.073989551E1
7.360864083E0,9.397184821E0,2.866032048E0,4.658798600E0,1.087316084E1
7.370810083E0,1.009553942E1,1.916739510E0,4.360068153E0,1.116261622E1
7.380757083E0,1.032519115E1,1.703471675E0,4.600864679E0,1.143150663E1
7.390703083E0,1.039153834E1,2.197528653E0,5.113150352E0,1.178802391E1
7.400649083E0,1.053810699E1,2.674916389E0,5.363849723E0,1.212343847E1
7.410595083E0,1.065711069E1,3.152508777E0,5.220735612E0,1.227877845E1
7.420541083E0,1.076364345E1,3.587745105E0,4.771594898E0,1.230837329E1
7.430487083E0,1.084144065E1,3.631714997E0,4.007153312E0,1.211542269E1
7.440433083E0,1.091049393E1,3.203267287E0,3.096393926E0,1.178505216E1
7.450379083E0,1.090601146E1,2.462505171E0,2.325407552E0,1.141983091E1
7.460325083E0,1.077662076E1,1.596695670E0,1.736538849E0,1.103179764E1
7.470271083E0,1.053517169E1,6.964121550E-1,1.250420928E0,1.063195113E1
7.480217083E0,1.025315346E1,-2.533382195E-1,9.120079131E-1,1.029675165E1
7.490163083E0,1.014097813E1,-1.290042538E0,7.139861079E-1,1.024760574E1
7.500109083E0,1.008347895E1,-2.217957070E0,7.976445611E-1,1.035529421E1
7.510056083E0,9.886668692E0,-2.984613581E0,1.088929164E0,1.038459931E1
7.520002083E0,9.593699214E0,-3.778863688E0,1.257587568E0,1.038751182E1
7.529948083E0,9.088284604E0,-4.613892276E0,1.246653420E0,1.026835253E1
7.539894083E0,8.344708807E0,-5.319316744E0,1.215337926E0,9.970272914E0
7.549840083E0,7.838006056E0,-6.096353817E0,1.294529107E0,1.001377423E1
7.559786083E0,6.901603705E0,-6.447737564E0,1.366633462E0,9.543224844E0
7.569732083E0,6.041553127E0,-6.806104056E0,1.492685398E0,9.222338440E0
7.579678083E0,5.161915546E0,-7.061474183E0,1.457523751E0,8.867590722E0
7.589624083E0,4.462538853E0,-7.148938004E0,1.200399460E0,8.512492376E0
7.599570083E0,4.034262466E0,-7.162254453E0,7.231228209E-1,8.252034240E0
7.609516083E0,3.755562533E0,-7.397853974E0,3.131160593E-1,8.302441510E0
7.619462083E0,3.351783641E0,-7.760417013E0,-2.781519572E-2,8.453360247E0
7.629409083E0,2.917505672E0,-8.029766078E0,-3.083616883E-1,8.548922128E0
7.639355083E0,2.459838256E0,-8.416903210E0,-5.037686187E-1,8.783441621E0
7.649301083E0,1.977438871E0,-8.875217913E0,-6.173385036E-1,9.113773330E0
7.659247083E0,1.463495513E0,-9.280045211E0,-7.245074415E-1,9.422630697E0
7.669193083E0,9.864667958E-1,-9.606162554E0,-8.204748684E-1,9.691473302E0
7.679139083E0,4.988516951E-1,-9.814809920E0,-8.249784670E-1,9.862045236E0
7.689085083E0,5.038019478E-2,-9.965081023E0,-7.954184530E-1,9.996902944E0
7.699031083E0,-5.289911681E-1,-9.901217734E0,-8.873529822E-1,9.954965574E0
7.708977083E0,-7.443517220E-1,-1.021831107E1,-9.099407762E-1,1.028571499E1
7.718923000E0,-6.838184220E-1,-1.051244239E1,-9.556098694E-1,1.057791297E1
7.728869000E0,-1.262702127E0,-1.016175914E1,-1.258452225E0,1.031695049E1
7.738815000E0,-1.801498491E0,-9.961929374E0,-1.487268537E0,1.023217481E1
7.748761000E0,-2.293861531E0,-9.981446210E0,-1.637873370E0,1.037177412E1
7.758708000E0,-2.743290805E0,-1.000605246E1,-1.722053395E0,1.051723339E1
7.768654000E0,-3.083336801E0,-9.920202473E0,-1.714554487E0,1.052886889E1
7.778600000E0,-3.472528644E0,-9.753362700E0,-1.734142514E0,1.049732296E1
7.788546000E0,-3.855912448E0,-9.735819883E0,-1.820644029E0,1.062868733E1
7.798492000E0,-3.999911828E0,-9.926531500E0,-1.923953220E0,1.087368007E1
7.808438000E0,-4.045946372E0,-1.010915992E1,-2.041374228E0,1.107844778E1
7.818384000E0,-3.952718951E0,-1.016096392E1,-2.205997029E0,1.112365038E1
7.828330000E0,-3.893738086E0,-1.004519256E1,-2.381163530E0,1.103345048E1
7.838276000E0,-4.780733219E0,-9.643963049E0,-2.617421302E0,1.107755964E1
7.848222000E0,-4.788757938E0,-1.019167115E1,-2.878637475E0,1.162277580E1
7.858168000E0,-5.222094505E0,-1.021063484E1,-3.332912337E0,1.194301635E1
7.868114000E0,-5.799622241E0,-9.942454637E0,-3.688781483E0,1.208698189E1
7.878061000E0,-6.254429784E0,-9.731651403E0,-3.881550735E0,1.220202307E1
7.888007000E0,-6.898359670E0,-9.442108979E0,-3.972405941E0,1.234993105E1
7.897953000E0,-7.490337045E0,-9.189681755E0,-4.081103633E0,1.253837337E1
7.907899000E0,-7.573107306E0,-9.034404266E0,-4.073548446E0,1.247261848E1
7.917845000E0,-7.506370695E0,-8.741279252E0,-3.955312191E0,1.218195627E1
7.927791000E0,-6.966904240E0,-8.686373897E0,-3.892044733E0,1.179571356E1
7.937737000E0,-6.195560017E0,-8.968155313E0,-3.962506020E0,1.159802688E1
7.947683000E0,-6.158988022E0,-8.865931950E0,-4.261401943E0,1.160592217E1
7.957629000E0,-5.791655994E0,-8.769699644E0,-4.767518511E0,1.154037017E1
7.967575000E0,-5.404868526E0,-8.507959560E0,-5.204482691E0,1.134392435E1
7.977521000E0,-4.962192201E0,-8.178688813E0,-5.178415804E0,1.087797281E1
7.987467000E0,-3.867053148E0,-7.803028597E0,-4.752064613E0,9.920860518E0
7.997414000E0,-1.929742548E0,-7.504141737E0,-3.966908681E0,8.704735148E0
8.007360000E0,7.117698669E-2,-7.310698886E0,-2.864659122E0,7.852238932E0
8.017306000E0,1.545328465E0,-7.130093597E0,-1.919968343E0,7.544040907E0
8.027252000E0,2.462541423E0,-7.333971974E0,-1.527982700E0,7.885809172E0
8.037198000E0,2.863606038E0,-8.049523820E0,-1.950834625E0,8.763608218E0
8.047144000E0,2.765452337E0,-8.727671027E0,-2.940303089E0,9.615890517E0
8.057090000E0,2.222506789E0,-9.197293076E0,-4.085543717E0,1.030637685E1
8.067036000E0,1.785699899E0,-9.509906859E0,-5.036476983E0,1.090839828E1
8.076982000E0,2.037169349E0,-9.583571252E0,-5.643950064E0,1.130703627E1
8.086928000E0,3.096914620E0,-9.446124262E0,-5.907688726E0,1.156377662E1
8.096874000E0,4.879259387E0,-9.193018761E0,-5.830391459E0,1.192946900E1
8.106820000E0,6.807889795E0,-8.770065680E0,-5.538876768E0,1.240727897E1
8.116766000E0,8.076925626E0,-8.278637025E0,-5.196441600E0,1.267973043E1
8.126713000E0,9.077332184E0,-7.735571609E0,-4.656978069E0,1.280329928E1
8.136659000E0,9.606418662E0,-7.077012573E0,-3.874176811E0,1.254498435E1
8.146605000E0,9.345065664E0,-6.271456876E0,-2.818035178E0,1.160184235E1
8.156551000E0,8.648723091E0,-5.586646181E0,-1.603826934E0,1.042033049E1
8.166497000E0,7.661279810E0,-5.102632381E0,-5.705642867E-1,9.222668223E0
8.176443000E0,6.975584432E0,-4.595080906E0,4.014781590E-1,8.362698811E0
8.186389000E0,6.629970133E0,-4.092511843E0,1.337717811E0,7.905355532E0
8.196335000E0,6.154551154E0,-3.581270775E0,2.185825012E0,7.448612707E0
8.206281000E0,5.931383983E0,-3.104707205E0,3.038027312E0,7.351879537E0
8.216227000E0,6.135522560E0,-2.487883841E0,3.924409071E0,7.696440064E0
8.226173000E0,6.500229188E0,-1.773442381E0,4.663231666E0,8.194132471E0
8.236119000E0,6.615314087E0,-1.064154072E0,5.246795483E0,8.510209586E0
8.246066000E0,6.545284324E0,-5.523256516E-1,5.663997828E0,8.673331649E0
8.256012000E0,6.403250778E0,-1.513282800E-1,6.013671849E0,8.785713965E0
8.265958000E0,6.123521150E0,1.722478634E-1,6.275551096E0,8.769818822E0
8.275904000E0,5.584780335E0,4.605296284E-1,6.434368490E0,8.532464872E0
8.285850000E0,5.106635385E0,6.885494041E-1,6.632834684E0,8.399185745E0
8.295796000E0,4.772103313E0,8.514159948E-1,6.691629606E0,8.262916314E0
8.305742000E0,4.395470120E0,8.344093680E-1,6.889912198E0,8.215064617E0
8.315688000E0,4.184610168E0,1.014125880E0,7.242365985E0,8.425632238E0
8.325634000E0,4.084918064E0,1.326786441E0,7.447630152E0,8.597331721E0
8.335580000E0,4.036541710E0,1.805188084E0,7.390108752E0,8.611973082E0
8.345526000E0,4.041989561E0,2.242083852E0,7.171432242E0,8.531943508E0
8.355472000E0,4.041194925E0,2.595114759E0,6.934077972E0,8.434886742E0
8.365418000E0,4.002843037E0,2.813683096E0,6.647945643E0,8.254377397E0
8.375365000E0,3.987267224E0,2.924383752E0,6.303694915E0,8.011672099E0
8.385311000E0,3.987161974E0,2.987759968E0,6.026395390E0,7.819310176E0
8.395257000E0,3.941255484E0,3.047926063E0,5.864567850E0,7.695226062E0
8.405203000E0,4.042328700E0,3.148356670E0,5.864447397E0,7.787445943E0
8.415149000E0,4.291610121E0,3.302830752E0,5.953170708E0,8.047785403E0
8.425095000E0,4.623892769E0,3.440861294E0,6.098338362E0,8.391045320E0
8.435041000E0,4.999343070E0,3.447224234E0,6.296665977E0,8.747844790E0
8.444987000E0,5.449162354E0,3.526947511E0,6.609858634E0,9.264068235E0
8.454933000E0,5.719677939E0,3.694660859E0,6.963269026E0,9.739217120E0
8.464879000E0,5.998891842E0,3.762210233E0,7.113777527E0,1.003726855E1
8.474825000E0,6.402542680E0,3.731338103E0,7.187576990E0,1.032359917E1
8.484771000E0,6.759168456E0,3.639631543E0,7.279943116E0,1.057973760E1
8.494718000E0,7.302094708E0,3.346167390E0,7.403122900E0,1.092353661E1
8.504664000E0,8.157319579E0,2.506456937E0,7.389659101E0,1.128854511E1
8.514610000E0,8.950118991E0,1.538901206E0,7.415692660E0,1.172456159E1
8.524556000E0,9.463596327E0,1.032100806E0,7.853914576E0,1.234134764E1
8.534502000E0,9.706490250E0,1.004553988E0,8.578883947E0,1.299316480E1
8.544448000E0,1.000140977E1,1.208552817E0,9.082808686E0,1.356415169E1
8.554394000E0,1.027457064E1,1.554198107E0,9.111489279E0,1.382033178E1
8.564340000E0,1.031049125E1,1.861031333E0,8.755264038E0,1.365372901E1
8.574286000E0,1.025875509E1,1.753088223E0,7.942054335E0,1.309166152E1
8.584232000E0,1.046981736E1,1.186877189E0,6.916274954E0,1.260399191E1
8.594178000E0,1.066309239E1,4.317589885E-1,6.001614890E0,1.224366516E1
8.604124000E0,1.074730048E1,-2.293289673E-1,5.357918308E0,1.201100945E1
8.614071000E0,1.075567370E1,-8.969289672E-1,4.861081856E0,1.183719202E1
8.624017000E0,1.055088432E1,-1.544108151E0,4.432639993E0,1.154788843E1
8.633963000E0,1.021938462E1,-2.078812634E0,4.050373299E0,1.118761850E1
8.643909000E0,9.944860182E0,-2.453267155E0,3.755443542E0,1.090972593E1
8.653855000E0,9.714164135E0,-2.782032117E0,3.521911012E0,1.070086654E1
8.663801000E0,9.520334199E0,-3.242833641E0,3.182869568E0,1.054909437E1
8.673747000E0,9.199915552E0,-3.659446002E0,2.847523564E0,1.030234836E1
8.683693000E0,8.587033212E0,-3.929545850E0,2.521183734E0,9.774192416E0
8.693639000E0,7.825247431E0,-4.206973429E0,2.117341107E0,9.133250033E0
8.703585000E0,7.089402239E0,-4.456261282E0,1.531024568E0,8.512457045E0
8.713530708E0,6.455347130E0,-4.749670470E0,9.404407302E-1,8.069405487E0
8.723476708E0,5.941088022E0,-5.125428336E0,4.369191563E-1,7.858590259E0
8.733423708E0,5.440752888E0,-5.454838246E0,2.395969704E-2,7.704390070E0
8.743369708E0,5.100189999E0,-5.886794286E0,-2.218047702E-1,7.792014011E0
8.753315708E0,4.718471482E0,-6.351753180E0,-2.454462326E-1,7.916374513E0
8.763261708E0,4.173713881E0,-6.771191500E0,-1.729981343E-1,7.956057457E0
8.773207708E0,3.876178898E0,-7.337918844E0,-1.979551470E-1,8.301144623E0
8.783153708E0,3.574810479E0,-8.080115867E0,-1.960419015E-1,8.837758473E0
8.793099708E0,2.912155470E0,-8.826536919E0,2.359351516E-2,9.294566161E0
8.803045708E0,2.153642961E0,-9.575799133E0,2.508584154E-1,9.818199274E0
8.812991708E0,1.585389494E0,-1.029181291E1,2.966280806E-1,1.041743063E1
8.822937708E0,9.477687532E-1,-1.082799557E1,2.928659821E-1,1.087334006E1
8.832883708E0,2.030211747E-1,-1.109581559E1,1.273768969E-1,1.109840376E1
8.842829708E0,-6.121222025E-1,-1.128336503E1,-7.949293334E-2,1.130023624E1
8.852776708E0,-1.377996356E0,-1.125019728E1,-2.295400884E-1,1.133660009E1
8.862722708E0,-2.027172364E0,-1.108830074E1,-3.135932286E-1,1.127644367E1
8.872668708E0,-2.384798598E0,-1.092495761E1,-4.061709881E-1,1.118959061E1
8.882614708E0,-2.588824909E0,-1.083405094E1,-5.828937256E-1,1.115430138E1
8.892560708E0,-2.916460775E0,-1.075458144E1,-7.618472490E-1,1.116902756E1
8.902506708E0,-3.408226229E0,-1.078876543E1,-8.027263031E-1,1.134274372E1
8.912452708E0,-3.936639107E0,-1.086014239E1,-7.710021615E-1,1.157731681E1
8.922398708E0,-4.359478168E0,-1.090985308E1,-8.069251156E-1,1.177629281E1
8.932344708E0,-4.996991905E0,-1.096367436E1,-9.387997091E-1,1.208525666E1
8.942290708E0,-5.801851199E0,-1.102644422E1,-1.061447981E0,1.250482392E1
8.952236708E0,-6.472188281E0,-1.109555480E1,-1.181187848E0,1.289944814E1
8.962182708E0,-7.026957484E0,-1.104063073E1,-1.369245267E0,1.315859001E1
8.972129708E0,-7.432723260E0,-1.089559757E1,-1.642328510E0,1.329122509E1
8.982075708E0,-7.546088492E0,-1.069026323E1,-1.780314760E0,1.320585855E1
8.992021708E0,-7.627871159E0,-1.036730748E1,-1.866959094E0,1.300580713E1
9.001967708E0,-7.522654606E0,-1.005044102E1,-1.981848987E0,1.270942258E1
9.011913708E0,-7.466640619E0,-9.846525217E0,-2.145670428E0,1.254227581E1
9.021859708E0,-7.726777981E0,-9.714889190E0,-2.234332783E0,1.261247053E1
9.031805708E0,-8.144836943E0,-9.634706322E0,-2.176742825E0,1.280250538E1
9.041751708E0,-8.372666100E0,-9.534903706E0,-2.064660179E0,1.285607825E1
9.051697708E0,-8.436688433E0,-9.444356064E0,-1.972602201E0,1.281658038E1
9.061643708E0,-8.305212620E0,-9.473062384E0,-1.757008781E0,1.272016303E1
9.071589708E0,-7.901697437E0,-9.454030282E0,-1.469674850E0,1.240868467E1
9.081535708E0,-7.326243709E0,-9.349884939E0,-1.141060453E0,1.193298849E1
9.091481708E0,-6.876499270E0,-9.511844627E0,-1.010669737E0,1.178061474E1
9.101428708E0,-6.355572581E0,-9.947479734E0,-1.309121564E0,1.187684534E1
9.111374708E0,-5.663203191E0,-1.033981855E1,-1.771267363E0,1.192145570E1
9.121320708E0,-4.974306462E0,-1.029795833E1,-2.285238788E0,1.166250346E1
9.131266708E0,-4.438460603E0,-9.921397644E0,-2.861881694E0,1.123941416E1
9.141212708E0,-3.581952268E0,-9.373921673E0,-3.131268182E0,1.051216581E1
9.151158708E0,-2.188270757E0,-8.716671245E0,-3.043338338E0,9.488455867E0
9.161104708E0,-1.639565116E-1,-8.026858842E0,-2.836584885E0,8.514902138E0
9.171050708E0,2.189763551E0,-7.442203935E0,-2.721265513E0,8.221116093E0
9.180996708E0,4.032799492E0,-7.088927445E0,-2.891812422E0,8.653261995E0
9.190942708E0,5.037631223E0,-7.208712335E0,-3.313942215E0,9.398163378E0
9.200888708E0,5.515293193E0,-7.439503691E0,-3.974096956E0,1.007760491E1
9.210834708E0,5.934734437E0,-7.576899810E0,-4.783591338E0,1.074770811E1
9.220781708E0,6.721901227E0,-7.694196711E0,-5.452356688E0,1.158070864E1
9.230727708E0,7.660440735E0,-7.367803963E0,-5.948361958E0,1.217989727E1
9.240673708E0,8.776994045E0,-6.636687414E0,-6.272945577E0,1.266613953E1
9.250619708E0,9.892386099E0,-5.921867055E0,-6.378989511E0,1.317646839E1
9.260565708E0,1.055101998E1,-5.148676280E0,-6.269872280E0,1.330955253E1
9.270511708E0,1.096183599E1,-4.454926070E0,-5.529366857E0,1.306070873E1
9.280457708E0,1.195946103E1,-4.139532520E0,-5.352914261E0,1.374111090E1
9.290403708E0,1.171912994E1,-3.420404225E0,-4.317281152E0,1.294898020E1
9.300349708E0,1.092030673E1,-2.546434642E0,-2.337782160E0,1.145437270E1
9.310295708E0,9.919008472E0,-1.837088739E0,-3.199549627E-1,1.009276946E1
9.320241708E0,8.928904123E0,-1.227448387E0,1.381548539E0,9.118148647E0
9.330187708E0,8.035820870E0,-6.302345377E-1,2.809683015E0,8.536154361E0
9.340133708E0,7.260252618E0,1.512733161E-2,4.064287333E0,8.320452418E0
9.350080708E0,6.776059892E0,5.508392894E-1,5.135261014E0,8.519936459E0
9.360026708E0,6.225321760E0,1.137732511E0,5.907144935E0,8.656987210E0
9.369972708E0,5.463509667E0,1.566753248E0,6.356453172E0,8.526966081E0
9.379918708E0,4.797669679E0,1.664482441E0,6.606913392E0,8.333033104E0
9.389864708E0,4.202878039E0,1.834132971E0,6.642207770E0,8.071378546E0
9.399810708E0,3.714306918E0,2.096093495E0,6.415719380E0,7.703969041E0
9.409756708E0,3.161751471E0,2.302249362E0,6.077742130E0,7.227445875E0
9.419702708E0,2.639483432E0,2.579605604E0,5.717930206E0,6.805583274E0
9.429648708E0,2.144595564E0,2.918566942E0,5.464398444E0,6.555682533E0
9.439594708E0,1.702837252E0,3.257702526E0,5.170432016E0,6.343945750E0
9.449540708E0,1.658209548E0,3.491374220E0,4.830010921E0,6.186142445E0
9.459486708E0,1.952567739E0,3.773744450E0,4.501357348E0,6.189982708E0
9.469433708E0,2.261530522E0,4.161392044E0,4.300808376E0,6.397550838E0
9.479379708E0,2.715945717E0,4.453417781E0,4.038405218E0,6.596818004E0
9.489325708E0,3.349285710E0,4.653227665E0,3.619947183E0,6.780432146E0
9.499271708E0,3.672789933E0,4.868229784E0,3.183474170E0,6.879211795E0
9.509217708E0,3.483154789E0,5.083047717E0,2.789204897E0,6.763830670E0
9.519163708E0,3.175474886E0,5.134917782E0,2.501694379E0,6.535250274E0
9.529109708E0,2.608805430E0,5.405393606E0,2.001970865E0,6.327087256E0
9.539055708E0,2.346994595E0,5.578289341E0,1.567080400E0,6.251514743E0
9.549001708E0,2.780985466E0,5.530049227E0,1.494666142E0,6.367837269E0
9.558947708E0,3.506617327E0,5.514705548E0,1.712778688E0,6.755882858E0
9.568893708E0,4.619190438E0,5.630089824E0,1.910521581E0,7.528939131E0
9.578839708E0,6.201061662E0,5.911627411E0,2.087782555E0,8.818125672E0
9.588786708E0,7.428972856E0,6.240791153E0,2.101617652E0,9.927432129E0
9.598732708E0,8.271331514E0,6.447596061E0,2.006614723E0,1.067768339E1
9.608678708E0,8.831038105E0,6.683161084E0,1.903851224E0,1.123728284E1
9.618624708E0,8.934474766E0,6.924628871E0,1.548296366E0,1.140931838E1
9.628570708E0,8.947279583E0,7.027279081E0,1.030233936E0,1.142356534E1
9.638516708E0,8.837529684E0,7.063045329E0,5.543464494E-1,1.132677537E1
9.648462708E0,8.678709952E0,7.092751524E0,2.376589108E-1,1.121087028E1
9.658408708E0,8.892446149E0,6.949234539E0,3.233931255E-1,1.129035174E1
9.668354708E0,9.375369444E0,6.634554350E0,6.418418455E-1,1.150333971E1
9.678300708E0,9.787872967E0,6.055972361E0,9.398682877E-1,1.154818647E1
9.688246708E0,1.002248665E1,4.961689925E0,1.123721559E0,1.123972222E1
9.698192708E0,1.016039206E1,3.499358593E0,1.075875109E0,1.079984188E1
9.708138708E0,9.908048451E0,2.306852290E0,1.271845711E0,1.025224771E1
9.718086500E0,9.257928118E0,1.638079339E0,1.800981013E0,9.572673062E0
9.728032500E0,8.617334653E0,1.153510637E0,2.298840143E0,8.992981113E0
9.737978500E0,8.290947753E0,6.333376551E-1,2.597798339E0,8.711457251E0
9.747924500E0,8.158118309E0,2.014254695E-1,2.640709008E0,8.577226278E0
9.757870500E0,8.039830890E0,-3.331509590E-1,2.287814341E0,8.365641922E0
9.767816500E0,8.263551208E0,-1.070015321E0,1.916911126E0,8.550190619E0
9.777762500E0,8.737903070E0,-2.088422533E0,2.112772093E0,9.229098799E0
9.787708500E0,9.327681892E0,-3.165884868E0,2.900647272E0,1.026850676E1
9.797654500E0,1.017169940E1,-4.078225341E0,4.388165486E0,1.180471885E1
9.807600500E0,1.074482477E1,-4.838537623E0,6.405918278E0,1.341262445E1
9.817546500E0,1.046425899E1,-5.598180984E0,7.884891370E0,1.424822299E1
9.827492500E0,9.403959990E0,-6.547329680E0,8.724439856E0,1.440200820E1
9.837438500E0,7.905826156E0,-7.517450584E0,9.139734839E0,1.423196766E1
9.847385500E0,6.451883240E0,-8.191630456E0,8.891915807E0,1.370385981E1
9.857331500E0,5.480152597E0,-8.762442080E0,7.955754946E0,1.304248828E1
9.867277500E0,4.625448128E0,-9.242351135E0,7.172639108E0,1.258024549E1
9.877223500E0,3.963445083E0,-9.159522402E0,6.775983878E0,1.206315486E1
9.887169500E0,3.657058584E0,-8.842118579E0,6.442817717E0,1.153546872E1
9.897115500E0,3.368088017E0,-8.829809021E0,6.056579887E0,1.122460263E1
9.907061500E0,2.987463514E0,-8.729805261E0,5.880230201E0,1.094127714E1
9.917007500E0,2.467748369E0,-8.467174062E0,5.986592224E0,1.065936701E1
9.926953500E0,1.857734088E0,-8.073469922E0,6.003888288E0,1.023126420E1
9.936899500E0,1.353788883E0,-7.730578086E0,5.791515076E0,9.753780230E0
9.946845500E0,8.937796569E-1,-7.420794940E0,5.331042166E0,9.180797906E0
9.956791500E0,6.573784822E-1,-7.166925209E0,4.814066441E0,8.658648804E0
9.966737500E0,6.298176312E-1,-7.113514987E0,4.178656533E0,8.274051978E0
9.976684500E0,6.248510063E-1,-7.186866553E0,3.431562467E0,7.988561234E0
9.986630500E0,3.716420102E-1,-7.279146726E0,2.715541674E0,7.778062832E0
9.996576500E0,-1.335872430E-1,-7.363474100E0,2.184699862E0,7.681894940E0
1.000652250E1,-7.936186069E-1,-7.517207925E0,1.815403755E0,7.773926696E0
1.001646850E1,-1.462573407E0,-7.702602668E0,1.467618384E0,7.976409753E0
1.002641450E1,-2.022415069E0,-7.971072897E0,1.082934671E0,8.294631598E0
1.003636050E1,-2.551937749E0,-8.169302278E0,8.314343047E-1,8.598905104E0
1.004630650E1,-3.141026015E0,-8.245557572E0,7.356569123E-1,8.854177273E0
1.005625250E1,-3.587462685E0,-8.376060408E0,6.705692160E-1,9.136626267E0
1.006619850E1,-3.932617393E0,-8.506221183E0,5.984169503E-1,9.390387703E0
1.007614450E1,-4.278380796E0,-8.556090331E0,4.888026702E-1,9.578629967E0
1.008609050E1,-4.714132848E0,-8.654942189E0,3.864822435E-1,9.863084778E0
1.009603750E1,-5.140620571E0,-8.793527632E0,3.975136006E-1,1.019363160E1
1.010598350E1,-5.531460160E0,-8.910271386E0,2.913983492E-1,1.049165862E1
1.011592950E1,-5.907638440E0,-9.006886100E0,7.031745513E-2,1.077168203E1
1.012587550E1,-6.102490470E0,-9.033841764E0,-1.603891253E-1,1.090304598E1
1.013582150E1,-6.191175190E0,-9.102899135E0,-2.857709706E-1,1.101249690E1
1.014576750E1,-6.314177218E0,-9.124224515E0,-3.312412584E-1,1.110090211E1
1.015571350E1,-6.308632888E0,-9.053172659E0,-3.294005549E-1,1.103935183E1
1.016565950E1,-6.121694480E0,-8.975937957E0,-3.681839669E-1,1.087097810E1
1.017560550E1,-5.896602990E0,-8.867401940E0,-4.509419489E-1,1.065852207E1
1.018555150E1,-5.974370958E0,-8.847865223E0,-5.026196408E-1,1.068786479E1
1.019549750E1,-6.290202464E0,-8.876068683E0,-4.981652319E-1,1.089033567E1
1.020544350E1,-6.749007164E0,-8.836601146E0,-4.264713148E-1,1.112728607E1
1.021538950E1,-7.103754814E0,-8.890202572E0,-2.802956196E-1,1.138321571E1
1.022533550E1,-7.391111550E0,-8.954537147E0,-4.725838462E-2,1.161096459E1
1.023528250E1,-7.439076260E0,-8.933404140E0,1.324078413E-1,1.162596650E1
1.024522850E1,-7.304505515E0,-8.838335431E0,2.585241151E-1,1.146903696E1
1.025517450E1,-7.075767117E0,-8.723505471E0,3.192053497E-1,1.123689993E1
1.026512050E1,-6.526158081E0,-8.525769010E0,5.121716523E-1,1.074903699E1
1.027506650E1,-5.927639426E0,-8.179390479E0,6.074953008E-1,1.011970298E1
1.028501250E1,-5.238902326E0,-7.892785696E0,4.572651279E-1,9.484263547E0
1.029495850E1,-4.520622754E0,-7.905860070E0,2.446346756E-1,9.110351237E0
1.030490450E1,-3.980073979E0,-8.001618167E0,-2.378183205E-2,8.936858942E0
1.031485050E1,-3.716368647E0,-7.980994452E0,-3.418235858E-1,8.810477384E0
1.032479650E1,-3.480039393E0,-7.830245047E0,-7.910721445E-1,8.605184879E0
1.033474250E1,-3.420921119E0,-7.648636960E0,-1.373989259E0,8.490712287E0
1.034468850E1,-3.057597942E0,-7.310958502E0,-1.921586852E0,8.154232976E0
1.035463450E1,-1.876054584E0,-6.754736851E0,-2.103117024E0,7.319095022E0
1.036458150E1,3.258477867E-2,-6.091736271E0,-2.034640574E0,6.422622115E0
1.037452750E1,2.643150221E0,-5.479490107E0,-1.807817577E0,6.346594308E0
1.038447350E1,5.601872331E0,-4.813308350E0,-1.685192256E0,7.575538517E0
1.039441950E1,8.202312149E0,-4.309711931E0,-1.649499536E0,9.411290573E0
1.040436550E1,9.391292582E0,-4.079370226E0,-1.619614416E0,1.036632957E1
1.041431150E1,9.310854190E0,-3.997844545E0,-1.664764569E0,1.026870040E1
1.042425750E1,8.585167365E0,-4.124732925E0,-1.520231923E0,9.645186649E0
1.043420350E1,7.300997186E0,-4.351540281E0,-1.583146356E0,8.645624044E0
1.044414950E1,6.393447336E0,-4.410955886E0,-2.028089207E0,8.027817044E0
1.045409550E1,6.239135222E0,-4.102466143E0,-2.466419589E0,7.863857982E0
1.046404150E1,6.795552755E0,-3.528440890E0,-2.887446306E0,8.183323196E0
1.047398750E1,7.325474800E0,-2.725336930E0,-3.474349760E0,8.553429059E0
1.048393350E1,7.754036531E0,-1.691318237E0,-3.820717765E0,8.808151006E0
1.049388050E1,7.703544070E0,-6.371003383E-1,-3.995460927E0,8.701390469E0
1.050382650E1,6.826419037E0,2.908030844E-1,-4.229548359E0,8.035772684E0
1.051377250E1,5.872990179E0,6.769409269E-1,-4.272173392E0,7.293951477E0
1.052371850E1,5.089191971E0,9.373484302E-1,-4.088600933E0,6.595085639E0
1.053366450E1,4.656407381E0,1.520000081E0,-3.641496220E0,6.103525593E0
1.054361050E1,4.424841853E0,2.096626176E0,-3.334545465E0,5.924040868E0
1.055355650E1,4.073313096E0,2.370484030E0,-3.099016402E0,5.640476644E0
1.056350250E1,3.579669515E0,2.419715831E0,-2.708789894E0,5.099666777E0
1.057344850E1,3.236252600E0,2.410879519E0,-2.236797092E0,4.613993084E0
1.058339450E1,3.091465600E0,2.473476886E0,-1.777690237E0,4.339980420E0
1.059334050E1,3.125009615E0,2.517652016E0,-1.377349654E0,4.242799646E0
1.060328650E1,3.270437177E0,2.553291965E0,-9.994458604E-1,4.267780596E0
1.061323250E1,3.514808106E0,2.594769773E0,-5.959157673E-1,4.409288129E0
1.062317850E1,3.977279887E0,2.718738931E0,-3.161741531E-1,4.828070295E0
1.063312550E1,4.582704689E0,3.019140805E0,-1.334743917E-2,5.487856742E0
1.064307150E1,5.091961212E0,3.338892285E0,2.105535579E-1,6.092668010E0
1.065301750E1,5.492829360E0,3.546769572E0,3.022916937E-1,6.545389908E0
1.066296350E1,5.867553438E0,3.827851660E0,3.030573866E-1,7.012308854E0
1.067290950E1,6.089673958E0,4.138159887E0,2.672525463E-1,7.367490759E0
1.068285550E1,6.167999750E0,4.267494450E0,3.148868886E-1,7.506988980E0
1.069280150E1,6.104086175E0,4.392400916E0,3.672789641E-1,7.529139903E0
1.070274750E1,6.080280991E0,4.485121969E0,4.191436207E-1,7.567153849E0
1.071269350E1,6.159717169E0,4.473691247E0,5.418097267E-1,7.632141689E0
1.072263963E1,6.248938664E0,4.391712699E0,6.793637207E-1,7.667979520E0
1.073258563E1,6.182693219E0,4.454486652E0,7.931892751E-1,7.661416057E0
1.074253163E1,6.095422356E0,4.575378420E0,9.521629357E-1,7.680812173E0
1.075247763E1,6.190998604E0,4.578024870E0,1.027852511E0,7.768092186E0
1.076242363E1,6.333373627E0,4.391836660E0,1.122794921E0,7.788486322E0
1.077237062E1,6.478777508E0,4.108067191E0,1.112525310E0,7.751676374E0
1.078231663E1,6.676495258E0,3.698881963E0,1.004595065E0,7.698475690E0
1.079226263E1,6.794097968E0,3.217447954E0,1.031157357E0,7.587820770E0
1.080220863E1,6.844417351E0,2.735805784E0,1.077977621E0,7.449343456E0
1.081215463E1,6.897879614E0,2.271679534E0,1.059731531E0,7.339230340E0
1.082210063E1,6.872793889E0,1.862737550E0,1.040011211E0,7.196298378E0
1.083204663E1,6.759775397E0,1.649110696E0,1.125105010E0,7.048403421E0
1.084199263E1,6.681456621E0,1.518001503E0,1.244493020E0,6.963831849E0
1.085193863E1,6.786018285E0,1.409823335E0,1.260432823E0,7.044596291E0
1.086188463E1,7.010209304E0,1.235297982E0,1.288459697E0,7.233887197E0
1.087183062E1,7.259669065E0,1.085037988E0,1.500949560E0,7.492192734E0
1.088177662E1,7.700703492E0,6.741903967E-1,1.652028749E0,7.904717955E0
1.089172263E1,8.165070063E0,-2.351598108E-1,1.642825816E0,8.332019319E0
1.090166863E1,8.172557423E0,-1.290884537E0,1.780622762E0,8.463314666E0
1.091161563E1,7.652014897E0,-1.964787835E0,2.096274759E0,8.173621663E0
1.092156163E1,6.917616305E0,-2.294542732E0,2.490129172E0,7.701888404E0
1.093150763E1,6.305583565E0,-2.310368806E0,2.746433684E0,7.255417706E0
1.094145363E1,6.019184604E0,-1.950836964E0,2.779985007E0,6.911198506E0
1.095139963E1,5.994495320E0,-1.518085703E0,2.469835533E0,6.658727048E0
1.096134562E1,6.404372274E0,-1.319896082E0,1.859267228E0,6.798160377E0
1.097129162E1,6.998204386E0,-1.271073001E0,1.165810840E0,7.207607517E0
1.098123763E1,7.462375660E0,-1.377636752E0,6.156404722E-1,7.613405723E0
1.099118363E1,7.930775641E0,-1.621854485E0,2.373772211E-1,8.098392567E0
1.100112963E1,8.272142522E0,-2.031442586E0,-2.703547865E-2,8.517971109E0
1.101107563E1,8.435097406E0,-2.617991990E0,-2.049823308E-1,8.834408190E0
1.102102163E1,8.412475698E0,-3.265603284E0,-1.846293426E-1,9.025962562E0
1.103096763E1,8.165297520E0,-3.800721749E0,-8.695979118E-3,9.006533463E0
1.104091463E1,7.754824151E0,-4.168569501E0,2.313673067E-1,8.807258377E0
1.105086062E1,7.270844264E0,-4.579112452E0,5.867381237E-1,8.612648187E0
1.106080662E1,6.635683447E0,-4.972552298E0,9.528724954E-1,8.346648259E0
1.107075263E1,5.855798196E0,-5.137827356E0,1.438303953E0,7.921891233E0
1.108069863E1,5.093345833E0,-5.076047430E0,1.940694968E0,7.448135756E0
1.109064463E1,4.400927326E0,-5.014155822E0,2.363793061E0,7.077954335E0
1.110059063E1,3.839275365E0,-4.984092363E0,2.630671678E0,6.819211500E0
1.111053663E1,3.300984201E0,-5.055345948E0,2.881686798E0,6.690077589E0
1.112048263E1,2.696473319E0,-5.185371067E0,3.085600258E0,6.609082418E0
1.113042863E1,2.294758494E0,-5.374846582E0,3.111698428E0,6.620993840E0
1.114037463E1,1.921789166E0,-5.736139605E0,2.981351127E0,6.744258722E0
1.115032063E1,1.310835822E0,-6.245301695E0,2.762464410E0,6.953653244E0
1.116026662E1,6.316290987E-1,-6.804528816E0,2.421520136E0,7.250126033E0
1.117021263E1,1.829734111E-1,-7.202229527E0,1.947261830E0,7.463070284E0
1.118015963E1,-1.462505579E-1,-7.490224779E0,1.386692920E0,7.618908958E0
1.119010563E1,-6.673737127E-1,-7.846701450E0,8.995929587E-1,7.926246199E0
1.120005163E1,-1.251312920E0,-8.221765836E0,4.555097207E-1,8.328907887E0
1.120999763E1,-1.833333072E0,-8.512691712E0,1.581261798E-1,8.709307333E0
1.121994363E1,-2.412835997E0,-8.705395474E0,-1.252509042E-1,9.034454920E0
1.122988963E1,-2.900110790E0,-8.861864042E0,-5.783024919E-1,9.342254046E0
1.123983563E1,-3.165931061E0,-9.023003365E0,-9.569681776E-1,9.610072700E0
1.124978162E1,-3.425002475E0,-9.081004236E0,-1.325257979E0,9.795488176E0
1.125972763E1,-3.863249534E0,-9.049360274E0,-1.671985588E0,9.980538770E0
1.126967363E1,-4.482225258E0,-9.028286324E0,-1.861804919E0,1.025020072E1
1.127961963E1,-5.108193083E0,-9.019264655E0,-2.062057437E0,1.056848392E1
1.128956563E1,-5.646003606E0,-8.992749871E0,-2.312201908E0,1.086706881E1
1.129951163E1,-6.015789126E0,-8.949697992E0,-2.562185580E0,1.108384445E1
1.130945763E1,-6.207958453E0,-8.980254956E0,-2.784997240E0,1.126676248E1
1.131940363E1,-6.352405729E0,-9.032569994E0,-3.005039075E0,1.144424043E1
1.132935063E1,-6.405279762E0,-9.116102732E0,-3.067418341E0,1.155595055E1
1.133929662E1,-6.452567364E0,-9.221830916E0,-3.104103772E0,1.167532660E1
1.134924263E1,-6.423165225E0,-9.583116338E0,-3.418703855E0,1.203248546E1
1.135918863E1,-6.587369658E0,-9.764463054E0,-3.727897017E0,1.235456976E1
1.136913463E1,-6.928400325E0,-9.745956032E0,-3.711482713E0,1.252044304E1
1.137908063E1,-7.284734325E0,-9.578671285E0,-3.751411010E0,1.260521251E1
1.138902663E1,-7.476357522E0,-9.448898181E0,-3.940723388E0,1.267702250E1
1.139897263E1,-7.479155999E0,-9.267696476E0,-4.055897748E0,1.258086956E1
1.140891863E1,-7.429907826E0,-8.951517645E0,-3.982622488E0,1.229611647E1
1.141886463E1,-7.414022695E0,-8.797114314E0,-3.755431556E0,1.210207499E1
1.142881063E1,-7.314963260E0,-8.784800663E0,-3.402543320E0,1.192722563E1
1.143875662E1,-7.209294133E0,-8.729734510E0,-2.938735743E0,1.169693782E1
1.144870262E1,-6.936091168E0,-8.706900548E0,-2.631410181E0,1.143869736E1
1.145864863E1,-6.360307657E0,-8.839420674E0,-2.544907057E0,1.118326532E1
1.146859563E1,-5.834120228E0,-9.056119655E0,-2.676963499E0,1.110028809E1
1.147854163E1,-5.349194262E0,-9.154009062E0,-2.937373341E0,1.100172365E1
1.148848763E1,-4.736805426E0,-9.185661795E0,-3.185303471E0,1.081479849E1
1.149843363E1,-4.125629303E0,-9.009807953E0,-3.279857626E0,1.043814747E1
1.150837963E1,-3.519138554E0,-8.609676554E0,-3.132746358E0,9.814528327E0
1.151832563E1,-2.565893299E0,-8.182311164E0,-2.767964886E0,9.010863111E0
1.152827163E1,-1.248050174E0,-7.928694617E0,-2.264874690E0,8.339753289E0
1.153821762E1,2.595760292E-1,-7.789820321E0,-1.683978812E0,7.973986769E0
1.154816363E1,1.703654108E0,-7.664209265E0,-1.263508604E0,7.952294950E0
1.155810963E1,3.148024548E0,-7.883858167E0,-1.162907113E0,8.568408901E0
1.156805563E1,4.470147250E0,-8.232000217E0,-1.382332651E0,9.468837710E0
1.157800163E1,5.563175458E0,-8.288944497E0,-1.927261575E0,1.016709689E1
1.158794763E1,6.604068137E0,-8.019793067E0,-2.591530416E0,1.070732584E1
1.159789363E1,7.578568021E0,-7.567205127E0,-3.491303469E0,1.126439020E1
1.160783963E1,8.177358572E0,-6.858126733E0,-4.537562138E0,1.159709298E1
1.161778663E1,8.279005399E0,-5.917155368E0,-5.189757063E0,1.142314477E1
1.162773262E1,8.216673496E0,-4.948134910E0,-5.264327774E0,1.094124807E1
1.163767863E1,8.180284519E0,-3.918587583E0,-4.707945324E0,1.021944874E1
1.164762463E1,7.740067533E0,-2.807460196E0,-3.726872585E0,9.037701999E0
1.165757063E1,6.634317538E0,-1.887299949E0,-2.914501373E0,7.488016329E0
1.166751663E1,5.372840402E0,-1.315663868E0,-2.613401049E0,6.117863225E0
1.167746263E1,4.546211924E0,-6.457185495E-1,-2.511984894E0,5.234029367E0
1.168740863E1,4.511232126E0,-9.847880602E-2,-2.251287954E0,5.042738425E0
1.169735463E1,5.251765031E0,2.536440289E-1,-1.675758212E0,5.518472327E0
1.170730063E1,6.448164995E0,7.173200440E-1,-8.727366972E-1,6.546376799E0
1.171724621E1,6.887292645E0,1.177166133E0,1.682033443E-1,6.989192546E0
1.172719221E1,6.679801274E0,1.330088949E0,1.265537150E0,6.927515135E0
1.173713821E1,6.088641924E0,1.245283272E0,2.349253082E0,6.643890498E0
1.174708421E1,5.024929901E0,1.225103361E0,3.470839384E0,6.228765912E0
1.175703021E1,4.017856933E0,9.637433463E-1,4.375590464E0,6.018119929E0
1.176697721E1,3.099886760E0,6.026111215E-1,5.065286799E0,5.969050883E0
1.177692321E1,2.369678868E0,3.504616410E-1,5.591028669E0,6.082581926E0
1.178686921E1,1.963051212E0,2.601835549E-1,6.063594207E0,6.378749113E0
1.179681521E1,1.907217320E0,2.116756386E-1,6.487950035E0,6.765780084E0
1.180676121E1,2.159163902E0,2.757798332E-1,6.822204364E0,7.161041520E0
1.181670721E1,2.665907584E0,4.445158589E-1,7.059674994E0,7.559343134E0
1.182665321E1,3.395645067E0,5.537710834E-1,7.134309440E0,7.920570624E0
1.183659921E1,4.249739379E0,6.517645705E-1,6.976006601E0,8.194495100E0
1.184654521E1,5.158129474E0,9.068440908E-1,6.637987250E0,8.455267033E0
1.185649121E1,5.849636400E0,1.244683347E0,6.136952789E0,8.569111517E0
1.186643721E1,6.333681775E0,1.588054070E0,5.579882122E0,8.589093378E0
1.187638321E1,6.660121300E0,1.883460082E0,5.119070073E0,8.608688404E0
1.188632921E1,7.027238150E0,2.221016334E0,4.778365389E0,8.783380065E0
1.189627521E1,7.353055531E0,2.528809088E0,4.378728372E0,8.923876019E0
1.190622121E1,7.723512896E0,2.654526563E0,4.098446183E0,9.137637760E0
1.191616821E1,8.159454982E0,2.706798917E0,3.924916610E0,9.450314089E0
1.192611421E1,8.618344467E0,2.663048295E0,3.859777458E0,9.811501903E0
1.193606021E1,8.946387298E0,2.500041372E0,3.920014304E0,1.008238884E1
1.194600621E1,9.327262647E0,2.243816382E0,4.016809112E0,1.040035076E1
1.195595221E1,9.669786108E0,2.010340569E0,4.365895488E0,1.079848489E1
1.196589821E1,9.726859025E0,1.965146855E0,4.830964310E0,1.103683853E1
1.197584421E1,9.705541831E0,2.153810776E0,5.171523106E0,1.120629708E1
1.198579021E1,9.860022930E0,2.242639337E0,5.327519803E0,1.142943352E1
1.199573621E1,1.005677823E1,2.130708427E0,5.316239355E0,1.157329286E1
1.200568221E1,1.012709217E1,2.065253525E0,5.081959550E0,1.151735997E1
1.201562821E1,1.026054317E1,2.073036169E0,4.818522604E0,1.152364461E1
1.202557421E1,1.061164625E1,1.936855102E0,4.636606954E0,1.174123366E1
1.203552021E1,1.115064259E1,1.454782577E0,4.280480531E0,1.203227892E1
1.204546621E1,1.153460117E1,9.047519571E-1,3.910095964E0,1.221288053E1
1.205541221E1,1.143905416E1,8.696066827E-1,3.787911084E0,1.208124357E1
1.206535921E1,1.113136198E1,1.273589058E0,3.799684453E0,1.183075866E1
1.207530521E1,1.099512887E1,1.705916396E0,3.505744922E0,1.166590147E1
1.208525121E1,1.096223828E1,2.135033612E0,2.810607168E0,1.151644691E1
1.209519721E1,1.107895222E1,2.603357579E0,1.968810720E0,1.154975621E1
1.210514321E1,1.135680606E1,2.716361454E0,9.791010582E-1,1.171811854E1
1.211508921E1,1.181343150E1,2.181976229E0,-1.702273580E-1,1.201445635E1
1.212503521E1,1.221901893E1,1.147200907E0,-1.187473312E0,1.233006839E1
1.213498121E1,1.236962099E1,1.379919505E-1,-1.872207116E0,1.251126391E1
1.214492721E1,1.222344762E1,-8.060819471E-1,-2.329941775E0,1.246960578E1
1.215487321E1,1.180526762E1,-1.862596048E0,-2.666434710E0,1.224514114E1
1.216481921E1,1.138880085E1,-3.038678107E0,-2.888102948E0,1.213587607E1
1.217476521E1,1.103663826E1,-4.394538658E0,-2.914177437E0,1.223158960E1
1.218471121E1,1.066647793E1,-5.760873327E0,-2.693383065E0,1.241836242E1
1.219465721E1,1.028525701E1,-6.987951293E0,-2.279745183E0,1.264180419E1
1.220460321E1,9.761710185E0,-7.904773657E0,-1.732665799E0,1.267984870E1
1.221455021E1,9.089234192E0,-8.568093495E0,-1.245843873E0,1.255302877E1
1.222449621E1,8.147795634E0,-8.977817252E0,-8.735108685E-1,1.215527859E1
1.223444221E1,7.053517876E0,-9.054239776E0,-6.427353001E-1,1.149541130E1
1.224438821E1,5.962392352E0,-9.178432297E0,-4.469050312E-1,1.095415292E1
1.225433421E1,4.785943673E0,-9.343179937E0,-3.223942749E-1,1.050258093E1
1.226428021E1,3.498576236E0,-9.294722891E0,-3.523052680E-1,9.937606770E0
1.227422621E1,1.920808588E0,-9.094042357E0,-6.095079124E-1,9.314645024E0
1.228417221E1,4.867333406E-1,-9.159632914E0,-1.351458768E0,9.271581595E0
1.229411821E1,1.382574141E-2,-9.561084030E0,-2.423839872E0,9.863544936E0
1.230406421E1,1.911466491E-1,-9.516497841E0,-2.528458840E0,9.848521326E0
1.231401021E1,-1.308753043E-1,-9.188480152E0,-1.495710163E0,9.310340743E0
1.232395621E1,-7.955727464E-1,-9.058892405E0,-7.808952118E-1,9.127226574E0
1.233390221E1,-1.256511680E0,-9.275683188E0,-7.662074447E-1,9.391708793E0
1.234384821E1,-1.613652595E0,-9.518868887E0,-1.255721429E0,9.735993832E0
1.235379421E1,-1.934064226E0,-9.740623371E0,-2.022825544E0,1.013470134E1
1.236374021E1,-2.349787225E0,-9.802102751E0,-2.679908157E0,1.042998687E1
1.237368721E1,-2.605039823E0,-9.850532899E0,-3.362623502E0,1.072970026E1
1.238363321E1,-2.819844307E0,-9.957517065E0,-3.997445765E0,1.109428865E1
1.239357921E1,-3.140826041E0,-1.002765325E1,-4.524868417E0,1.144085015E1
1.240352521E1,-3.596560952E0,-1.007997998E1,-4.921126621E0,1.177958973E1
1.241347121E1,-3.964395255E0,-1.007144421E1,-5.201373142E0,1.200852617E1
1.242341721E1,-4.419647772E0,-1.007049930E1,-5.459777974E0,1.227833125E1
1.243336321E1,-4.817692299E0,-1.006759441E1,-5.630340670E0,1.250069407E1
1.244330921E1,-5.219969042E0,-1.005093920E1,-5.747978463E0,1.270073667E1
1.245325521E1,-5.602782742E0,-9.972455531E0,-5.827383066E0,1.283742331E1
1.246320121E1,-5.911272485E0,-9.862049575E0,-5.812455710E0,1.288362548E1
1.247314721E1,-6.150323033E0,-9.687193269E0,-5.760329536E0,1.283937628E1
1.248309321E1,-6.371559454E0,-9.488450502E0,-5.733550458E0,1.278675344E1
1.249303921E1,-6.671715744E0,-9.350853823E0,-5.769152400E0,1.285431358E1
1.250298521E1,-6.996179495E0,-9.129109279E0,-5.846494106E0,1.290227333E1
1.251293121E1,-7.272812437E0,-8.937384340E0,-6.034991966E0,1.300737359E1
1.252287821E1,-7.501529201E0,-8.835920531E0,-6.239749179E0,1.316362039E1
1.253282421E1,-7.761325085E0,-8.826746249E0,-6.381805530E0,1.337449282E1
1.254277021E1,-7.924655945E0,-8.850464895E0,-6.388024043E0,1.348843030E1
1.255271621E1,-8.003904428E0,-8.935103926E0,-6.239129959E0,1.352129102E1
1.256266221E1,-8.000587887E0,-8.992189708E0,-5.935593978E0,1.342014002E1
1.257260821E1,-8.118060789E0,-8.986004523E0,-5.583205095E0,1.333504283E1
1.258255421E1,-8.367195445E0,-9.177020195E0,-5.357968009E0,1.352536434E1
1.259250021E1,-8.383616180E0,-9.552033709E0,-5.244930221E0,1.374902401E1
1.260244621E1,-8.279452711E0,-9.868863920E0,-5.159755000E0,1.387684705E1
1.261239221E1,-7.984965881E0,-9.888011212E0,-5.124288129E0,1.370367741E1
1.262233821E1,-7.544605638E0,-9.664345858E0,-4.935632978E0,1.321669883E1
1.263228421E1,-7.251844321E0,-9.317995394E0,-4.660103113E0,1.269373252E1
1.264223021E1,-6.790696058E0,-8.928388984E0,-4.331187585E0,1.202451116E1
1.265217621E1,-5.815455331E0,-8.655687709E0,-3.909627895E0,1.113667997E1
1.266212221E1,-4.204660855E0,-8.507893487E0,-3.367947684E0,1.007007925E1
1.267206821E1,-2.299556719E0,-8.562494202E0,-2.909507266E0,9.331103932E0
1.268201521E1,-1.741066933E-1,-8.831880105E0,-2.806551831E0,9.268719033E0
1.269196121E1,1.649175015E0,-9.445855874E0,-3.015689194E0,1.005178356E1
1.270190721E1,2.964447119E0,-1.030456335E1,-3.373946342E0,1.124079563E1
1.271185321E1,3.565526855E0,-1.090793285E1,-3.778506423E0,1.208193245E1
1.272179871E1,3.858319747E0,-1.114951875E1,-4.422796497E0,1.259998129E1
1.273174471E1,4.554755875E0,-1.111411854E1,-5.016960146E0,1.301688600E1
1.274169071E1,5.746017306E0,-1.065128219E1,-5.363308271E0,1.323750742E1
1.275163671E1,7.277022432E0,-9.722495833E0,-5.320442333E0,1.325854771E1
1.276158271E1,8.729125814E0,-8.585108893E0,-4.943158929E0,1.320365678E1
1.277152871E1,9.777489481E0,-7.468716381E0,-4.335987564E0,1.304537516E1
1.278147471E1,1.039547235E1,-6.248957375E0,-3.440508707E0,1.260763315E1
1.279142071E1,1.050847330E1,-4.847187117E0,-2.474066870E0,1.183402894E1
1.280136671E1,9.992350098E0,-3.530985013E0,-1.622637427E0,1.072137435E1
1.281131271E1,9.115734943E0,-2.797060339E0,-9.057313657E-1,9.578127134E0
1.282125871E1,8.357938718E0,-2.377923150E0,-8.769390911E-2,8.690071826E0
1.283120471E1,7.894320005E0,-1.941639293E0,8.012359209E-1,8.168979771E0
1.284115171E1,7.321278838E0,-1.456449618E0,1.636254569E0,7.641969532E0
1.285109771E1,6.816502744E0,-9.984167504E-1,2.221603687E0,7.238581947E0
1.286104371E1,6.640498044E0,-7.005531532E-1,2.608173638E0,7.168651109E0
1.287098971E1,6.650236582E0,-5.500569320E-1,2.989980741E0,7.312194886E0
1.288093571E1,6.562431868E0,-1.983042258E-1,3.388783360E0,7.388415882E0
1.289088171E1,6.532011144E0,8.335673690E-2,3.736793263E0,7.525805062E0
1.290082771E1,6.322635800E0,2.455204922E-1,3.910425747E0,7.438241277E0
1.291077371E1,5.826750398E0,4.802680743E-1,3.953325014E0,7.057652321E0
1.292071971E1,5.284559725E0,7.455188262E-1,3.805079094E0,6.554463877E0
1.293066571E1,4.868789363E0,1.086318528E0,3.579354058E0,6.139786094E0
1.294061171E1,4.579046379E0,1.553290034E0,3.455771109E0,5.943292827E0
1.295055771E1,4.400440838E0,2.096145535E0,3.356230448E0,5.917937858E0
1.296050371E1,4.492488876E0,2.618238743E0,3.196581873E0,6.103750166E0
1.297044971E1,4.781893891E0,3.133983629E0,3.001229906E0,6.457224134E0
1.298039571E1,5.076434516E0,3.676209970E0,2.758607294E0,6.847964759E0
1.299034271E1,5.262528001E0,4.167905842E0,2.550125113E0,7.181140450E0
1.300028871E1,5.450448157E0,4.658908820E0,2.432871189E0,7.571768533E0
1.301023471E1,5.720936844E0,5.098273281E0,2.360815659E0,8.018413771E0
1.302018071E1,5.963370591E0,5.650416500E0,2.409022151E0,8.561097077E0
1.303012671E1,6.180263700E0,6.243128285E0,2.510179566E0,9.136373003E0
1.304007271E1,6.553018436E0,6.621948922E0,2.535602091E0,9.655130041E0
1.305001871E1,7.187240775E0,6.723562421E0,2.500493946E0,1.015456506E1
1.305996471E1,7.776949430E0,6.592922174E0,2.404509855E0,1.047517221E1
1.306991071E1,8.174365967E0,6.387755656E0,2.326783694E0,1.063191439E1
1.307985671E1,8.137474129E0,6.219792632E0,2.249561856E0,1.048641188E1
1.308980271E1,7.986435871E0,6.041067808E0,2.273433991E0,1.026869808E1
1.309974871E1,8.008647105E0,5.928786065E0,2.414450998E0,1.025273165E1
1.310969471E1,8.399340513E0,5.935311558E0,2.637092505E0,1.061749034E1
1.311964071E1,8.993302433E0,6.059182482E0,3.020867780E0,1.125694555E1
1.312958671E1,9.797078823E0,6.161174296E0,3.439507956E0,1.207365053E1
1.313953271E1,1.059253053E1,6.122745810E0,3.921498327E0,1.284787408E1
1.314947871E1,1.102876323E1,6.090059289E0,4.481509559E0,1.337184985E1
1.315942571E1,1.119929844E1,5.926903846E0,4.960576615E0,1.360734342E1
1.316937171E1,1.134661436E1,5.310686839E0,5.124957050E0,1.353566537E1
1.317931771E1,1.145760270E1,4.329794778E0,5.148326617E0,1.328642350E1
1.318926371E1,1.107981176E1,3.719307457E0,5.212241946E0,1.279698959E1
1.319920971E1,1.030494342E1,3.655786230E0,5.185997304E0,1.210170235E1
1.320915571E1,9.554806459E0,3.680279632E0,4.736664509E0,1.128161227E1
1.321910171E1,9.162477000E0,3.589853611E0,3.967828156E0,1.061045211E1
1.322904771E1,9.073972959E0,3.405041251E0,3.201364603E0,1.020686174E1
1.323899371E1,9.303659776E0,2.999736235E0,2.483468024E0,1.008583740E1
1.324893971E1,9.662861250E0,2.272525626E0,1.749316185E0,1.007945273E1
1.325888571E1,1.016337297E1,1.359190541E0,1.229517716E0,1.032730666E1
1.326883171E1,1.077056889E1,3.254840899E-1,9.192352179E-1,1.081462378E1
1.327877771E1,1.122182425E1,-7.704618788E-1,6.378929284E-1,1.126631521E1
1.328872371E1,1.124799405E1,-1.716082950E0,5.758174253E-1,1.139271155E1
1.329867071E1,1.100618596E1,-2.379732571E0,7.378135116E-1,1.128466327E1
1.330861671E1,1.066366893E1,-2.883249174E0,1.014118863E0,1.109303375E1
1.331856271E1,1.021359470E1,-3.473460106E0,1.228399583E0,1.085778096E1
1.332850871E1,9.594175762E0,-4.168805729E0,1.200888433E0,1.052944836E1
1.333845471E1,8.913859237E0,-4.908658603E0,1.050286377E0,1.023009859E1
1.334840071E1,8.109532040E0,-5.563340934E0,1.004597111E0,9.885569665E0
1.335834671E1,7.267721851E0,-6.153615600E0,9.701934099E-1,9.572253711E0
1.336829271E1,6.364060984E0,-6.597770101E0,9.434763122E-1,9.215312803E0
1.337823871E1,5.519118442E0,-6.829499935E0,9.410707676E-1,8.831101399E0
1.338818471E1,4.867529288E0,-7.016303272E0,8.227838608E-1,8.578946687E0
1.339813071E1,4.306237516E0,-7.185946201E0,6.069538486E-1,8.399398629E0
1.340807671E1,3.732473048E0,-7.334771288E0,2.883414066E-1,8.234887107E0
1.341802271E1,3.280979122E0,-7.461472850E0,-2.499571402E-2,8.151013794E0
1.342796871E1,2.990202935E0,-7.634976110E0,-3.954623973E-1,8.209175617E0
1.343791471E1,2.608334729E0,-7.982432867E0,-6.585765767E-1,8.423560271E0
1.344786171E1,2.069819031E0,-8.409322295E0,-7.602555639E-1,8.693609193E0
1.345780771E1,1.410391100E0,-8.717119727E0,-7.751244485E-1,8.864434403E0
1.346775371E1,8.497711730E-1,-8.970641549E0,-8.563446128E-1,9.051400275E0
1.347769971E1,2.493469101E-1,-9.235085970E0,-8.866589177E-1,9.280902477E0
1.348764571E1,-3.051387030E-1,-9.497100872E0,-8.986509722E-1,9.544401929E0
1.349759171E1,-9.193132782E-1,-9.716607102E0,-9.841150457E-1,9.809488922E0
1.350753771E1,-1.465722132E0,-9.944326916E0,-1.033337492E0,1.010473976E1
1.351748371E1,-1.970311115E0,-1.016229591E1,-1.140683600E0,1.041419911E1
1.352742971E1,-2.455536459E0,-1.030949723E1,-1.360836532E0,1.068490844E1
1.353737571E1,-3.057703777E0,-1.042274610E1,-1.605561218E0,1.098002803E1
1.354732171E1,-3.695780016E0,-1.049896923E1,-1.843790817E0,1.128214117E1
1.355726771E1,-4.311808158E0,-1.049202625E1,-2.002989450E0,1.151895269E1
1.356721371E1,-4.953438334E0,-1.036475108E1,-2.130271055E0,1.168343575E1
1.357715971E1,-5.445769799E0,-1.017455752E1,-2.280348616E0,1.176341869E1
1.358710671E1,-5.894937118E0,-1.004425583E1,-2.370233769E0,1.188509011E1
1.359705271E1,-6.214831855E0,-1.001695167E1,-2.368697121E0,1.202390044E1
1.360699871E1,-6.413282846E0,-1.002597744E1,-2.404208431E0,1.214210190E1
1.361694471E1,-6.630209869E0,-1.005792545E1,-2.580307270E0,1.231988364E1
1.362689071E1,-6.934830508E0,-1.022170362E1,-2.741996816E0,1.265281177E1
1.363683671E1,-7.243786274E0,-1.042154859E1,-2.952397177E0,1.303064709E1
1.364678271E1,-7.554909602E0,-1.052888710E1,-3.162878230E0,1.333933736E1
1.365672871E1,-7.845702161E0,-1.052268905E1,-3.377196810E0,1.355313563E1
1.366667471E1,-8.073064710E0,-1.050931179E1,-3.652248664E0,1.374623324E1
1.367662071E1,-8.357908897E0,-1.045236693E1,-3.867061334E0,1.393056994E1
1.368656671E1,-8.545263627E0,-1.026893392E1,-3.939593706E0,1.392813458E1
1.369651271E1,-8.478298389E0,-1.003762041E1,-3.772621785E0,1.366996863E1
1.370645871E1,-8.255942811E0,-9.916235722E0,-3.423265268E0,1.334957182E1
1.371640450E1,-7.960537384E0,-9.898018137E0,-2.989155114E0,1.304898336E1
1.372635150E1,-7.627760062E0,-9.853319682E0,-2.497104900E0,1.270850759E1
1.373629750E1,-7.059581439E0,-9.710182182E0,-1.950210873E0,1.216259226E1
1.374624350E1,-6.188786017E0,-9.563780766E0,-1.581623302E0,1.150080463E1
1.375618950E1,-5.368344478E0,-9.596542715E0,-1.345124479E0,1.107800137E1
1.376613550E1,-4.516166591E0,-9.623815298E0,-1.266114416E0,1.070591553E1
1.377608150E1,-3.423963425E0,-9.731348518E0,-1.463668590E0,1.041945273E1
1.378602750E1,-2.076531050E0,-9.967761387E0,-1.720905733E0,1.032616893E1
1.379597350E1,-6.299211270E-1,-9.964954723E0,-1.831932079E0,1.015150720E1
1.380591950E1,8.646494132E-1,-9.705398574E0,-2.055331970E0,9.958251333E0
1.381586550E1,2.638243822E0,-9.593902112E0,-2.540135145E0,1.026915648E1
1.382581150E1,4.491401879E0,-9.490250275E0,-3.468932607E0,1.105762337E1
1.383575750E1,6.209989775E0,-9.284287950E0,-4.928250868E0,1.220858847E1
1.384570350E1,7.425956862E0,-8.953760052E0,-6.608498572E0,1.337859887E1
1.385564950E1,8.353785440E0,-8.554464220E0,-8.021749545E0,1.439836987E1
1.386559650E1,8.838134871E0,-7.970363045E0,-8.916914992E0,1.487113607E1
1.387554250E1,9.393759522E0,-7.208981892E0,-9.034196105E0,1.489391947E1
1.388548850E1,9.756845886E0,-6.508836874E0,-8.253926107E0,1.434183724E1
1.389543450E1,9.880763004E0,-5.995467128E0,-6.643317572E0,1.333074536E1
1.390538050E1,9.994184954E0,-5.663016665E0,-4.859093510E0,1.247254106E1
1.391532650E1,1.009501200E1,-5.147730786E0,-3.041323972E0,1.173277678E1
1.392527250E1,9.626373455E0,-4.382746578E0,-1.474000036E0,1.067933563E1
1.393521850E1,8.812224104E0,-3.566699806E0,-3.335462308E-1,9.512512511E0
1.394516450E1,7.804244817E0,-2.779416950E0,4.231185579E-1,8.295204944E0
1.395511050E1,6.754514657E0,-2.175189658E0,1.004358691E0,7.166844122E0
1.396505650E1,5.686896694E0,-1.540275594E0,1.546408446E0,6.091356334E0
1.397500250E1,4.776246065E0,-9.186940581E-1,2.039912277E0,5.274255146E0
1.398494850E1,4.098410515E0,-4.347358060E-1,2.502196655E0,4.821509314E0
1.399489550E1,3.715379882E0,-1.306618810E-2,2.894681650E0,4.709925716E0
1.400484150E1,3.464217412E0,4.276074654E-1,3.343561871E0,4.833534567E0
1.401478750E1,3.156620539E0,8.307642138E-1,3.823618276E0,5.027372985E0
1.402473350E1,2.836074423E0,1.111928163E0,4.190719046E0,5.180910007E0
1.403467950E1,2.648253670E0,1.269577868E0,4.521368566E0,5.391460765E0
1.404462550E1,2.409715923E0,1.391966524E0,4.922846872E0,5.654973294E0
1.405457150E1,2.054277717E0,1.602304904E0,5.348284435E0,5.949082647E0
1.406451750E1,1.765384333E0,1.805916063E0,5.692477276E0,6.227536609E0
1.407446350E1,1.439696175E0,1.973915339E0,5.849685516E0,6.339391728E0
1.408440950E1,1.228459078E0,2.112807176E0,6.030472069E0,6.506893210E0
1.409435550E1,1.243061330E0,2.180997405E0,5.986164207E0,6.491233555E0
1.410430150E1,1.450253323E0,2.333344855E0,5.918638222E0,6.525182857E0
1.411424750E1,1.622726305E0,2.587615120E0,5.980149761E0,6.714996935E0
1.412419450E1,1.879186937E0,2.728982669E0,6.118359228E0,6.957945789E0
1.413414050E1,2.159800664E0,2.807554044E0,6.201755726E0,7.142049615E0
1.414408650E1,2.385846419E0,2.851330978E0,6.134554846E0,7.173222055E0
1.415403250E1,2.666894594E0,2.727546008E0,5.974543451E0,7.088512076E0
1.416397850E1,2.869705853E0,2.713179399E0,5.843327839E0,7.052732404E0
1.417392450E1,3.075139589E0,2.842557816E0,5.699781618E0,7.072773779E0
1.418387050E1,3.415916487E0,2.936824872E0,5.529627643E0,7.132335357E0
1.419381650E1,3.804622427E0,3.031250973E0,5.558156208E0,7.386253090E0
1.420376250E1,4.305420660E0,3.101582453E0,5.712377105E0,7.796647546E0
1.421370850E1,4.701087125E0,3.040634585E0,5.789937497E0,8.054132794E0
1.422365450E1,4.976369945E0,2.932033664E0,5.949249566E0,8.291842354E0
1.423360050E1,5.108635132E0,2.851183044E0,6.250612721E0,8.561399246E0
1.424354650E1,5.135091444E0,2.871432536E0,6.679763267E0,8.901321602E0
1.425349250E1,5.225786437E0,2.987806746E0,7.065342700E0,9.281966414E0
1.426343950E1,5.540214611E0,3.061165329E0,7.310055692E0,9.669623846E0
1.427338550E1,6.073334498E0,3.068515279E0,7.509291379E0,1.013363878E1
1.428333150E1,6.578028731E0,3.076027781E0,7.700672502E0,1.058455317E1
1.429327750E1,7.191644313E0,2.964034306E0,7.704599492E0,1.094833780E1
1.430322350E1,7.942118654E0,2.443353201E0,7.592244074E0,1.125563831E1
1.431316950E1,8.806587389E0,1.537987286E0,7.493520269E0,1.166508604E1
1.432311550E1,9.621203347E0,9.311825413E-1,7.641678774E0,1.232192798E1
1.433306150E1,1.007608340E1,9.180555421E-1,8.027728323E0,1.291567670E1
1.434300750E1,1.047687261E1,1.168832096E0,8.588220196E0,1.359737306E1
1.435295350E1,1.079103649E1,1.632009929E0,8.980550240E0,1.413365514E1
1.436289950E1,1.093884942E1,2.319205118E0,8.971495242E0,1.433613846E1
1.437284550E1,1.092958977E1,2.781481894E0,8.424877058E0,1.407732672E1
1.438279150E1,1.080452017E1,2.749996977E0,7.469130948E0,1.341968914E1
1.439273850E1,1.093031249E1,2.256550448E0,6.228293315E0,1.278105585E1
1.440268450E1,1.127167527E1,1.424319168E0,5.042074522E0,1.242987788E1
1.441263050E1,1.156720759E1,4.418670702E-1,4.032146358E0,1.225780332E1
1.442257650E1,1.173126175E1,-5.598773307E-1,3.220201116E0,1.217808113E1
1.443252250E1,1.160499697E1,-1.603046331E0,2.636740210E0,1.200825180E1
1.444246850E1,1.123472321E1,-2.525438168E0,2.267348209E0,1.173617107E1
1.445241450E1,1.073716609E1,-3.302542484E0,2.082562746E0,1.142499847E1
1.446236050E1,1.019994730E1,-3.967020071E0,2.028706673E0,1.113067042E1
1.447230650E1,9.688691325E0,-4.553885225E0,1.928460546E0,1.087784769E1
1.448225250E1,9.177007331E0,-5.057177880E0,1.656025321E0,1.060824828E1
1.449219850E1,8.614660136E0,-5.359515767E0,1.238690536E0,1.022111211E1
1.450214450E1,7.907955127E0,-5.487548740E0,5.559355764E-1,9.641473427E0
1.451209050E1,7.103061334E0,-5.431217249E0,-2.372098446E-1,8.944711825E0
1.452203750E1,6.132830502E0,-5.346742525E0,-7.772388017E-1,8.173332597E0
1.453198350E1,5.017171816E0,-5.300332589E0,-1.142964599E0,7.387280058E0
1.454192950E1,3.986930425E0,-5.342581646E0,-1.413255651E0,6.814402717E0
1.455187550E1,3.310856640E0,-5.518948873E0,-1.582981610E0,6.627699384E0
1.456182150E1,2.830796726E0,-5.687903000E0,-1.664757260E0,6.567881498E0
1.457176750E1,2.620084124E0,-5.877051070E0,-1.695413042E0,6.654246425E0
1.458171350E1,2.353149374E0,-6.339080510E0,-1.604150870E0,6.949428300E0
1.459165950E1,1.785972964E0,-6.855695461E0,-1.446315224E0,7.230635339E0
1.460160550E1,1.033363219E0,-7.316606913E0,-1.331967659E0,7.508309670E0
1.461155150E1,4.174648851E-1,-7.737128137E0,-1.391213987E0,7.872287158E0
1.462149750E1,-1.275499928E-1,-8.103429886E0,-1.599052098E0,8.260678696E0
1.463144350E1,-4.344276577E-1,-8.389372180E0,-1.773154113E0,8.585707220E0
1.464138950E1,-7.613320363E-1,-8.680703267E0,-1.856935358E0,8.909682632E0
1.465133650E1,-1.196538543E0,-9.005872192E0,-1.877670169E0,9.277019117E0
1.466128250E1,-1.613780065E0,-9.344420131E0,-1.930607352E0,9.677278462E0
1.467122850E1,-1.910131572E0,-9.538748835E0,-1.993041435E0,9.930183590E0
1.468117450E1,-2.174133359E0,-9.673509030E0,-2.099514116E0,1.013467278E1
1.469112050E1,-2.561195646E0,-9.813946871E0,-2.188122237E0,1.037598936E1
1.470106650E1,-2.968589287E0,-9.867060639E0,-2.208372168E0,1.053794646E1
1.471101250E1,-3.392589605E0,-9.882977929E0,-2.285418736E0,1.069607665E1
1.472095971E1,-3.686697536E0,-9.975685533E0,-2.488025343E0,1.092228505E1
1.473090571E1,-3.903258523E0,-1.009191415E1,-2.682176292E0,1.114792483E1
1.474085171E1,-4.273483753E0,-1.032585774E1,-2.830225453E0,1.152806044E1
1.475079771E1,-4.668653789E0,-1.052684993E1,-3.047310351E0,1.191205264E1
1.476074371E1,-4.826314019E0,-1.067338349E1,-3.155069858E0,1.213131848E1
1.477068971E1,-4.843790177E0,-1.075519656E1,-3.283388175E0,1.224406772E1
1.478063671E1,-5.014877368E0,-1.064358374E1,-3.413494570E0,1.225099241E1
1.479058271E1,-5.132476569E0,-1.053711530E1,-3.443642229E0,1.221604627E1
1.480052871E1,-5.211395270E0,-1.038553559E1,-3.491663073E0,1.213300050E1
1.481047471E1,-5.378139149E0,-1.021953548E1,-3.427971107E0,1.204633853E1
1.482042071E1,-5.449765787E0,-1.002390869E1,-3.259792905E0,1.186612584E1
1.483036671E1,-5.506898346E0,-9.839019731E0,-3.014391112E0,1.167128067E1
1.484031271E1,-5.612948712E0,-9.680228650E0,-2.734920516E0,1.151919312E1
1.485025871E1,-5.781603461E0,-9.724630651E0,-2.364203097E0,1.155789065E1
1.486020471E1,-5.961549184E0,-9.708411645E0,-1.975907485E0,1.156276506E1
1.487015071E1,-5.936964566E0,-9.533900909E0,-1.694775111E0,1.135848042E1
1.488009671E1,-5.713658230E0,-9.353276324E0,-1.583320164E0,1.107413975E1
1.489004271E1,-5.249743649E0,-9.234515866E0,-1.714252186E0,1.075986767E1
1.489998871E1,-4.565602461E0,-9.102302134E0,-2.013126183E0,1.038023637E1
1.490993471E1,-3.773607041E0,-8.845923947E0,-2.354095454E0,9.901123471E0
1.491988171E1,-2.909116672E0,-8.629382840E0,-2.684534474E0,9.493994594E0
1.492982771E1,-1.744151339E0,-8.495864010E0,-3.165890130E0,9.232801822E0
1.493977371E1,-2.940991598E-1,-8.387101121E0,-3.506116220E0,9.095208105E0
1.494971971E1,1.088405984E0,-8.358281364E0,-3.749715902E0,9.225283969E0
1.495966571E1,2.394638878E0,-8.688312249E0,-3.960254842E0,9.844017651E0
1.496961171E1,3.694031113E0,-9.173307213E0,-4.153462635E0,1.072598168E1
1.497955771E1,4.748700417E0,-9.553646371E0,-4.354710349E0,1.152327284E1
1.498950371E1,5.870367703E0,-9.639365383E0,-4.640282514E0,1.220290145E1
1.499944971E1,6.885592859E0,-9.338240209E0,-5.060203815E0,1.265779530E1
1.500939571E1,7.757264194E0,-8.737749288E0,-5.388674662E0,1.286705969E1
1.501934171E1,8.373305785E0,-7.966474062E0,-5.633052024E0,1.285722497E1
1.502928771E1,8.485632552E0,-7.122321478E0,-5.611119118E0,1.241845726E1
1.503923371E1,7.996473202E0,-6.557827771E0,-5.218197920E0,1.158353479E1
1.504918071E1,7.270554827E0,-6.240168425E0,-4.367615154E0,1.052980207E1
1.505912671E1,6.723073009E0,-5.771681321E0,-3.086444596E0,9.382865031E0
1.506907271E1,6.401374406E0,-4.903055216E0,-1.565773401E0,8.213963178E0
1.507901871E1,5.907042024E0,-3.796488073E0,-8.391353801E-2,7.022357769E0
1.508896471E1,4.836396958E0,-2.715672067E0,5.750700049E-1,5.576407071E0
1.509891071E1,4.051569639E0,-2.304181574E0,5.907582307E-1,4.698240581E0
1.510885671E1,3.528509302E0,-2.106651520E0,9.602483194E-1,4.220241149E0
1.511880271E1,3.189967210E0,-1.462742099E0,1.426805989E0,3.788308406E0
1.512874871E1,3.191114434E0,-7.722862101E-1,1.737632424E0,3.714701033E0
1.513869471E1,3.150683861E0,-3.738677529E-1,1.801408006E0,3.648514313E0
1.514864071E1,2.901122358E0,-6.031929195E-2,1.855128568E0,3.444074819E0
1.515858671E1,2.616586905E0,2.696209610E-1,1.962399248E0,3.281803361E0
1.516853271E1,2.583595744E0,5.672322509E-1,2.067633488E0,3.357354262E0
1.517847971E1,2.754863030E0,9.873567420E-1,2.164852219E0,3.640155049E0
1.518842571E1,2.949825572E0,1.438424406E0,2.209798158E0,3.956481211E0
1.519837171E1,3.098890395E0,1.841716225E0,2.141562029E0,4.193009451E0
1.520831771E1,3.205343049E0,2.100519837E0,2.229259154E0,4.433509222E0
1.521826371E1,3.305889430E0,2.399998435E0,2.339409879E0,4.707625303E0
1.522820971E1,3.585400372E0,2.747454023E0,2.555602492E0,5.189865463E0
1.523815571E1,4.142042438E0,3.308335320E0,2.803332939E0,5.996688563E0
1.524810171E1,4.659451441E0,3.887058812E0,3.032395273E0,6.783445661E0
1.525804771E1,4.943978709E0,4.380736890E0,3.321612593E0,7.393706202E0
1.526799371E1,5.451179059E0,4.846979249E0,3.560009130E0,8.116786678E0
1.527793971E1,6.061902607E0,5.236800252E0,3.657425205E0,8.806105792E0
1.528788571E1,6.682140160E0,5.610278873E0,3.721109861E0,9.485403774E0
1.529783171E1,7.093754321E0,5.909809511E0,3.870393662E0,1.001135085E1
1.530777871E1,7.310810568E0,6.055587029E0,4.193960743E0,1.037821719E1
1.531772471E1,7.195115220E0,5.916021008E0,4.652695568E0,1.041232748E1
1.532767071E1,7.041184344E0,5.513132647E0,5.081840267E0,1.028581592E1
1.533761671E1,7.095383940E0,5.075535214E0,5.553933349E0,1.034174582E1
1.534756271E1,7.321456009E0,4.598927497E0,6.104748080E0,1.058403521E1
1.535750871E1,7.688249508E0,4.265387113E0,6.629950252E0,1.101176408E1
1.536745471E1,8.085419292E0,4.148004259E0,6.980637011E0,1.145902428E1
1.537740071E1,8.592116781E0,3.995616463E0,7.197136018E0,1.189908352E1
1.538734671E1,8.955033576E0,3.940729235E0,7.329462016E0,1.222468759E1
1.539729271E1,9.463834893E0,4.266085271E0,7.469225088E0,1.278878328E1
1.540723871E1,1.001352404E1,4.788247476E0,7.629266304E0,1.346861841E1
1.541718471E1,1.043438908E1,5.304847224E0,7.533895293E0,1.392039718E1
1.542713071E1,1.086806654E1,5.610091177E0,7.353055531E0,1.427078901E1
1.543707771E1,1.120061523E1,5.839742326E0,7.133570352E0,1.450669494E1
1.544702371E1,1.176963585E1,5.646914603E0,6.790384986E0,1.471466279E1
1.545696971E1,1.237254811E1,5.239525639E0,6.442438817E0,1.490092593E1
1.546691571E1,1.263224050E1,5.519148847E0,6.184986497E0,1.510922109E1
1.547686171E1,1.264514647E1,6.310457219E0,5.754122132E0,1.525881781E1
1.548680771E1,1.274954266E1,7.061106393E0,4.670771066E0,1.530444915E1
1.549675371E1,1.194679012E1,7.032350371E0,2.205787553E0,1.403728053E1
1.550669971E1,1.042294374E1,6.083625013E0,-8.327905664E-1,1.209718106E1
1.551664571E1,9.280260973E0,5.062323430E0,-2.895507277E0,1.096058049E1
1.552659171E1,8.663144664E0,4.182687019E0,-3.474871916E0,1.022837626E1
1.553653771E1,8.670160153E0,3.368584446E0,-2.676145766E0,9.678883944E0
1.554648371E1,9.164162167E0,2.548152262E0,-1.053768833E0,9.570024918E0
1.555642971E1,9.889736141E0,1.615309696E0,9.392414662E-1,1.006470471E1
1.556637671E1,1.061260987E1,3.398015821E-1,2.680686421E0,1.095121149E1
1.557632271E1,1.129094068E1,-1.444155262E0,3.621662172E0,1.194518157E1
1.558626871E1,1.173182659E1,-3.132908326E0,4.334135166E0,1.289323843E1
1.559621471E1,1.186473029E1,-4.479347259E0,5.134617820E0,1.368212984E1
1.560616071E1,1.181688720E1,-5.851116915E0,5.522386451E0,1.429584361E1
1.561610671E1,1.170526970E1,-7.127564676E0,5.504385213E0,1.476867542E1
1.562605271E1,1.102960055E1,-7.738441422E0,5.133589879E0,1.441836707E1
1.563599871E1,1.011895986E1,-8.052652080E0,4.357821068E0,1.364658047E1
1.564594471E1,9.399476929E0,-8.290095813E0,3.300244528E0,1.296022643E1
1.565589071E1,8.852908446E0,-8.439569356E0,2.239382000E0,1.243443407E1
1.566583671E1,8.185420128E0,-8.631432874E0,1.439950529E0,1.198232839E1
1.567578371E1,7.461155346E0,-8.894276912E0,7.387758172E-1,1.163283244E1
1.568572971E1,7.030968674E0,-9.172495619E0,-1.788452768E-1,1.155859775E1
1.569567571E1,6.924927664E0,-9.475235209E0,-1.164389382E0,1.179366389E1
1.570562171E1,6.506844143E0,-9.909532474E0,-2.000354109E0,1.202244863E1
1.571556771E1,5.728566291E0,-1.033510569E1,-2.476091761E0,1.207318980E1
1.572551296E1,5.071751481E0,-1.072125231E1,-2.762367346E0,1.217779075E1
1.573545896E1,4.582093948E0,-1.103853743E1,-2.927986221E0,1.230520202E1
1.574540496E1,3.949555607E0,-1.133266290E1,-3.014108106E0,1.237388725E1
1.575535096E1,3.300681315E0,-1.166644887E1,-3.046658387E0,1.250130608E1
1.576529696E1,2.634372965E0,-1.200740820E1,-2.954496912E0,1.264305440E1
1.577524296E1,2.176932421E0,-1.229297452E1,-2.722432618E0,1.277763267E1
1.578518896E1,1.982735279E0,-1.236487422E1,-2.347542479E0,1.274096972E1
1.579513496E1,2.016081950E0,-1.240819624E1,-1.964114236E0,1.272342977E1
1.580508196E1,1.869541370E0,-1.253886514E1,-1.716561252E0,1.279315858E1
1.581502796E1,1.370971511E0,-1.272800152E1,-1.441509397E0,1.288252828E1
1.582497396E1,6.576228958E-1,-1.288322170E1,-1.212270477E0,1.295683098E1
1.583491996E1,-3.508072114E-1,-1.292395107E1,-1.210487076E0,1.298525533E1
1.584486596E1,-1.170791498E0,-1.296122824E1,-1.262429647E0,1.307508772E1
1.585481196E1,-1.863772507E0,-1.304403300E1,-1.347121888E0,1.324519468E1
1.586475796E1,-2.476695194E0,-1.295408294E1,-1.343876098E0,1.325700897E1
1.587470396E1,-3.111635571E0,-1.280494269E1,-1.327645397E0,1.324429973E1
1.588464996E1,-3.794714320E0,-1.264864778E1,-1.333117222E0,1.327272952E1
1.589459596E1,-4.312481757E0,-1.244695743E1,-1.319873863E0,1.323881850E1
1.590454196E1,-4.778443449E0,-1.209482992E1,-1.158188410E0,1.305602669E1
1.591448796E1,-5.064292188E0,-1.166242482E1,-9.944733882E-1,1.275335976E1
1.592443496E1,-5.069294481E0,-1.131668948E1,-9.714365280E-1,1.243820309E1
1.593438096E1,-5.154850940E0,-1.115044144E1,-6.823338870E-1,1.230326835E1
1.594432696E1,-5.306647582E0,-1.093226546E1,-9.342096448E-2,1.215251678E1
1.595427296E1,-5.369526200E0,-1.053161190E1,5.714658543E-1,1.183525387E1
1.596421896E1,-5.485949526E0,-1.016933128E1,9.666061431E-1,1.159505362E1
1.597416496E1,-5.442679546E0,-9.821902592E0,1.102045199E0,1.128304191E1
1.598411096E1,-5.052211255E0,-9.481409284E0,1.192665932E0,1.080945940E1
1.599405696E1,-4.883621995E0,-9.061794963E0,1.228435104E0,1.036701232E1
1.600400296E1,-4.958939980E0,-8.662350612E0,1.051875431E0,1.003662522E1
1.601394896E1,-5.118584170E0,-8.416265863E0,5.203291760E-1,9.864287984E0
1.602389496E1,-5.747101965E0,-8.433260211E0,-4.074701663E-1,1.021347594E1
1.603384096E1,-6.395061167E0,-8.552338758E0,-1.445080292E0,1.077624993E1
1.604378796E1,-6.862627335E0,-8.628234447E0,-2.328326774E0,1.126779434E1
1.605373396E1,-7.185384868E0,-8.519685566E0,-3.112713212E0,1.157168015E1
1.606367996E1,-6.955822597E0,-8.322001145E0,-3.819607671E0,1.149906839E1
1.607362596E1,-6.035116512E0,-8.138312620E0,-4.140191794E0,1.094513370E1
1.608357196E1,-4.598668465E0,-7.872413412E0,-3.975368140E0,9.946164911E0
1.609351796E1,-2.844354665E0,-7.624979126E0,-3.463444410E0,8.844552409E0
1.610346396E1,-1.467143006E0,-7.448006127E0,-2.926760645E0,8.135799392E0
1.611340996E1,-7.023570192E-1,-7.589511670E0,-2.767026992E0,8.108663956E0
1.612335596E1,-6.228635377E-1,-8.291036046E0,-2.992070535E0,8.836386353E0
1.613330196E1,-1.015308772E0,-9.155087289E0,-3.384425722E0,9.813297745E0
1.614324796E1,-1.534078422E0,-9.874934499E0,-3.793293446E0,1.068909740E1
1.615319396E1,-1.793257425E0,-1.053561841E1,-4.266143743E0,1.150717211E1
1.616313996E1,-1.625574483E0,-1.113765358E1,-4.589239830E0,1.215528453E1
1.617308696E1,-9.182350516E-1,-1.154707211E1,-4.806879044E0,1.254129643E1
1.618303296E1,5.510234767E-1,-1.160279608E1,-4.927486053E0,1.261778992E1
1.619297896E1,2.081569011E0,-1.144833018E1,-5.036695669E0,1.267933345E1
1.620292496E1,3.332871407E0,-1.126342018E1,-5.027199790E0,1.277675247E1
1.621287096E1,4.388334178E0,-1.109611613E1,-4.935558718E0,1.291282347E1
1.622281696E1,5.331648522E0,-1.088922059E1,-4.719937963E0,1.301074231E1
1.623276296E1,5.843733051E0,-1.064029176E1,-4.284702805E0,1.287337185E1
1.624270896E1,6.648701103E0,-1.020081386E1,-3.567705528E0,1.268819737E1
1.625265496E1,7.866521757E0,-9.460601383E0,-2.915048672E0,1.264447120E1
1.626260096E1,9.215517678E0,-8.550186982E0,-2.426177005E0,1.280303864E1
1.627254696E1,9.836149918E0,-7.573818913E0,-1.999034393E0,1.257412886E1
1.628249296E1,9.739896562E0,-6.852559015E0,-1.476577634E0,1.200014298E1
1.629243896E1,9.632843984E0,-6.298600820E0,-8.134846683E-1,1.153801598E1
1.630238596E1,9.625193487E0,-5.628019910E0,-1.861977120E-1,1.115139576E1
1.631233196E1,9.449595169E0,-5.044183613E0,3.893308608E-1,1.071868535E1
1.632227796E1,9.449839582E0,-4.580515784E0,9.685130663E-1,1.054602345E1
1.633222396E1,9.525301993E0,-4.152449897E0,1.612504056E0,1.051543568E1
1.634216996E1,9.513921558E0,-3.719063044E0,2.325610743E0,1.047638290E1
1.635211596E1,9.852614508E0,-3.050674254E0,3.106865412E0,1.077187257E1
1.636206196E1,1.024563277E1,-2.138954170E0,3.876250818E0,1.116124707E1
1.637200796E1,1.047773332E1,-1.222254598E0,4.502403122E0,1.146945664E1
1.638195396E1,1.045283002E1,-3.711531830E-1,5.077581739E0,1.162674703E1
1.639189996E1,1.026387608E1,5.395243424E-1,5.566296701E0,1.168853702E1
1.640184596E1,1.010724204E1,1.499094531E0,6.044717056E0,1.187190930E1
1.641179196E1,9.905544673E0,2.430281165E0,6.305097077E0,1.199084363E1
1.642173796E1,9.762919389E0,3.170141056E0,6.528367159E0,1.216486609E1
1.643168496E1,9.642178479E0,3.898683077E0,6.772080277E0,1.241097929E1
1.644163096E1,9.469418399E0,4.661459960E0,6.901572715E0,1.261074144E1
1.645157696E1,9.041954191E0,5.117707672E0,6.803227226E0,1.241900834E1
1.646152296E1,8.555348319E0,5.187272581E0,6.574654888E0,1.197196177E1
1.647146896E1,8.132889912E0,4.994786335E0,6.122410179E0,1.133912233E1
1.648141496E1,7.830284808E0,4.731488553E0,5.641364425E0,1.074827133E1
1.649136096E1,7.786021385E0,4.443376358E0,5.205731072E0,1.036654998E1
1.650130696E1,7.848572559E0,4.110289133E0,4.902145682E0,1.012549259E1
1.651125296E1,7.977760942E0,3.828436967E0,4.798544422E0,1.006616252E1
1.652119896E1,8.035084121E0,3.666326421E0,4.750535566E0,1.002856492E1
1.653114496E1,7.861769725E0,3.611209981E0,4.756590942E0,9.872862712E0
1.654109096E1,7.659713341E0,3.516225471E0,4.769770567E0,9.684304895E0
1.655103696E1,7.577917226E0,3.455926060E0,4.677080212E0,9.552137652E0
1.656098296E1,7.664456602E0,3.437472247E0,4.475118260E0,9.517709488E0
1.657092996E1,7.807240931E0,3.536324691E0,4.326931397E0,9.601090489E0
1.658087596E1,8.101643561E0,3.595261701E0,4.034932264E0,9.738748044E0
1.659082196E1,8.736602649E0,3.277191880E0,3.627974826E0,1.001151406E1
