"Time (s)","Linear Acceleration x (m/s^2)","Linear Acceleration y (m/s^2)","Linear Acceleration z (m/s^2)","Absolute acceleration (m/s^2)"
2.004393400E-2,-2.603089333E0,5.958452225E-1,7.049722672E0,7.538547297E0
3.685142900E-2,-1.447377205E0,-3.451681137E0,3.693959713E0,5.258739564E0
5.365849700E-2,-2.961699009E0,-8.955060959E0,4.489300728E0,1.044598482E1
7.046779400E-2,-5.774641037E-2,-7.991665840E0,-1.250063419E1,1.483697789E1
8.727206400E-2,1.937683463E0,-5.588813782E0,-5.641901016E0,8.174380941E0
1.040859380E-1,1.818302393E0,-7.982444763E-1,-3.917341232E-1,2.024073482E0
1.208916740E-1,5.115784407E-1,2.682067871E0,-8.784800768E-1,2.868262159E0
1.377014790E-1,1.171687126E0,5.249049187E0,1.538103580E0,5.593847577E0
1.545040100E-1,3.890366554E-1,6.177474976E0,5.180696249E-1,6.211355949E0
1.713164180E-1,-2.969045639E-1,4.373081207E0,5.807192326E-1,4.421450711E0
1.881241790E-1,-1.843199134E0,4.513985157E0,-3.776576519E0,6.167331291E0
2.049324070E-1,-3.257369995E-1,4.197339535E0,1.067996502E0,4.343314436E0
2.217406250E-1,-4.451997280E-1,1.622859478E0,3.790068388E0,4.146865572E0
2.385486900E-1,2.743148804E-2,-2.238456726E0,-2.767829657E0,3.559820502E0
2.553598260E-1,-2.804286957E0,-5.231647491E0,-1.389656544E0,6.096335467E0
2.721635790E-1,-3.705207109E0,-8.493652344E-1,-1.332603216E0,4.028127649E0
2.889787140E-1,-9.974489212E-1,3.244807243E0,-1.351449490E0,3.653778061E0
3.057822320E-1,-2.937089443E0,4.138855457E0,-1.095169830E1,1.207047284E1
3.225912030E-1,3.109715462E0,-2.289796352E0,1.327266884E1,1.382306897E1
3.394008650E-1,-2.870098829E0,-7.251452446E0,4.708368301E0,9.109871675E0
3.562045870E-1,-4.531684875E0,6.204686165E-1,-1.833805323E0,4.927878963E0
3.730090710E-1,-2.504143238E0,2.509312153E0,-3.801049232E0,5.197629855E0
3.898257020E-1,2.029891014E-1,-1.500935078E0,-4.579598427E0,4.823560141E0
4.066326580E-1,1.628942490E-1,-8.440442085E-1,6.834173203E-1,1.098182315E0
4.234429610E-1,1.148962975E0,-1.016641617E0,-1.774286985E0,2.345585300E0
4.402483820E-1,1.647006989E0,1.238283157E0,4.218210220E0,4.694600586E0
4.570594580E-1,-6.630616188E-1,3.634957314E0,6.571963310E0,7.539447402E0
4.738687130E-1,2.404751778E-1,3.323875427E0,4.765271664E0,5.814962613E0
4.906719870E-1,7.498693466E-2,1.393566132E0,2.467413425E0,2.834744894E0
5.074813960E-1,4.676539421E0,-3.782488823E0,6.417435408E-1,6.048890595E0
5.242918810E-1,4.851173401E0,-8.056693077E-1,-1.045773268E0,5.027586710E0
5.410985440E-1,3.043665886E0,2.213942528E0,-4.897385597E0,6.176554803E0
5.579073600E-1,3.091545582E0,2.776279449E0,-6.892532349E0,8.048129214E0
5.747149270E-1,2.841013432E0,1.665378094E0,-3.399824500E-1,3.310653950E0
5.915235000E-1,2.075804710E0,1.364651203E0,4.182128429E0,4.864302242E0
6.083230210E-1,2.001151085E0,5.385751724E-1,3.952532053E0,4.462866625E0
6.251446360E-1,-1.927471161E-2,1.111931324E0,4.185352802E0,4.330582047E0
6.419285510E-1,-1.540564060E0,2.025986671E0,4.520786762E0,5.188012391E0
6.587576540E-1,4.485554695E-1,-1.684745312E0,8.817776442E-1,1.953740154E0
6.755534920E-1,1.201215267E0,-4.101461411E0,1.195259809E0,4.437741524E0
6.923747400E-1,2.157578468E0,-5.198851109E0,2.579333544E0,6.191620081E0
7.091841690E-1,2.066609859E0,-3.211706161E0,3.050619602E0,4.887966114E0
7.259857640E-1,1.488328934E0,-4.863357544E-1,3.141706467E0,3.510265660E0
7.428009090E-1,1.059068203E0,8.547301292E-1,2.483303308E0,2.831781131E0
7.596035940E-1,3.101344109E-1,2.058642149E0,1.650413513E0,2.656700136E0
7.764068980E-1,3.730750084E-1,2.275851965E0,1.919021130E0,3.000221529E0
7.932414520E-1,2.487115860E-1,2.318824053E0,1.401183724E0,2.720683420E0
8.100361620E-1,5.036830902E-2,1.976852179E0,1.383631110E0,2.413486389E0
8.268384590E-1,-1.003237724E0,1.654011965E0,3.188806772E-1,1.960593379E0
8.436496770E-1,-2.603463173E0,1.661833763E0,-8.231255412E-1,3.196442961E0
8.604557180E-1,-4.066009998E0,1.715082645E0,-1.870891094E0,4.793138771E0
8.772507010E-1,-4.457093716E0,1.268908262E0,-5.190039158E0,6.957896164E0
8.940720830E-1,-3.770074368E0,1.163161278E0,-5.406486511E0,6.693018847E0
9.108807580E-1,-2.184103489E0,1.326550603E0,-4.124305248E0,4.851797433E0
9.276894850E-1,2.375137329E0,7.826080918E-1,-2.665027857E0,3.654603431E0
9.445037650E-1,1.755202103E1,-7.510218143E0,1.700837374E0,1.916688985E1
9.613050850E-1,1.648675919E1,-6.999588013E0,5.306328773E0,1.868059383E1
9.781139550E-1,2.678125381E0,2.377329111E0,6.147431374E0,7.114419284E0
9.949275630E-1,-4.657319546E0,5.118719578E0,3.471268654E0,7.742197462E0
1.011728071E0,-4.479998589E0,1.849420071E0,-1.026724815E0,4.954281562E0
1.028537916E0,-2.595437050E0,-1.139408946E0,-7.152486801E0,7.693673613E0
1.045348412E0,-1.877954960E0,-1.765651345E0,-5.157500744E0,5.765765641E0
1.062144627E0,-7.644515038E-1,-2.089359045E0,-1.020859718E0,2.447848420E0
1.078963475E0,-2.297019958E-2,-8.554010391E-1,-9.492049217E-1,1.277978306E0
1.095772313E0,-1.918229580E0,-9.139657617E-1,-2.336503029E0,3.158193240E0
1.112579657E0,-9.510655403E-1,-2.843363523E0,-8.023562431E-1,3.103710252E0
1.129394120E0,-1.306107044E0,-2.583846092E0,4.473729134E-1,2.929559483E0
1.146194932E0,-1.959204197E0,-1.636654258E0,-4.952502251E-1,2.600459773E0
1.163005143E0,-2.204818249E0,-9.778091311E-2,-1.058941126E0,2.447884990E0
1.179811022E0,-1.889927864E0,6.457212567E-1,-1.607668877E0,2.563860856E0
1.196615018E0,-1.264104843E0,1.643878102E0,-9.662232399E-1,2.287768262E0
1.213424640E0,3.809070587E-1,2.183656216E0,-1.450610161E-1,2.221370603E0
1.230237802E0,1.710696220E0,2.518194675E0,1.680079937E0,3.477133097E0
1.247042388E0,6.181802750E-1,2.511722565E0,4.141875267E0,4.883239480E0
1.263859771E0,-1.346735001E0,4.734048843E0,6.398463249E0,8.072499338E0
1.280659770E0,-2.820873260E-1,4.555781364E0,6.667586327E0,8.080310917E0
1.297476379E0,1.187287331E0,3.095762253E0,4.531679153E0,5.615114521E0
1.314279327E0,2.075641632E0,9.972116947E-1,2.802385569E0,3.627131680E0
1.331087871E0,3.235810280E0,-2.506963313E-1,1.704990149E0,3.666102593E0
1.347892905E0,5.369003296E0,-2.962162793E-1,1.630249500E0,5.618865892E0
1.364708264E0,8.499765396E0,-5.183171034E-1,1.768178701E0,8.697190370E0
1.381501680E0,9.884110451E0,-2.778728485E0,1.637098789E-1,1.026858181E1
1.398320061E0,3.640377998E0,-4.989949703E0,-3.907503605E0,7.308935246E0
1.415134158E0,-2.490317345E0,-4.529564381E0,-8.089326859E0,9.599783486E0
1.431936608E0,-5.391761780E0,-3.367813110E0,-6.783579826E0,9.296785224E0
1.448746138E0,-4.907356262E0,-2.505046368E0,-3.843850374E0,6.718079226E0
1.465553471E0,-2.095553398E0,-1.190822124E0,-2.600644827E0,3.545808073E0
1.482362624E0,1.219859123E0,-1.676229537E-1,1.932153702E-1,1.246389150E0
1.499172196E0,1.974712372E0,-4.053798318E-2,2.766189337E0,3.398960977E0
1.515987859E0,-1.312952042E0,8.082103133E-1,5.059842587E0,5.289523038E0
1.532785823E0,-3.943083286E0,2.633233309E0,7.533306599E0,8.901265740E0
1.549598609E0,-4.054143906E0,2.499134064E0,7.102601528E0,8.551532164E0
1.566398393E0,-1.457223415E0,-1.416685432E-2,2.613221169E0,2.992093858E0
1.583198351E0,-9.191322327E-2,-1.833582282E0,-7.572485924E0,7.791855690E0
1.600022540E0,-1.499328613E-1,-2.308143854E0,-1.209797096E1,1.231709825E1
1.616811552E0,-5.741739273E-1,-6.472145319E-1,-1.811302304E0,2.007331160E0
1.633645486E0,-6.831264496E-2,1.334681630E0,2.288315296E0,2.649986522E0
1.650432677E0,6.248359680E-1,2.414170265E0,6.603903770E-1,2.579680892E0
1.667253396E0,3.073577881E-1,2.215027809E0,-7.380306721E-1,2.354889865E0
1.684064116E0,-5.083246231E-1,1.156501770E0,-1.630997896E0,2.063018275E0
1.700865906E0,-9.050817490E-1,9.907761216E-2,-1.337020874E0,1.617595179E0
1.717694539E0,-9.647607803E-1,-7.290294766E-2,-8.420522213E-1,1.282626269E0
1.734482850E0,-1.203324318E0,8.635047078E-2,7.687020302E-2,1.208865107E0
1.751299581E0,-2.880311012E0,-6.444289088E-1,1.806015730E0,3.460227299E0
1.768104239E0,-2.152377129E0,-7.743858099E-1,4.070768833E0,4.669428185E0
1.784911958E0,-7.939939499E-1,-1.342161536E0,4.900452614E0,5.142592712E0
1.801719494E0,5.158290863E-1,-2.062138319E0,5.374130249E0,5.779253414E0
1.818528812E0,1.602809906E0,-2.001182795E0,5.400118828E0,5.977877176E0
1.835337060E0,1.748918533E0,-6.216518283E-1,4.821889400E0,5.166796340E0
1.852143517E0,7.923240662E-1,1.380487442E0,3.575463533E0,3.913752992E0
1.868954299E0,-1.526622772E-1,1.617136002E0,3.343194008E0,3.716904733E0
1.885761906E0,-9.851360321E-1,9.170912504E-1,3.462177753E0,3.714596096E0
1.902568201E0,-1.227778435E0,3.412994444E-1,2.889836788E0,3.158335299E0
1.919380102E0,7.232770920E-1,-2.117643833E0,2.479737759E0,3.340156360E0
1.936187475E0,3.298982620E0,-2.591335535E0,1.223385572E0,4.369780137E0
1.952993658E0,5.265833855E0,-1.594552636E0,-8.065242767E-1,5.560763050E0
1.969801307E0,6.774526596E0,-1.547931671E0,-2.138113499E0,7.270614306E0
1.986610246E0,8.289755821E0,-2.117819548E0,-3.383718491E0,9.200802250E0
2.003409614E0,8.751818657E0,-6.201682091E-1,-5.286936283E0,1.024356548E1
2.020227110E0,6.535265923E0,1.732952833E0,-4.214674473E0,7.967201963E0
2.037034472E0,3.021770477E0,2.969968319E0,-3.847481251E0,5.723191470E0
2.053843626E0,-8.216223717E-1,5.120530605E0,-5.037605286E0,7.229962933E0
2.070647551E0,-4.701356888E0,7.018036842E0,-7.996113777E0,1.163157054E1
2.087462737E0,-6.953977585E0,7.355164051E0,-5.843609810E0,1.168777216E1
2.104254069E0,-5.685663223E0,3.986301899E0,-6.826715469E-1,6.977349752E0
2.121079977E0,-2.031753063E0,-8.154249191E-1,3.555406094E0,4.175386305E0
2.137872376E0,-4.717483521E-1,-4.827688217E0,3.925583363E0,6.240138201E0
2.154695395E0,-5.988626480E-1,-7.115525246E0,2.451562881E-1,7.144888914E0
2.171500631E0,-1.177529335E0,-6.786707878E0,-3.485060692E0,7.719561334E0
2.188308209E0,-1.499594688E0,-4.331384182E0,-5.424143314E0,7.101478991E0
2.205124656E0,-1.571432590E0,-1.524023771E0,-5.161182404E0,5.606233374E0
2.221922457E0,-1.415375233E0,-3.498865366E-1,-3.950529099E0,4.210984184E0
2.238737939E0,-1.698662281E0,-4.764158130E-1,-2.933475733E0,3.423113414E0
2.255542707E0,-1.913383961E0,-1.429563910E-1,-1.785274744E0,2.620816785E0
2.272353184E0,-1.542528152E0,6.917983294E-1,-4.627499580E-1,1.752745148E0
2.289160842E0,6.552314758E-2,1.511982083E0,1.210687637E0,1.938078342E0
2.305968103E0,2.429316521E0,2.640027523E0,4.445826530E0,5.712853719E0
2.322775456E0,2.440324783E0,3.930532694E0,8.447407722E0,9.631353463E0
2.339586269E0,1.210309982E0,4.976595879E0,6.876055717E0,8.573884710E0
2.356394872E0,2.222567558E0,4.554825306E0,2.358159304E0,5.589915511E0
2.373190242E0,2.548376083E0,3.100135088E0,2.768964529E0,4.875676649E0
2.390004941E0,2.148110390E0,9.895079136E-1,1.047041416E0,2.586464746E0
2.406822964E0,2.074633598E0,9.474878907E-1,8.048951626E-1,2.418614085E0
2.423626655E0,4.738475800E0,1.161144376E0,1.489133358E0,5.100875153E0
2.440434334E0,8.800189972E0,-3.038170040E-1,-2.425307989E0,9.133332752E0
2.457244302E0,8.074732780E0,-3.224789619E0,-8.911184311E0,1.245029250E1
2.474052590E0,2.097136497E0,-5.099341393E0,-1.057186508E1,1.192332149E1
2.490858998E0,-1.183246613E0,-4.450364590E0,-5.640493870E0,7.281551251E0
2.507669983E0,-1.952080727E0,-3.491840124E0,-1.777494311E0,4.377562409E0
2.524478078E0,-9.412908554E-1,-3.231827736E0,9.981596470E-1,3.510991551E0
2.541282908E0,7.116107941E-1,-2.606729984E0,3.348857641E0,4.303054570E0
2.558089112E0,2.825412750E-1,-1.504183650E0,8.578692436E0,8.714147230E0
2.574902335E0,-2.081788540E0,-5.295040011E-1,9.074783325E0,9.325551480E0
2.591708976E0,-2.789340019E0,1.780062318E-1,7.643033981E0,8.138063185E0
2.608517886E0,-1.865426064E0,-9.075045586E-1,2.395184278E0,3.168641136E0
2.625316206E0,-1.825037003E-1,-2.137271881E0,-6.533646584E0,6.876756239E0
2.642129529E0,8.364286423E-1,-1.174728036E0,-1.905675888E1,1.911124428E1
2.658934177E0,-4.724140167E-1,8.518566936E-2,-4.068441868E0,4.096663378E0
2.675746545E0,-1.761836529E0,1.268833637E0,3.822747707E0,4.396294666E0
2.692562077E0,-1.073557854E0,1.928807974E0,2.765265465E0,3.538293339E0
2.709367274E0,-1.081479073E0,2.446108341E0,-8.104245663E-1,2.794607482E0
2.726178035E0,-7.485561371E-1,2.899567842E0,-2.359253168E0,3.812335960E0
2.742977259E0,-4.983978271E-1,2.089291811E0,-2.293358564E0,3.142138471E0
2.759798540E0,-7.542257309E-1,6.695508957E-1,-1.003673434E0,1.422854602E0
2.776602566E0,-2.306960106E0,-5.597671866E-1,1.012894869E0,2.580961110E0
2.793401445E0,-3.583295822E0,-2.442406714E-1,4.490294933E0,5.749992265E0
2.810217669E0,-2.068395615E0,9.555334449E-1,5.064132214E0,5.553083797E0
2.827024178E0,6.570558548E-1,-1.347784102E-1,3.656063557E0,3.717080621E0
2.843834460E0,2.235293388E0,-3.792260587E-1,5.020891666E0,5.509056368E0
2.860641183E0,2.926579475E0,8.413904905E-1,4.202666283E0,5.189914187E0
2.877449177E0,1.711938858E0,2.008634090E0,3.162554741E0,4.119113746E0
2.894260080E0,1.723289490E-3,1.309484243E0,2.820264816E0,3.109444579E0
2.911066243E0,-1.152476311E0,6.926627159E-1,3.550977945E0,3.797028793E0
2.927861481E0,-7.851934433E-1,-4.283628464E-1,2.819417715E0,2.957894475E0
2.944685598E0,-3.063650131E-1,-1.052196383E0,2.899940729E0,3.100102092E0
2.961491720E0,1.914876938E0,-2.792981625E0,3.772253513E0,5.069259967E0
2.978299948E0,3.526754379E0,-2.487247705E0,1.990707040E0,4.752611084E0
2.995107566E0,3.663276672E0,-1.606418252E0,7.610092163E-1,4.071769960E0
3.011916659E0,4.555887222E0,-1.228047848E0,-3.290903568E-1,4.729958812E0
3.028725060E0,6.198183060E0,-9.949257970E-1,-3.045337439E0,6.977207944E0
3.045521121E0,7.168566704E0,5.756975412E-1,-7.181807518E0,1.016356903E1
3.062340457E0,5.914822578E0,1.207906723E0,-5.448377609E0,8.131972907E0
3.079150018E0,2.867229462E0,2.875128269E0,-4.746657372E0,6.246448875E0
3.095958429E0,-1.334991455E-1,3.736632824E0,-6.102200031E0,7.156611775E0
3.112746230E0,-3.505066872E0,4.435067177E0,-6.837217808E0,8.871463351E0
3.129573379E0,-5.593085289E0,4.593770504E0,-5.786856651E0,9.266770764E0
3.146387578E0,-5.498599529E0,2.631696939E0,-4.211578369E-1,6.110466389E0
3.163192591E0,-3.124098778E0,-1.016554952E0,4.915607929E0,5.912408854E0
3.180002225E0,-1.020636559E0,-3.070462227E0,4.626009941E0,5.645299394E0
3.196806840E0,4.090490341E-1,-6.092339039E0,8.875713348E-1,6.170226815E0
3.213610480E0,7.414350510E-1,-6.607666969E0,-3.503530741E0,7.515697996E0
3.230429767E0,5.831842422E-1,-4.644548416E0,-6.415009975E0,7.941302591E0
3.247234841E0,-6.847000122E-2,-1.924259543E0,-6.406356812E0,6.689459659E0
3.264040230E0,-5.334215164E-1,-6.119076610E-1,-5.002379894E0,5.067817489E0
3.280848977E0,-9.890990257E-1,-1.195931509E-1,-3.696890831E0,3.828788479E0
3.297659718E0,-1.409437180E0,4.367381334E-2,-2.067418575E0,2.502526749E0
3.314464792E0,-1.646127701E0,5.607140660E-1,1.950273514E-1,1.749906380E0
3.331273702E0,-3.919734955E-1,1.033968210E0,1.999660015E0,2.285032529E0
3.348083567E0,1.245681763E0,1.801897168E0,4.000617504E0,4.561085054E0
3.364891877E0,7.383813858E-1,3.163022757E0,7.252476215E0,7.946592432E0
3.381698009E0,-5.219383240E-1,4.433236599E0,9.640226364E0,1.062355735E1
3.398505414E0,3.757762909E-2,3.728028774E0,5.616157532E0,6.740981831E0
3.415319684E0,1.521447182E0,2.701225758E0,2.710826397E0,4.118252284E0
3.432130363E0,2.158690453E0,1.944140434E0,8.285789490E-1,3.020955076E0
3.448931521E0,2.932266235E0,1.493187189E0,6.251003742E-1,3.349409461E0
3.465741020E0,5.621224403E0,1.761445284E0,2.644310713E0,6.457029691E0
3.482548099E0,9.736948013E0,-3.903338611E-1,-2.111601830E0,9.970926708E0
3.499345646E0,9.090431213E0,-4.078237534E0,-1.267356491E1,1.612101760E1
3.516151534E0,2.665418625E0,-5.614336967E0,-1.234933662E1,1.382502626E1
3.532968958E0,-1.133411407E0,-4.658406734E0,-4.399449825E0,6.506960388E0
3.549782548E0,-2.457884312E0,-4.378534794E0,-1.158998966E0,5.153255363E0
3.566577866E0,-1.617904663E0,-3.814311504E0,6.920695305E-1,4.200660423E0
3.583397365E0,5.042333603E-1,-2.650690794E0,3.340878248E0,4.294401057E0
3.600196286E0,1.035458565E0,-1.595184922E0,6.507749557E0,6.779940537E0
3.617018398E0,-1.455088615E0,-7.123067975E-1,9.378995895E0,9.517889885E0
3.633823046E0,-2.559385777E0,-6.002307683E-2,7.591881752E0,8.011911561E0
3.650627348E0,-2.073469162E0,-4.130747318E-1,3.457184792E0,4.052410614E0
3.667446694E0,-4.435205460E-1,-1.955935240E0,-5.253037930E0,5.622881879E0
3.684246255E0,4.523286819E-1,-1.444123387E0,-1.940851974E1,1.946742747E1
3.701060404E0,-3.188533783E-1,7.064443082E-2,-1.795501113E0,1.824960920E0
3.717862966E0,-1.365458965E0,1.459697962E0,3.777780771E0,4.273970505E0
3.734684611E0,-1.182500839E0,2.249470472E0,3.642204523E0,4.441179959E0
3.751480774E0,-1.245177269E0,2.644055367E0,-2.269818783E-1,2.931384653E0
3.768288839E0,-1.355703354E0,3.241060019E0,-1.705281496E0,3.905174338E0
3.785086864E0,-1.468860626E0,3.647001028E0,-8.202886581E-1,4.016346788E0
3.801906068E0,-1.278491020E0,2.920232296E0,-2.180063725E-1,3.195281322E0
3.818714511E0,-1.278320312E0,1.585765719E0,-2.405025959E-1,2.050999083E0
3.835522382E0,-1.282002449E0,2.620269358E-1,1.147660732E0,1.740492330E0
3.852330722E0,-7.016201019E-1,-7.883629799E-1,2.729129314E0,2.926078224E0
3.869140303E0,1.029005051E0,-1.099685669E0,3.645309925E0,3.944165871E0
3.885948399E0,1.309706688E0,-1.041023135E0,5.236757278E0,5.497516491E0
3.902752710E0,9.792222977E-1,-5.900523663E-1,5.392082214E0,5.511949629E0
3.919568109E0,1.419210434E-1,-6.445997357E-1,3.653875828E0,3.713012115E0
3.936376226E0,-5.742187500E-1,-3.196415305E-1,2.470227718E0,2.556153920E0
3.953182805E0,-8.144512177E-1,8.483985662E-1,3.777761936E0,3.956588955E0
3.969988195E0,-1.045607567E0,4.225200415E-1,2.307620525E0,2.568449115E0
3.986798183E0,-9.565172195E-1,-2.717068195E-1,2.238750935E0,2.449643961E0
4.003612413E0,2.009277344E-1,-2.165721178E0,3.383412838E0,4.022213645E0
4.020401589E0,2.150573730E0,-3.166301489E0,3.047803402E0,4.892804724E0
4.037224047E0,3.298719406E0,-1.931447148E0,2.848725557E0,4.767313196E0
4.054029518E0,4.316192627E0,-5.406801105E-1,1.409345865E0,4.572538632E0
4.070838387E0,5.210417747E0,-5.697553158E-1,-1.130816936E0,5.362072469E0
4.087632475E0,6.308840752E0,-8.281886578E-2,-1.019355202E1,1.198819558E1
4.104463886E0,6.374812126E0,4.603964984E-1,-7.030441284E0,9.501436693E0
4.121252684E0,3.519654274E0,6.012897491E-1,-3.719860077E0,5.156246170E0
4.138075022E0,1.671326637E0,1.519409180E0,-4.169710159E0,4.742195673E0
4.154879710E0,-4.824438095E-1,3.115824461E0,-5.641911507E0,6.463147805E0
4.171690257E0,-2.325691223E0,2.730277300E0,-5.895128727E0,6.900420024E0
4.188498506E0,-3.212597370E0,2.060826302E0,-2.392950058E0,4.504885891E0
4.205304455E0,-3.769707680E0,1.316752553E0,2.189392567E0,4.553896473E0
4.222114707E0,-2.891142845E0,3.349369764E-1,5.375711441E0,6.113032245E0
4.238918378E0,-1.284430027E0,-1.830111623E0,2.839972973E0,3.614486898E0
4.255735893E0,-3.175830841E-2,-4.574367046E0,-1.229729652E-1,4.576129895E0
4.272537559E0,-3.670597076E-2,-5.720072746E0,-3.094063282E0,6.503368907E0
4.289346216E0,-5.170450211E-1,-4.606883049E0,-5.697191238E0,7.344977535E0
4.306157068E0,-9.003252983E-1,-2.700215101E0,-6.173402309E0,6.797988181E0
4.322962091E0,-1.073328495E0,-1.223398924E0,-4.365997314E0,4.659471165E0
4.339770685E0,-1.380229473E0,-6.838902235E-1,-2.175603628E0,2.665706357E0
4.356579280E0,-1.917149067E0,9.420494735E-2,-5.100421906E-1,1.986071034E0
4.373393316E0,-1.721213341E0,4.975754619E-1,1.810879707E-1,1.800819135E0
4.390197740E0,-2.787113190E-1,7.109103203E-1,1.389694691E0,1.585662264E0
4.407004238E0,1.459478378E0,1.578380346E0,3.526843309E0,4.130373516E0
4.423814226E0,1.556033134E0,2.434941053E0,5.718373299E0,6.407025069E0
4.440621152E0,6.569957733E-1,3.461490393E0,5.897203922E0,6.869539525E0
4.457432503E0,2.450380325E-1,4.603345394E0,3.892524242E0,6.033454850E0
4.474237292E0,4.025983810E-1,3.870654345E0,2.515197039E0,4.633601909E0
4.491046100E0,1.026184082E0,2.403659821E0,2.001441240E0,3.291868974E0
4.507850920E0,1.990863800E0,1.204001069E0,4.664962292E-1,2.372925615E0
4.524665618E0,4.231739044E0,1.704221249E0,1.948668242E0,4.960775475E0
4.541470346E0,8.129660606E0,1.042171359E0,5.331565857E0,9.777683632E0
4.558280254E0,8.666625977E0,-1.665480733E0,-8.531193733E-1,8.866343359E0
4.575079275E0,4.516444206E0,-3.904362202E0,-6.367224693E0,8.728336770E0
4.591894897E0,-5.854139328E-1,-4.624072075E0,-1.190667439E1,1.278646343E1
4.608692089E0,-2.760518551E0,-3.979574203E0,-7.679792404E0,9.079465011E0
4.625516715E0,-2.370373249E0,-3.374465466E0,-3.216486692E0,5.229863589E0
4.642318046E0,-1.084787369E0,-2.514778614E0,-1.050308943E0,2.933261664E0
4.659126427E0,2.646503448E-1,-2.339099646E0,8.312768936E-1,2.496487178E0
4.675939690E0,1.812829971E-1,-2.100163221E0,4.661415577E0,5.115891346E0
4.692742007E0,-1.376667976E0,-7.696944475E-1,6.358374119E0,6.551073629E0
4.709557621E0,-2.654858112E0,-4.166519046E-1,5.127664089E0,5.789197649E0
4.726361628E0,-1.249596596E0,-2.125345945E0,1.860136986E-1,2.472486226E0
4.743172307E0,1.976289749E-1,-3.285476208E0,-1.423531437E1,1.461087220E1
4.759978928E0,-1.193847656E-1,-1.431391478E0,-8.473282814E0,8.594164062E0
4.776787919E0,-1.124263763E0,6.389635801E-1,1.381077051E0,1.891987655E0
4.793595485E0,-1.360599041E0,1.654088140E0,3.342234850E0,3.969605914E0
4.810399238E0,-8.631935120E-1,1.787993550E0,1.278394699E0,2.361422661E0
4.827208554E0,-8.015594482E-1,1.896348715E0,-1.343567967E0,2.458416336E0
4.844024451E0,-9.039297104E-1,2.559932232E0,-2.236541271E0,3.517450612E0
4.860827737E0,-5.815181732E-1,1.955012679E0,-2.230094910E0,3.022178232E0
4.877636575E0,-1.060908318E0,7.643240094E-1,-4.144450426E-1,1.371671368E0
4.894448576E0,-1.932336330E0,8.485662937E-2,1.915938616E0,2.722488773E0
4.911252887E0,-2.311487675E0,-3.564137518E-1,3.313582182E0,4.055839359E0
4.928062225E0,-8.268442154E-1,1.963390410E-1,4.946521759E0,5.018993713E0
4.944873270E0,8.087320328E-1,-3.171123266E-1,4.479175568E0,4.562633175E0
4.961676951E0,1.721941948E0,-8.703159094E-1,4.835431576E0,5.206143715E0
4.978486288E0,1.522804260E0,-9.138735533E-1,3.186117411E0,3.647662517E0
4.995273876E0,8.507566452E-1,1.364957392E-1,1.669605851E0,1.878829863E0
5.012105978E0,-7.912731171E-2,2.060264826E0,2.213013887E0,3.024629357E0
5.028903536E0,-9.896268845E-1,2.155516386E0,2.100078821E0,3.167955700E0
5.045718884E0,-1.385866165E0,1.082079530E0,2.075079441E0,2.719830109E0
5.062521995E0,-7.314205170E-1,-5.417029858E-1,2.716145992E0,2.864588478E0
5.079337528E0,1.181305885E0,-2.445213079E0,3.646444798E0,4.546549269E0
5.096146295E0,2.312014580E0,-2.540375233E0,4.130304813E0,5.371995494E0
5.112950422E0,2.727467537E0,-1.663045883E0,2.702408314E0,4.184233678E0
5.129764480E0,4.275856018E0,-1.520866394E0,7.850017548E-1,4.605671181E0
5.146570175E0,5.538484573E0,-1.687507629E0,-1.738891125E0,6.045348271E0
5.163385320E0,6.221305847E0,2.814646363E-1,-8.411127090E0,1.046570245E1
5.180186203E0,5.694273949E0,6.811420918E-1,-6.172810078E0,8.425692530E0
5.196983710E0,4.277883530E0,1.766921759E0,-4.440468311E0,6.414051669E0
5.213801367E0,1.791685104E0,2.684979200E0,-4.665871620E0,5.673588529E0
5.230613309E0,-8.734288216E-1,3.617968082E0,-5.798670292E0,6.890366326E0
5.247427385E0,-3.027577877E0,3.443988323E0,-4.268501282E0,6.264773465E0
5.264229052E0,-4.379706860E0,1.859024644E0,-2.167255640E0,5.228269485E0
5.281035348E0,-5.554021835E0,1.329126835E0,3.089618683E0,6.493033212E0
5.297843677E0,-3.764682770E0,-1.392599940E0,4.682328224E0,6.167363176E0
5.314652800E0,-1.717212200E0,-3.093053818E0,1.821406841E0,3.979110773E0
5.331460651E0,-3.157777786E-1,-5.188746452E0,-8.420221806E-1,5.266099762E0
5.348269337E0,5.829114914E-1,-6.045209408E0,-3.239438295E0,6.883189890E0
5.365077352E0,2.586832047E-1,-4.616117954E0,-4.749398232E0,6.628140428E0
5.381885803E0,-6.526088715E-1,-2.391588449E0,-4.319378376E0,4.980223208E0
5.398694754E0,-9.162449837E-1,-9.339538217E-1,-2.988941669E0,3.262751433E0
5.415503734E0,-1.379825592E0,-4.109625816E-1,-1.590143442E0,2.145079270E0
5.432309947E0,-1.378119469E0,-5.603423715E-1,-8.564043045E-1,1.716573673E0
5.449129010E0,-1.380868912E0,-2.699837089E-2,2.852821350E-2,1.381427422E0
5.465928631E0,-7.096662521E-1,6.941054463E-1,8.167405128E-1,1.285485755E0
5.482743136E0,7.090368271E-1,1.188514829E0,1.615515947E0,2.127249984E0
5.499543084E0,1.630831718E0,2.167526245E0,3.953894138E0,4.794899475E0
5.516353407E0,6.989412308E-1,3.049289703E0,6.141528130E0,6.892391044E0
5.533160282E0,3.742694855E-2,4.301415920E0,6.008450508E0,7.389523476E0
5.549959060E0,4.284114838E-1,4.245001316E0,3.919016361E0,5.793294556E0
5.566776434E0,1.273038864E0,2.638274908E0,2.337142944E0,3.747447075E0
5.583588547E0,1.847177505E0,1.880061269E0,1.765711308E0,3.172448823E0
5.600395229E0,2.657518387E0,1.771901131E0,1.357957363E0,3.470747152E0
5.617200567E0,4.699161530E0,2.294178963E0,4.304578781E0,6.773091958E0
5.634012050E0,8.035615921E0,-9.462274611E-2,-1.861660480E-1,8.038329086E0
5.650818408E0,4.904367447E0,-3.624856710E0,-4.670689106E0,7.681649754E0
5.667626381E0,7.176237106E-1,-5.007400513E0,-7.758028507E0,9.261536050E0
5.684434567E0,-6.478672028E-1,-4.033032417E0,-6.530986309E0,7.703172370E0
5.701243294E0,8.411407471E-4,-3.259060860E0,-1.920439839E0,3.782798907E0
5.718053242E0,-1.187836647E0,-2.691288471E0,-5.809525251E-1,2.998582227E0
5.734861764E0,-2.161217690E0,-1.885814309E0,1.525649071E0,3.248809412E0
5.751664397E0,-2.163394451E0,-1.377171397E0,4.751670837E0,5.399560385E0
5.768480143E0,-2.662378311E0,-1.212234139E0,8.564722061E0,9.050537767E0
5.785286418E0,-2.813536644E0,-1.027598143E0,7.929412842E0,8.476292492E0
5.802092905E0,-1.548367977E0,-1.987883806E0,1.591034651E0,2.980019577E0
5.818900626E0,-5.488748550E-1,-3.043107748E0,-8.667408943E0,9.202485869E0
5.835711234E0,4.775953293E-1,-2.091410637E0,-1.266810417E1,1.284846135E1
5.852517864E0,3.002681732E-1,-9.912453890E-1,-1.957636595E0,2.214739135E0
5.869327069E0,-9.788513184E-2,-2.057996988E-1,7.194042206E-1,7.546372954E-1
5.886134534E0,-3.213338852E-1,8.052035570E-1,1.965222359E-1,8.889483805E-1
5.902942142E0,-8.817911148E-1,1.032157302E0,-2.414240837E-1,1.378836413E0
5.919752466E0,-1.446907997E0,5.538983345E-1,-1.575441360E-1,1.557294536E0
5.936560022E0,-1.616577625E0,-1.297945380E-1,-1.073324680E-1,1.625327690E0
5.953367995E0,-1.155629158E0,-6.719968319E-1,-4.856734276E-1,1.422299958E0
5.970165991E0,-5.432834625E-1,-5.619732738E-1,1.583995819E-1,7.975345188E-1
5.986980800E0,-3.532314301E-1,1.919890642E-1,1.284968853E0,1.346394146E0
6.003788590E0,-6.480484009E-1,8.854937553E-1,2.324424744E0,2.570411700E0
6.020599392E0,-1.231679916E0,8.065939546E-1,4.133445740E0,4.387824393E0
6.037400621E0,3.654050827E-1,2.030875683E-1,5.187964916E0,5.204781014E0
6.054208380E0,1.149458885E0,-1.126435757E0,4.638686180E0,4.909941214E0
6.071022326E0,1.165863991E0,-1.810542822E0,3.699745655E0,4.280820256E0
6.087835874E0,7.954721451E-1,-2.152310371E0,3.871842861E0,4.500709167E0
6.104642332E0,-2.530450821E-1,-1.122202396E0,4.161108971E0,4.317197922E0
6.121449339E0,-8.176488876E-1,-2.641541660E-1,3.022728443E0,3.142485381E0
6.138261280E0,-9.813642502E-1,-3.275820911E-1,2.852066040E0,3.033919332E0
6.155069762E0,5.116987228E-1,-1.357681513E0,3.511400223E0,3.799350760E0
6.171880635E0,2.244182587E0,-1.824804544E0,3.545160770E0,4.575416046E0
6.188682811E0,2.865939140E0,-4.417264760E-1,1.680714011E0,3.351645719E0
6.205491435E0,4.232526779E0,-6.664015651E-1,2.117390633E-1,4.289895968E0
6.222300375E0,4.330662727E0,-1.426454663E0,-3.290452003E0,5.622853986E0
6.239111656E0,4.497026443E0,-8.218207955E-1,-6.120509148E0,7.639323823E0
6.255918204E0,5.128220558E0,-6.312475204E-1,-3.965009451E0,6.512942459E0
6.272724571E0,3.762790680E0,-4.854094982E-2,-3.643448114E0,5.237906460E0
6.289535108E0,1.488161087E0,1.431463003E0,-4.258054733E0,4.732308090E0
6.306330061E0,-3.984546661E-2,2.566633701E0,-5.039250851E0,5.655373140E0
6.323153445E0,-1.882658482E0,2.559727669E0,-5.936434746E0,6.733339898E0
6.339958246E0,-3.580892563E0,2.332783461E0,-4.252628326E0,6.029056137E0
6.356767429E0,-4.240709782E0,2.973151922E0,1.890669346E0,5.513427462E0
6.373576553E0,-3.545983315E0,2.155803204E0,4.274842262E0,5.957831945E0
6.390385585E0,-1.470695496E0,-1.048661470E0,4.458159447E0,4.810178975E0
6.407191839E0,-2.593832016E-1,-3.869621038E0,1.029283524E0,4.012564167E0
6.424000300E0,-3.167343140E-2,-5.165467739E0,-2.887988329E0,5.918068668E0
6.440807940E0,-4.574956894E-1,-4.481413841E0,-5.279219627E0,6.939923068E0
6.457604509E0,-1.073271275E0,-2.812767029E0,-4.753392220E0,5.626571530E0
6.474432676E0,-1.278098583E0,-1.281113505E0,-2.800670147E0,3.334447642E0
6.491224618E0,-1.653179169E0,-8.512853384E-1,-1.363762140E0,2.305978158E0
6.508041441E0,-1.928757668E0,-1.048941851E0,-6.673614979E-1,2.294723625E0
6.524849811E0,-2.160475254E0,-4.758007526E-1,-9.095954895E-2,2.214116826E0
6.541657275E0,-1.465981007E0,2.261349857E-1,-8.021211624E-2,1.485486899E0
6.558452534E0,4.567079544E-1,5.009058118E-1,-1.910824776E-1,7.042735982E-1
6.575275258E0,2.234139442E0,1.872014523E0,1.584322929E0,3.317513612E0
6.592080251E0,2.000368118E0,3.049833775E0,5.994476318E0,7.016887130E0
6.608891205E0,3.148355484E-1,4.917312145E0,6.484877586E0,8.144490007E0
6.625704560E0,3.037433624E-1,4.860655785E0,3.607016802E0,6.060429432E0
6.642507091E0,1.536690712E0,2.372452497E0,3.669230938E0,4.631760451E0
6.659316419E0,2.040548325E0,9.115297794E-1,2.890188217E0,3.653479428E0
6.676134757E0,3.373035431E0,9.256595373E-1,1.827798605E0,3.946525223E0
6.692932081E0,6.817218781E0,1.411061049E0,3.309677601E0,7.708406515E0
6.709737603E0,1.063790798E1,-4.333519340E-1,-9.904725552E-1,1.069270387E1
6.726553155E0,6.937970161E0,-4.421134949E0,-5.847209930E0,1.009315254E1
6.743358768E0,5.740289688E-1,-6.418289185E0,-1.494360542E1,1.627376073E1
6.760168645E0,-1.225927353E0,-3.894734859E0,-6.607755184E0,7.767514794E0
6.776973180E0,-2.076380253E0,-2.431491852E0,-1.210292578E0,3.418817881E0
6.793784113E0,-2.313397884E0,-2.984250069E0,1.671288013E0,4.129256818E0
6.810588711E0,-1.466455460E0,-2.662185669E0,3.320009708E0,4.501131926E0
6.827406520E0,-1.036708832E0,-1.309638500E0,6.649596214E0,6.856168611E0
6.844203670E0,-1.400930405E0,-6.772253513E-1,9.282672882E0,9.412186569E0
6.861018124E0,-2.205073833E0,1.234508604E-1,9.144137383E0,9.407063261E0
6.877824205E0,-2.434383869E0,-1.291070879E-1,4.497739792E0,5.115912108E0
6.894632026E0,-9.443836212E-1,-7.900195718E-1,-1.062092423E0,1.626047866E0
6.911450172E0,-3.157968521E-1,-1.391826749E0,-1.856100845E1,1.861579824E1
6.928254180E0,-6.460962296E-1,-1.177164555E0,-5.884032726E0,6.035312573E0
6.945073637E0,-1.123014450E0,-8.449078798E-1,1.902863979E0,2.365570144E0
6.961859944E0,-1.359681129E0,-3.224486411E-1,1.108631849E0,1.783751798E0
6.978666443E0,-1.449422836E0,5.987919569E-1,-6.479029655E-1,1.696807773E0
6.995482493E0,-1.593676567E0,9.686135054E-1,-8.115748167E-1,2.033880726E0
7.012291087E0,-1.296428680E0,1.235372663E0,-9.334642887E-1,2.019462433E0
7.029097657E0,-2.569379807E-1,1.334572315E0,-1.341403723E0,1.909571768E0
7.045908550E0,9.761781693E-1,1.014145136E0,-1.182763219E0,1.838570914E0
7.062712373E0,8.870592117E-1,5.670874119E-1,-6.174865961E-1,1.220553921E0
7.079526390E0,3.917903900E-1,7.601451278E-1,1.456290007E0,1.688816422E0
7.096316429E0,-3.758106232E-1,7.993966341E-1,3.547989845E0,3.656296014E0
7.113142336E0,-8.639287949E-1,4.363561273E-1,6.651972294E0,6.722017185E0
7.129952610E0,-2.303943634E-1,3.081112802E-1,7.385192394E0,7.395206611E0
7.146756809E0,-3.727722168E-1,-9.304498434E-1,5.163905621E0,5.260286807E0
7.163564375E0,-7.113103867E-1,-1.268676758E0,3.434303284E0,3.729603495E0
7.180377945E0,-1.385278702E-1,-4.234307706E-1,3.210716009E0,3.241478194E0
7.197184361E0,1.910991669E-1,1.383433819E0,3.505260706E0,3.773229471E0
7.213988673E0,3.281354904E-1,1.047521591E0,2.353158951E0,2.596599975E0
7.230797471E0,1.274314880E0,-4.139804840E-2,1.691257000E0,2.118004356E0
7.247612107E0,3.443924904E0,-2.198285103E0,2.641948223E0,4.865487288E0
7.264404883E0,4.321458817E0,-2.560598850E0,1.838205218E0,5.348894390E0
7.281222135E0,4.643867493E0,-2.012147188E0,7.691011429E-1,5.119156001E0
7.298030179E0,3.853918076E0,-2.260721922E0,-3.870743513E-1,4.484793718E0
7.314840991E0,3.870701790E0,-1.928141475E0,-4.378431797E0,6.153919637E0
7.331649838E0,4.041211128E0,-5.671309233E-1,-4.546721458E0,6.109476319E0
7.348454944E0,3.226079941E0,8.434582353E-1,-3.363323689E0,4.736133424E0
7.365264271E0,1.824285507E0,8.269206882E-1,-3.618694067E0,4.136032179E0
7.382078531E0,-5.591487885E-1,1.820691824E0,-5.309869766E0,5.641124269E0
7.398881623E0,-3.065816879E0,1.924212098E0,-7.212802410E0,8.070089463E0
7.415687785E0,-4.626627922E0,1.229698896E0,-3.763611317E0,6.089549692E0
7.432479829E0,-4.683009624E0,9.927343130E-1,1.728734970E0,5.089658648E0
7.449306713E0,-3.293642998E0,7.492004037E-1,4.179235458E0,5.373583019E0
7.466118990E0,-1.631030560E0,-7.596572638E-1,2.403127193E0,3.002059319E0
7.482920991E0,8.401584625E-2,-2.825003386E0,-2.393476248E0,3.703570080E0
7.499731987E0,6.046047211E-1,-3.948225975E0,-4.956757069E0,6.365805201E0
7.516537905E0,4.013729095E-1,-3.444335461E0,-4.693398476E0,5.835455100E0
7.533350833E0,2.985954285E-2,-2.108494759E0,-3.576490879E0,4.151858469E0
7.550155928E0,-4.563217163E-1,-1.275482655E0,-3.243156910E0,3.514705145E0
7.566967757E0,-1.045353889E0,-1.517850041E0,-2.314515114E0,2.958650658E0
7.583769485E0,-1.784682751E0,-1.486839056E0,-1.057528257E0,2.552283079E0
7.600580460E0,-2.463662148E0,-2.546790838E-1,6.379966736E-1,2.557641955E0
7.617393448E0,-1.536364555E0,6.221427917E-1,1.265157223E0,2.085209941E0
7.634197953E0,3.193378448E-1,1.135944366E0,1.732042313E0,2.095785494E0
7.651005601E0,2.561983109E0,2.239979506E0,2.875898361E0,4.455564725E0
7.667812975E0,2.105445862E0,3.862474918E0,7.144387722E0,8.390106715E0
7.684621914E0,3.919315338E-2,5.009439945E0,6.209642410E0,7.978451199E0
7.701434293E0,-1.002016068E-1,4.032993793E0,2.733749390E0,4.873239685E0
7.718220539E0,1.244089127E0,2.541681767E0,2.046141148E0,3.492076396E0
7.735045673E0,2.724487305E0,1.161816001E0,1.077649832E0,3.151821165E0
7.751854805E0,5.347771645E0,1.566484451E0,3.711829901E0,6.695537044E0
7.768665506E0,1.014457893E1,-1.096470654E-1,1.998181343E0,1.034007896E1
7.785474537E0,1.230097389E1,-3.398860931E0,-4.592679977E0,1.356314579E1
7.802277760E0,5.619671822E0,-6.073451996E0,-1.360943604E1,1.592746934E1
7.819089529E0,-7.213459015E-1,-4.123782635E0,-9.873428345E0,1.072429533E1
7.835888266E0,-3.272049427E0,-2.563441992E0,-2.946716309E0,5.095162343E0
7.852692607E0,-3.979281902E0,-2.425735235E0,2.878649235E-1,4.669233567E0
7.869512442E0,-2.068697453E0,-1.485859394E0,4.231674194E0,4.939064059E0
7.886322033E0,-1.412982941E-1,-7.108667493E-1,7.914077759E0,7.947195953E0
7.903130170E0,-1.702422142E0,-6.255557537E-1,1.143601227E1,1.157894372E1
7.919930423E0,-3.385210514E0,-8.049579859E-1,9.170174599E0,9.808145072E0
7.936745934E0,-2.519202232E0,-1.031077862E0,3.977553606E0,4.819796068E0
7.953542453E0,-6.797933578E-1,-1.950824857E0,-1.029751968E1,1.050270195E1
7.970362431E0,-1.332492828E-1,-1.959891915E0,-1.906632614E1,1.916725656E1
7.987174352E0,3.072795868E-1,-5.947636366E-1,5.473160744E-2,6.716845068E-1
8.003978500E0,8.043479919E-2,1.139055967E0,4.478754520E0,4.622029890E0
8.020786952E0,-8.774309158E-1,9.112658501E-1,-7.417194843E-1,1.466437266E0
8.037593715E0,-1.995368958E0,3.247390687E-1,-2.571421146E0,3.270956963E0
8.054402136E0,-2.409431458E0,6.454962492E-1,-1.604935169E0,2.966115684E0
8.071207882E0,-1.448687553E0,1.467253208E0,-8.345932961E-1,2.224426572E0
8.088025601E0,2.801256180E-1,1.226806164E0,-1.282478213E0,1.796739851E0
8.104830502E0,1.127141953E0,-2.455368042E-1,-7.415107489E-1,1.371340765E0
8.121638140E0,7.872533798E-1,-6.585767269E-1,1.020479679E0,1.447366562E0
8.138449156E0,-2.741708755E-1,-3.718929887E-1,3.213658333E0,3.246702010E0
8.155255461E0,-1.112135887E0,4.747748375E-2,4.333288670E0,4.473979329E0
8.172061888E0,-1.515110970E0,9.286008477E-1,4.315586090E0,4.667134462E0
8.188869720E0,-1.846267700E0,7.030450106E-1,5.500441074E0,5.844469926E0
8.205683533E0,2.589988708E-2,8.342294693E-1,4.899190903E0,4.969776767E0
8.222486328E0,8.800859451E-1,8.182013035E-1,3.360013485E0,3.568430364E0
8.239295869E0,3.395957947E-1,7.833629847E-1,3.238678217E0,3.349331196E0
8.256104015E0,-6.226472855E-1,1.082936168E0,3.273194790E0,3.503461791E0
8.272911612E0,-1.043264389E0,8.794566393E-1,3.490534544E0,3.747756124E0
8.289720451E0,-1.191056252E0,-2.165102363E-1,3.295816183E0,3.511110364E0
8.306527539E0,2.098274231E-1,-2.111119270E0,2.558803082E0,3.323902124E0
8.323336580E0,2.314329147E0,-3.035754919E0,1.452439785E0,4.084300266E0
8.340133385E0,4.160128593E0,-2.420023441E0,1.462922454E0,5.030241095E0
8.356953648E0,6.352251053E0,-1.810857534E0,6.776161194E-1,6.639989612E0
8.373761122E0,7.904013634E0,-1.508442879E0,-3.879888296E0,8.933216925E0
8.390569717E0,9.180077553E0,-1.369549274E0,-6.434597492E0,1.129396007E1
8.407368902E0,6.875452042E0,5.161927938E-1,-5.139997482E0,8.599876156E0
8.424191178E0,3.682476997E0,2.216437101E0,-6.148860931E0,7.502114436E0
8.440978613E0,4.607410431E-1,3.700863600E0,-6.592679501E0,7.574437054E0
8.457799160E0,-2.654158115E0,3.334037781E0,-7.509826660E0,8.634689322E0
8.474619523E0,-4.886681557E0,2.507705450E0,-5.556649685E0,7.813104311E0
8.491434698E0,-6.015268326E0,2.843497753E0,-2.737670422E0,7.194704430E0
8.508225889E0,-5.152266502E0,2.366308451E0,4.802439213E0,7.430254921E0
8.525040402E0,-1.715833664E0,-1.027395248E0,7.358318806E0,7.625252901E0
8.541842049E0,3.823251724E-1,-4.656023502E0,1.921152592E0,5.051292376E0
8.558651529E0,5.481500626E-1,-5.784966946E0,-3.265408278E0,6.665523406E0
8.575464679E0,1.903381348E-1,-4.704783440E0,-6.550652027E0,8.067357548E0
8.592266021E0,1.013374329E-2,-2.453634501E0,-6.611811161E0,7.052408935E0
8.609082530E0,-8.463568687E-1,-1.451589942E0,-5.285988331E0,5.546630143E0
8.625885284E0,-1.851840496E0,-1.324850082E0,-2.784661293E0,3.597065398E0
8.642693624E0,-2.650743008E0,-5.780364871E-1,-1.673393250E-1,2.718191885E0
8.659503307E0,-2.662741661E0,5.191648006E-1,6.126298904E-1,2.781194101E0
8.676292838E0,-1.576107979E0,1.352057219E0,1.243565083E0,2.420460534E0
8.693118583E0,6.118793488E-1,1.312649608E0,5.950908661E-1,1.565751726E0
8.709928897E0,2.131834984E0,2.303914785E0,1.535320520E0,3.494274293E0
8.726736463E0,2.078784943E0,3.449548006E0,4.384522438E0,5.953550646E0
8.743544925E0,1.395697594E0,5.593407154E0,4.343416214E0,7.217994165E0
8.760350996E0,1.145130157E0,6.759952068E0,2.912657738E0,7.449285210E0
8.777159418E0,2.869002342E0,4.206339836E0,3.905297995E0,6.416838917E0
8.793972060E0,4.145339966E0,1.582887292E0,1.957230806E0,4.849755462E0
8.810776850E0,4.966114044E0,5.275460482E-1,1.715993881E0,5.280646602E0
8.827581742E0,6.967900276E0,-4.942408204E-1,1.163765192E0,7.081684663E0
8.844400243E0,9.013783455E0,-2.286664248E0,-2.238278389E0,9.564884510E0
8.861199419E0,5.897559166E0,-4.813150406E0,-5.856808662E0,9.604677436E0
8.878012631E0,-1.175195217E0,-5.789491177E0,-7.987873554E0,9.935059929E0
8.894806026E0,-3.888809681E0,-4.002378464E0,-5.049451828E0,7.525877880E0
8.911626481E0,-3.980786800E0,-2.043938398E0,-1.636587143E0,4.764741882E0
8.928415393E0,-2.122286797E0,-7.748365402E-1,3.280520439E-1,2.283000450E0
8.945241514E0,6.059913635E-1,-5.146235228E-1,2.785686970E0,2.896914703E0
8.962042407E0,2.123037338E0,-3.038830161E-1,6.014740467E0,6.385666395E0
8.978860656E0,-6.522464752E-2,-8.871462941E-2,9.511585236E0,9.512222571E0
8.995670683E0,-2.805256367E0,5.541176796E-1,7.782160282E0,8.290870180E0
9.012474741E0,-4.311815262E0,-1.145581976E-1,2.565324545E0,5.018542065E0
9.029285461E0,-3.264876366E0,-1.714649320E0,-4.388657093E0,5.732342545E0
9.046092153E0,-1.713883400E0,-3.855664730E0,-1.474592113E1,1.533772268E1
9.062902273E0,-5.972223282E-1,-3.060157299E0,-2.844366789E0,4.220386195E0
9.079704469E0,2.446336746E-1,-1.430219054E0,2.678274393E0,3.046067285E0
9.096505291E0,9.430675507E-1,4.452446997E-1,7.735908031E-1,1.298484493E0
9.113327333E0,-3.835649490E-1,1.871513009E0,-1.258629799E0,2.287756977E0
9.130137006E0,-2.097998142E0,2.481452465E0,-1.828839779E-1,3.254635016E0
9.146941989E0,-2.348990440E0,2.398579597E0,-3.272519112E-1,3.373134149E0
9.163751946E0,-1.553486824E0,1.733184099E0,-1.541949987E0,2.791927327E0
9.180558638E0,-5.975217819E-1,3.872720003E-1,-1.570261955E0,1.724161968E0
9.197368667E0,3.010511398E-1,-1.653940678E-1,-1.118842244E0,1.170382396E0
9.214176294E0,5.174789429E-1,1.911563873E-1,4.262393713E-1,6.971407479E-1
9.230982743E0,2.066993713E-2,5.309325457E-1,2.859338999E0,2.908287490E0
9.247792873E0,-1.234729767E0,5.616194010E-1,5.509428501E0,5.673955971E0
9.264604823E0,-1.555346489E0,5.722617507E-1,9.244511604E0,9.391889108E0
9.281394384E0,-7.314577103E-1,-2.196271122E-1,7.249596596E0,7.289713112E0
9.298224138E0,4.412727356E-1,-7.690508366E-1,2.690966129E0,2.833277171E0
9.315019793E0,1.525283813E0,-3.265401125E-1,2.888067722E0,3.282385463E0
9.331831967E0,1.949267387E0,1.102246046E-1,4.319897652E0,4.740602128E0
9.348646696E0,5.265989304E-1,-6.123087406E-1,2.212202072E0,2.355008797E0
9.365452838E0,-5.356884003E-1,-1.034520864E0,1.689112306E0,2.051900549E0
9.382252765E0,9.921741486E-2,-1.784423232E0,2.468202114E0,3.047299139E0
9.399067372E0,1.212163925E0,-2.325438261E0,2.669341087E0,3.741976260E0
9.415865528E0,2.245472908E0,-1.988404870E0,1.836499929E0,3.516906951E0
9.432682261E0,3.613948822E0,-1.734951615E0,4.336674213E-1,4.032214110E0
9.449492717E0,5.730916977E0,-1.942732930E0,-3.222590685E0,6.855852344E0
9.466298971E0,7.722261429E0,-1.859276295E0,-6.210304260E0,1.008256460E1
9.483111562E0,6.885583878E0,-7.912979126E-1,-4.796092033E0,8.428518050E0
9.499913760E0,4.266981125E0,9.354325533E-1,-3.712516785E0,5.732795379E0
9.516725466E0,1.624102592E0,1.608180285E0,-5.342791557E0,5.811142287E0
9.533530001E0,-8.037881851E-1,2.064018250E0,-8.944370270E0,9.214554048E0
9.550350569E0,-3.117614269E0,2.893437862E0,-8.365792274E0,9.384987042E0
9.567149804E0,-5.378497124E0,5.170594692E0,-2.906468868E0,8.006924632E0
9.583957441E0,-4.949406624E0,2.919274807E0,5.452146530E0,7.921154784E0
9.600766850E0,-3.045688152E0,-2.433276922E-1,7.097684860E0,7.727389926E0
9.617575271E0,-7.978248596E-1,-4.961768627E0,2.787083149E0,5.746608121E0
9.634390742E0,-2.483968735E-1,-6.984893799E0,-2.573014259E0,7.447875185E0
9.651190324E0,-1.878652573E-1,-5.272302628E0,-5.105955124E0,7.341883006E0
9.667998195E0,-2.883996964E-1,-2.627238274E0,-4.966726780E0,5.626182563E0
9.684808915E0,-7.359766960E-1,-1.122961521E0,-3.936503887E0,4.159178660E0
9.701616583E0,-1.392081738E0,-1.077990413E0,-2.605094910E0,3.144276448E0
9.718426796E0,-1.976923943E0,-1.269316435E0,-1.419590712E0,2.744928100E0
9.735232744E0,-2.612504482E0,-2.150022238E-1,-4.321908951E-2,2.621692872E0
9.752041206E0,-1.943528652E0,1.011246324E0,-3.078913689E-1,2.212401375E0
9.768836252E0,1.263914108E-1,1.632772446E0,6.671833992E-1,1.768347912E0
9.785656442E0,2.364418983E0,2.515890360E0,3.188001156E0,4.699311950E0
9.802452351E0,2.829911232E0,2.946241856E0,5.650985718E0,6.972974848E0
9.819277649E0,2.425902367E0,4.115194321E0,3.373008013E0,5.847820931E0
9.836080953E0,1.729413986E0,5.412718773E0,1.308245420E0,5.830943605E0
9.852889415E0,2.523701668E0,3.830004930E0,4.048253059E0,6.117708779E0
9.869699830E0,3.243181229E0,1.192293048E0,3.214447498E0,4.719370712E0
9.886507610E0,3.736540794E0,7.950550318E-2,1.763625860E0,4.132606249E0
9.903302197E0,5.944763184E0,-7.749758661E-2,2.263189316E0,6.361465324E0
9.920121431E0,8.953683853E0,-1.807199001E0,1.563287020E0,9.267053959E0
9.936935631E0,5.863193512E0,-4.493843555E0,-3.072759390E0,8.000844851E0
9.953728661E0,1.619472504E-1,-4.780265331E0,-7.855038643E0,9.196673074E0
9.970550388E0,-3.713006973E0,-3.904047728E0,-8.156938553E0,9.775666524E0
9.987355890E0,-5.305547714E0,-2.664156199E0,-4.976482391E0,7.746737493E0
1.000416630E1,-4.967822552E0,-1.307512641E0,-2.025071144E0,5.521753648E0
1.002097540E1,-2.303010941E0,-5.982385278E-1,6.773996353E-1,2.473988479E0
1.003777734E1,9.543466568E-1,-2.814353108E-1,7.921012878E0,7.983259259E0
1.005459202E1,1.255775452E0,2.302339673E-2,1.217993355E1,1.224452054E1
1.007140030E1,-7.186431885E-1,-4.237514436E-1,8.686956406E0,8.726925284E0
1.008820315E1,-1.563915253E0,-1.046111226E0,3.587880373E0,4.051304134E0
1.010501653E1,-1.212767601E0,-2.009611607E0,-7.708137512E0,8.057588223E0
1.012182246E1,-4.340429306E-1,-2.318754435E0,-1.729923439E1,1.745933922E1
1.013863003E1,-8.772363663E-1,-8.175362945E-1,-1.223211765E0,1.712937902E0
1.015544190E1,-7.073650360E-1,4.582729936E-1,1.959033251E0,2.132648754E0
1.017224657E1,-3.011865616E-1,1.192635298E0,5.675106049E-1,1.354680990E0
1.018905790E1,-8.635559082E-1,1.924619794E0,1.872906685E-1,2.117774292E0
1.020586598E1,-1.543772697E0,2.395167589E0,1.473098040E0,3.207815418E0
1.022267730E1,-1.618800163E0,2.404505253E0,3.152244091E-1,2.915737627E0
1.023947982E1,-1.452215195E0,2.156815290E0,-5.394620895E-1,2.655522644E0
1.025628978E1,-1.379729271E0,2.008721352E0,-2.894099951E-1,2.454052256E0
1.027309884E1,-1.458681107E0,8.292613626E-1,8.271478415E-1,1.870721393E0
1.028989315E1,-1.261928558E0,6.708857417E-2,1.683770180E0,2.105242642E0
1.030671280E1,-1.111542702E0,-1.107791364E-1,5.125462055E0,5.245775488E0
1.032352328E1,1.071904182E0,-1.025213242E0,7.408347607E0,7.555372594E0
1.034033192E1,3.196267128E0,-2.496117592E0,5.606158733E0,6.919229894E0
1.035712048E1,2.897084236E0,-2.703490257E0,3.951134682E0,5.595839697E0
1.037394388E1,1.010582924E0,-1.264641285E-1,2.415211678E0,2.621167387E0
1.039076790E1,-4.482307434E-1,2.349262714E0,1.475265861E0,2.810045455E0
1.040756080E1,-1.710453033E0,1.495559931E0,1.339170456E0,2.637371153E0
1.042437480E1,-1.937123775E0,3.579219878E-1,7.322073579E-1,2.101590894E0
1.044118111E1,-2.354335785E-2,-1.752096415E0,2.441800356E0,3.005459218E0
1.045798710E1,2.071312904E0,-3.499515533E0,2.572925091E0,4.812160600E0
1.047479751E1,2.664662361E0,-3.423013687E0,1.703558564E0,4.660424871E0
1.049160546E1,4.036976814E0,-2.134891272E0,2.048844337E0,5.005267791E0
1.050840125E1,5.639795303E0,-8.516374826E-1,3.293753862E0,6.586455190E0
1.052522704E1,6.995456696E0,-1.029629186E-1,1.489395142E0,7.152993334E0
1.054202664E1,6.976794243E0,1.797902882E-1,1.309509277E-1,6.980338860E0
1.055883740E1,4.500005722E0,1.716960430E0,-4.974477768E0,6.924119704E0
1.057564714E1,3.765821457E-1,4.253636360E0,-1.409632206E1,1.472893520E1
1.059245721E1,-2.686541557E0,2.159829140E0,-9.639263153E0,1.023707779E1
1.060927276E1,-3.952083588E0,-3.311412930E-1,-4.632608414E0,6.098334195E0
1.062607117E1,-5.330512047E0,-1.121075034E0,1.223402739E0,5.582820271E0
1.064287881E1,-3.575882912E0,-1.892006159E0,7.074284077E0,8.149363233E0
1.065968794E1,-2.180670261E0,-5.650289059E0,4.144851208E0,7.338997259E0
1.067649471E1,-5.879116058E-1,-5.605467319E0,-6.829831600E-1,5.677443960E0
1.069330411E1,8.824186325E-1,2.228552103E-1,-2.935195446E0,3.073060265E0
1.071011370E1,4.633903503E-1,-5.303874016E-1,-5.292489052E0,5.339146165E0
1.072692259E1,-8.701324463E-3,-1.985950947E0,-6.641771317E0,6.932330279E0
1.074373764E1,-1.192895412E0,-2.588922262E0,-4.260787487E0,5.126385467E0
1.076053709E1,-2.767995358E0,-2.129090309E0,-1.900728941E0,3.975876551E0
1.077733271E1,-3.490001678E0,-1.409971237E0,1.525864601E-1,3.767149218E0
1.079415490E1,-3.158177376E0,-6.855738163E-2,2.040620804E0,3.760707077E0
1.081096102E1,-1.116866112E0,2.607757449E-1,2.504688501E0,2.754788266E0
1.082777120E1,-3.948802948E-1,8.537369967E-1,1.136939526E0,1.475611328E0
1.084456723E1,1.917140007E0,1.674367428E0,1.763118029E0,3.096371630E0
1.086139492E1,3.167750359E0,3.751911640E0,5.734221458E0,7.549356199E0
1.087818542E1,3.452580452E0,5.656549931E0,1.101807022E1,1.285747799E1
1.089500489E1,2.413328171E0,4.367111683E0,4.875997066E0,6.976472225E0
1.091179908E1,2.716255188E-1,2.416055679E0,1.680526972E0,2.955550096E0
1.092862260E1,1.655781746E0,2.240747213E0,1.451974392E0,3.141781485E0
1.094543449E1,8.277346611E0,2.294942856E0,4.480736732E0,9.688045793E0
1.096223648E1,1.574767113E1,-4.223795235E-2,-3.579618454E0,1.614944576E1
1.097903797E1,8.017971992E0,-6.436280727E0,-1.504640293E1,1.822382577E1
1.099585177E1,8.853054047E-2,-5.946555138E0,-9.106584549E0,1.087654531E1
1.101266074E1,-4.120455742E0,-4.589848995E0,-2.109378576E0,6.518768848E0
1.102946762E1,-6.128237724E0,-4.564086914E0,9.262435436E-1,7.697019817E0
1.104628056E1,-4.960075378E0,-4.599447250E0,2.823352814E0,7.329978436E0
1.106308557E1,-1.610880852E0,-3.745520353E0,5.170688629E0,6.584821997E0
1.107989512E1,1.065082550E0,-2.429112673E0,9.843387604E0,1.019447246E1
1.109670353E1,7.189159393E-1,-2.345792294E0,1.228952599E1,1.253204016E1
1.111351167E1,-4.018955231E-1,-2.164081812E0,6.658967972E0,7.013317656E0
1.113032146E1,-1.218826294E0,-1.137795210E0,-2.497672319E0,3.003078835E0
1.114713283E1,1.459026337E-2,-1.974373162E-1,-2.360676765E1,2.360759779E1
1.116393698E1,-9.111881256E-1,-2.623439431E-1,-4.083284378E0,4.191932664E0
1.118074284E1,-6.379251480E-1,1.668001115E-1,2.671225309E0,2.751402447E0
1.119755096E1,-1.366939545E-1,7.009016275E-1,1.375850916E0,1.550133566E0
1.121436142E1,-6.134176254E-1,6.652878523E-1,6.760594845E-1,1.129577592E0
1.123116908E1,-1.393918037E0,8.045005798E-1,5.496206284E-1,1.700679721E0
1.124797620E1,-1.367913246E0,8.257198930E-1,-5.004889965E-1,1.674362334E0
1.126478457E1,-1.009815216E0,4.335575700E-1,-1.639648438E0,1.973865734E0
1.128159416E1,-6.981992722E-1,-8.208435774E-2,-1.212706804E0,1.401741010E0
1.129839888E1,-8.694295883E-1,1.542156935E-1,7.799044847E-1,1.178109203E0
1.131520505E1,-1.351875305E0,5.506398678E-1,2.615659237E0,2.995403871E0
1.133202083E1,-1.656556129E0,4.937385917E-1,5.224250317E0,5.502794506E0
1.134882686E1,-1.450355530E0,2.352595329E-4,6.483159065E0,6.643408966E0
1.136563522E1,6.558074951E-1,-2.615183890E-1,5.497926712E0,5.543074370E0
1.138244183E1,2.051374435E0,-1.479921341E0,3.503597498E0,4.321284494E0
1.139924322E1,1.400681496E0,-2.462252617E0,2.887989521E0,4.045377618E0
1.141605678E1,2.607803345E-1,5.102491379E-2,2.364764452E0,2.379647209E0
1.143287132E1,-8.599214554E-1,3.034590006E0,3.010509491E0,4.360202840E0
1.144967110E1,-9.868478775E-1,1.937804222E0,3.375508547E0,4.015347044E0
1.146648761E1,-1.035746574E0,-5.784432888E-1,3.800506115E0,3.981358353E0
1.148329204E1,2.057199478E-1,-3.084154606E0,4.130776405E0,5.159229016E0
1.150010404E1,1.493808746E0,-3.213292599E0,2.690199852E0,4.449032382E0
1.151690494E1,3.470460892E0,-1.703956723E0,1.998890877E0,4.352370854E0
1.153372152E1,5.614778519E0,-2.392259836E-1,1.944384933E0,5.946730165E0
1.155052530E1,8.030192375E0,-2.366082221E-1,5.366994143E-1,8.051584893E0
1.156733453E1,8.661277771E0,2.108845234E0,-8.619176865E0,1.239980527E1
1.158414136E1,6.508544922E0,3.102685928E0,-7.521914482E0,1.041954963E1
1.160095029E1,2.733956337E0,2.457299232E0,-4.632431030E0,5.913734355E0
1.161775932E1,1.173009872E-1,1.781570792E0,-4.648098469E0,4.979214133E0
1.163456654E1,-2.317156315E0,1.004181981E0,-5.693344593E0,6.228303741E0
1.165137872E1,-4.026145458E0,-8.324635029E-2,-6.931025505E0,8.015977280E0
1.166818594E1,-5.062551498E0,-2.813181579E-1,-1.917269826E0,5.420746366E0
1.168499089E1,-5.303624153E0,-1.070948839E0,4.267436028E0,6.891035541E0
1.170179648E1,-2.206819057E0,-9.293240309E-1,7.814718246E0,8.173341714E0
1.171861372E1,-5.305137634E-1,-2.600165844E0,3.304828644E0,4.238419474E0
1.173542108E1,-4.411745071E-1,-3.960187912E0,-1.515319824E0,4.263087779E0
1.175222499E1,3.539085388E-1,-4.378329277E0,-5.223021984E0,6.824586226E0
1.176903124E1,5.257234573E-1,-3.701766968E0,-7.510060787E0,8.389307293E0
1.178583813E1,-3.575963974E-1,-2.559976816E0,-5.937395096E0,6.475647999E0
1.180265155E1,-1.292657375E0,-1.754917622E0,-3.405087948E0,4.042934934E0
1.181946260E1,-2.011060715E0,-1.582895994E0,-4.945731163E-1,2.606631446E0
1.183626491E1,-2.404484272E0,-1.439449310E0,1.025310993E0,2.984094765E0
1.185306554E1,-2.181355953E0,-5.476514101E-1,1.234254360E0,2.565466758E0
1.186988112E1,-8.969154358E-1,5.452362895E-1,1.630552769E0,1.939185974E0
1.188668131E1,1.181423187E0,1.232125282E0,1.599369049E0,2.339203885E0
1.190349306E1,2.822554588E0,1.459408164E0,1.417978764E0,3.479561807E0
1.192031546E1,2.170598984E0,2.792860270E0,4.033660889E0,5.364884770E0
1.193711703E1,1.206222534E0,4.651979446E0,6.991791725E0,8.484163901E0
1.195392341E1,9.618301392E-1,5.434175491E0,6.610702515E0,8.611432414E0
1.197072912E1,1.947803497E0,3.583850861E0,3.572929859E0,5.422522774E0
1.198753106E1,2.871939659E0,1.442219138E0,2.045812607E0,3.809643378E0
1.200434752E1,5.778362274E0,1.098441124E0,2.296400070E0,6.314229704E0
1.202115854E1,9.857791901E0,-2.856884152E-2,-3.827526569E-1,9.865261118E0
1.203796644E1,8.189781189E0,-3.216910124E0,-6.372717381E0,1.086427878E1
1.205477442E1,7.142362595E-1,-5.120529652E0,-1.056476116E1,1.176197839E1
1.207158005E1,-4.320569038E0,-4.613398552E0,-5.791300774E0,8.572626649E0
1.208839295E1,-4.850780487E0,-3.392503023E0,-2.144994736E0,6.296042448E0
1.210519864E1,-1.968430042E0,-2.790970325E0,-6.846801043E-1,3.483248345E0
1.212200664E1,2.391028404E0,-2.963600636E0,3.151885271E0,4.943108973E0
1.213881538E1,3.057018280E0,-3.495319843E0,7.241171837E0,8.602162004E0
1.215562243E1,-7.094974518E-1,-1.902114511E0,1.031667233E1,1.051452111E1
1.217243468E1,-2.932799816E0,-5.370370150E-1,8.311913490E0,8.830494289E0
1.218924123E1,-2.971714973E0,-2.820460796E-1,2.929462671E0,4.182390634E0
1.220604781E1,-1.238282204E0,-3.116764307E0,-2.192987251E1,2.218483426E1
1.222285565E1,-7.960252762E-1,-3.003411293E0,-8.592914581E0,9.137413017E0
1.223967721E1,-1.614462852E0,-1.929651976E0,9.948453903E-1,2.705506311E0
1.225647293E1,-1.660349369E0,-3.423748910E-1,1.913252115E0,2.556269596E0
1.227327817E1,-1.314321518E0,3.873232007E-2,-2.708609104E-1,1.342500234E0
1.229009041E1,-1.301558495E0,5.797070265E-1,-7.930713892E-1,1.630667648E0
1.230689933E1,-7.734518051E-1,1.917960644E0,-8.850913048E-1,2.249486018E0
1.232370575E1,1.204395294E-2,2.307570696E0,-6.479473114E-1,2.396844445E0
1.234050452E1,1.129369736E-1,2.140252590E0,-1.171866655E-1,2.146431603E0
1.235732162E1,-3.958072662E-1,1.405027986E0,4.563193321E-1,1.529377117E0
1.237411949E1,-1.129159927E0,4.492661357E-1,1.433200479E0,1.879070465E0
1.239093456E1,-1.805771351E0,-3.934819698E-1,3.166497707E0,3.666380499E0
1.240774959E1,-1.157282829E0,-2.589183748E-1,3.645912647E0,3.833930268E0
1.242455655E1,2.550783157E-1,7.370213866E-1,2.312426329E0,2.440405908E0
1.244136371E1,1.064920425E-1,1.048984170E0,5.014684200E0,5.124330783E0
1.245816172E1,-2.913169861E-1,-8.721286058E-2,7.382468224E0,7.388728493E0
1.247497666E1,-2.462291718E-2,-1.730167747E0,6.103238106E0,6.343784525E0
1.249178492E1,4.034595490E-1,-1.698952198E0,4.125049591E0,4.479425444E0
1.250859707E1,4.310436249E-1,-3.395107388E-1,3.461083889E0,3.504307041E0
1.252540584E1,-2.899484634E-1,9.115356207E-2,2.098658085E0,2.120552956E0
1.254221351E1,-7.053556442E-1,-9.197027683E-1,1.805560350E0,2.145560054E0
1.255902217E1,4.868888855E-1,-2.457058668E0,2.998880148E0,3.907362311E0
1.257582775E1,1.898291588E0,-2.870757341E0,3.326725483E0,4.786633588E0
1.259263743E1,2.968914986E0,-1.589325786E0,2.991237402E0,4.504210679E0
1.260944553E1,4.956645012E0,-2.969842255E-1,1.393430710E0,5.157342198E0
1.262625519E1,6.465929985E0,5.329436064E-1,-3.732975483E0,7.485144315E0
1.264306391E1,7.186179161E0,1.361126900E0,-8.671905518E0,1.134441637E1
1.265986967E1,5.934426308E0,2.558233440E-1,-5.697048664E0,8.230384236E0
1.267667842E1,2.486115456E0,3.931123614E-1,-3.331200600E0,4.175189196E0
1.269348850E1,-7.299737930E-1,1.802970320E-1,-2.772351265E0,2.872507667E0
1.271029914E1,-3.496837139E0,1.556519568E-1,-4.018221378E0,5.328996205E0
1.272710262E1,-4.378197193E0,-6.999713182E-1,-4.666604042E0,6.437061736E0
1.274390582E1,-4.990561008E0,-1.413236380E0,-1.139142036E0,5.310421906E0
1.276070789E1,-4.300882339E0,-1.144639015E0,2.393764734E0,5.053503436E0
1.277752940E1,-1.738902092E0,-1.431811452E0,6.378134727E0,6.764204840E0
1.279433616E1,7.658386230E-2,-2.836431265E0,3.115205765E0,4.213753002E0
1.281114494E1,2.096557617E-1,-3.724390507E0,-9.667282104E-1,3.853518343E0
1.282794329E1,8.003025055E-1,-4.140900612E0,-5.099896431E0,6.617891325E0
1.284476323E1,8.713140488E-1,-3.143651962E0,-6.727272511E0,7.476491909E0
1.286155748E1,-1.379051208E-1,-1.623213291E0,-5.079291821E0,5.334139538E0
1.287838331E1,-9.882688522E-1,-1.154845238E0,-2.633632660E0,3.040783425E0
1.289518970E1,-1.470973492E0,-1.857879639E0,-6.946914196E-1,2.469428260E0
1.291199297E1,-1.453098774E0,-2.500201702E0,-3.581523895E-3,2.891801761E0
1.292880220E1,-1.558407784E0,-1.298463821E0,1.210932732E0,2.362414273E0
1.294561187E1,-2.030241489E0,5.274701118E-1,3.192524195E0,3.819989000E0
1.296243733E1,-1.159806252E0,1.989371061E0,3.371073008E0,4.082509153E0
1.297922423E1,2.784967422E-1,2.559866905E0,3.957978964E0,4.721872138E0
1.299603814E1,1.306598663E0,2.705325603E0,5.040246487E0,5.867714319E0
1.301284409E1,3.410596848E-1,3.421383381E0,4.589373112E0,5.734503597E0
1.302965414E1,-8.181362152E-1,3.851721048E0,4.831102371E0,6.232547795E0
1.304644840E1,-7.932662964E-3,2.726059198E0,4.856789589E0,5.569548168E0
1.306327006E1,1.581498146E0,1.412984371E0,2.662791491E0,3.404132744E0
1.308007983E1,4.994666100E0,5.422224998E-1,2.425580978E0,5.578901125E0
1.309688623E1,1.087752724E1,-2.835195065E-1,6.770050526E-1,1.090226206E1
1.311369337E1,1.389759922E1,-3.390387774E0,-7.022674561E0,1.593599546E1
1.313050164E1,5.025707245E0,-5.665021896E0,-1.269155121E1,1.477923132E1
1.314731079E1,-2.172253609E0,-4.753840446E0,-5.533837318E0,7.611901221E0
1.316412141E1,-6.192264080E0,-2.752630711E0,-2.180014133E0,7.118537201E0
1.318092608E1,-6.159687042E0,-1.323188543E0,2.365281582E-1,6.304642571E0
1.319773567E1,-1.506070137E0,-1.604111552E0,1.980524063E0,2.960387930E0
1.321454466E1,2.411544800E0,-1.382127523E0,7.928833008E0,8.401917500E0
1.323135062E1,1.224336624E0,4.835669994E-1,1.256416798E1,1.263293925E1
1.324815977E1,-1.386506081E0,6.923385859E-1,1.020621490E1,1.032320466E1
1.326496884E1,-1.645846844E0,5.942517519E-2,4.420189381E0,4.717034804E0
1.328176408E1,-1.633968353E-1,-2.540500879E0,-1.133172226E1,1.161416259E1
1.329858393E1,5.099182129E-1,-5.523726940E0,-1.907732964E1,1.986746290E1
1.331538206E1,-9.759492874E-1,-4.250115395E0,-3.159480095E-1,4.372159766E0
1.333219827E1,-1.339965820E0,-1.976416588E0,2.720015049E0,3.619421611E0
1.334900042E1,-7.314834595E-1,-8.617606163E-1,2.801663876E-1,1.164556832E0
1.336581085E1,-1.281185150E0,-5.301406980E-2,-1.055571198E0,1.660866170E0
1.338262648E1,-1.149583817E0,1.021279931E0,-6.643671989E-1,1.675093855E0
1.339943143E1,-5.756568909E-1,1.207930565E0,-2.784436941E-1,1.366750890E0
1.341624349E1,-6.451826096E-1,8.693295121E-1,1.163332462E-1,1.088819464E0
1.343304695E1,-1.187286377E0,6.158289909E-1,5.712622404E-1,1.454384693E0
1.344986477E1,-1.180121422E0,5.769947767E-1,1.316906571E0,1.860067864E0
1.346666570E1,-9.377708435E-1,8.549228907E-1,2.153665066E0,2.499716088E0
1.348348045E1,-6.991205215E-1,1.013656020E0,3.328712225E0,3.549167946E0
1.350028226E1,-6.911001205E-1,1.119934320E0,3.602342844E0,3.835198329E0
1.351709207E1,-9.810400009E-1,2.139406681E0,4.111659050E0,4.737640824E0
1.353390300E1,-8.842563629E-1,3.253770351E0,5.712213039E0,6.633122087E0
1.355070691E1,2.269306183E-1,3.341605186E0,4.276405811E0,5.431893720E0
1.356751597E1,9.430217743E-1,2.213070989E-1,3.802829742E0,3.924255464E0
1.358432651E1,1.780045509E0,-2.429922581E0,5.806893826E0,6.541643652E0
1.360113224E1,1.902173042E0,-3.382453442E0,3.822320700E0,5.446961456E0
1.361794044E1,1.026572227E0,-2.986253262E0,1.845734358E0,3.657635083E0
1.363474896E1,9.157791138E-1,-2.844886065E0,2.259657383E0,3.746742531E0
1.365155798E1,1.319979668E0,-2.928985119E0,1.804326534E0,3.684683757E0
1.366836688E1,2.350026131E0,-2.838880777E0,1.330265880E0,3.918095736E0
1.368517456E1,3.227590561E0,-2.979778767E0,1.034253955E0,4.512881958E0
1.370198149E1,4.453208923E0,-2.813401461E0,-1.113639474E0,5.383910324E0
1.371879155E1,5.544630051E0,-4.708334804E-1,-3.944949150E0,6.821087183E0
1.373560236E1,7.121078491E0,6.014512777E-1,-6.034186840E0,9.353230102E0
1.375239702E1,5.068943977E0,1.301877975E0,-5.251479149E0,7.413980885E0
1.376923245E1,1.558955193E0,2.094430447E0,-3.970821619E0,4.752305179E0
1.378602124E1,-1.130815029E0,2.060881138E0,-5.901117802E0,6.352099260E0
1.380282512E1,-3.453741074E0,2.147602797E0,-6.217237473E0,7.429304608E0
1.381964042E1,-5.479615211E0,3.023310184E0,-3.182304382E0,7.020943563E0
1.383643737E1,-4.364680767E0,1.221523166E0,1.446974754E0,4.757761341E0
1.385325834E1,-2.600752831E0,-1.222942352E0,4.920491219E0,5.698310023E0
1.387006767E1,-1.031383514E0,-3.860860348E0,4.812187672E0,6.255169443E0
1.388687216E1,-7.882294655E-1,-5.611371040E0,-5.822098255E-1,5.696293437E0
1.390368386E1,-1.897201538E-1,-4.849704266E0,-5.061192036E0,7.012224328E0
1.392048637E1,2.747917175E-1,-3.324568272E0,-5.964227676E0,6.833760053E0
1.393730147E1,-8.448505402E-2,-2.025725365E0,-5.030439854E0,5.423654312E0
1.395410271E1,-1.022275925E0,-1.189493418E0,-3.664086342E0,3.985658211E0
1.397091776E1,-1.903667450E0,-9.037326574E-1,-1.779195547E0,2.757937503E0
1.398772327E1,-2.663328648E0,-5.104373693E-1,-2.907838821E-1,2.727346890E0
1.400453014E1,-2.278129101E0,2.993706465E-1,7.646188736E-1,2.421598027E0
1.402133900E1,-6.748170853E-1,7.301889062E-1,2.191797018E0,2.406767148E0
1.403814628E1,1.055233955E0,1.435146928E0,3.873355865E0,4.263338019E0
1.405495948E1,2.134750366E0,2.122115850E0,4.229235649E0,5.191047003E0
1.407176297E1,5.975818634E-1,2.946552753E0,6.258962631E0,6.943622285E0
1.408857029E1,-1.455154419E-1,4.468249798E0,5.297632217E0,6.931907249E0
1.410537106E1,2.738676071E-1,4.159176826E0,2.539226532E0,4.880719898E0
1.412217921E1,2.076978683E-1,3.565234184E0,2.981549740E0,4.652276007E0
1.413900008E1,1.705808640E0,1.150779486E0,1.685417891E0,2.659832702E0
1.415580159E1,5.979072571E0,1.231017113E-1,2.377563238E0,6.435625050E0
1.417261543E1,1.297664070E1,-6.283417344E-1,-1.248903275E-1,1.299244453E1
1.418943082E1,1.248702145E1,-4.616604805E0,-6.817218781E0,1.495704571E1
1.420623110E1,2.050822258E0,-5.820377827E0,-1.029123974E1,1.199967855E1
1.422303828E1,-3.976633549E0,-4.760805607E0,-5.969398499E0,8.608867686E0
1.423984749E1,-6.915474892E0,-2.753590584E0,-1.740304947E0,7.644260290E0
1.425664982E1,-5.601044178E0,-2.222646952E0,5.632374287E-1,6.052197267E0
1.427346594E1,-1.151193619E0,-2.423083544E0,1.741468906E0,3.198326838E0
1.429026449E1,3.011774063E0,-2.746361494E0,5.338616371E0,6.716703747E0
1.430708096E1,3.046226501E0,-2.558484554E0,6.725318432E0,7.813785710E0
1.432387633E1,-5.041961670E-1,-1.271155000E0,6.447257996E0,6.590689226E0
1.434069283E1,-2.320393085E0,2.649901509E-1,5.895120621E0,6.340890394E0
1.435750732E1,-2.264510632E0,-1.040523499E-2,2.287999392E0,3.219170372E0
1.437431379E1,-6.537141800E-1,-2.196528912E0,-1.411769867E1,1.430249968E1
1.439112026E1,-3.271017075E-1,-2.959770918E0,-1.152062798E1,1.189924823E1
1.440793137E1,-1.344027519E0,-1.416501284E0,1.358215809E-1,1.957379207E0
1.442473671E1,-1.644326687E0,-2.139380127E-1,1.919081926E0,2.536228532E0
1.444154328E1,-8.089466095E-1,-9.347481281E-2,3.457829952E-1,8.847022309E-1
1.445835485E1,-4.411916733E-1,1.783423424E-1,-1.836434841E0,1.897089616E0
1.447516323E1,-7.355155945E-1,1.016580462E0,-1.424848795E0,1.898581869E0
1.449196937E1,-1.099345207E0,1.841419339E0,-1.252861023E0,2.483756391E0
1.450877906E1,-1.252797127E0,1.885985374E0,-8.687512875E-1,2.425112425E0
1.452558718E1,-1.050269127E0,1.065892816E0,1.738975048E-1,1.506463765E0
1.454239891E1,-1.036478043E0,4.617542624E-1,2.286015511E0,2.552130609E0
1.455920166E1,-1.220502853E0,6.461453438E-2,3.733142376E0,3.928123503E0
1.457601400E1,-1.336193085E0,2.992148697E-1,3.382220030E0,3.648883915E0
1.459281950E1,-7.569408417E-1,1.205424428E0,3.915852785E0,4.166522594E0
1.460962739E1,1.929521561E-1,1.171991706E0,5.092268467E0,5.228957184E0
1.462644052E1,1.677150726E-1,-3.361095190E-1,4.276553631E0,4.293018625E0
1.464324438E1,1.390399933E-1,-1.336322308E0,3.941425562E0,4.164123544E0
1.466005383E1,1.066737175E0,-1.588172078E0,5.334879875E0,5.667553443E0
1.467686071E1,1.221417427E0,1.417484581E-1,4.944163322E0,5.094772234E0
1.469367238E1,9.407997131E-2,8.376719356E-1,3.168396950E0,3.278610154E0
1.471047665E1,-2.633886337E-1,-2.982273698E-2,2.117631435E0,2.134156945E0
1.472728676E1,1.153198242E0,-1.877408028E0,1.591072559E0,2.717726803E0
1.474408413E1,2.497705460E0,-2.064178467E0,1.017174125E0,3.396175571E0
1.476089851E1,3.937129974E0,-1.027466536E0,1.401310802E0,4.303527841E0
1.477770807E1,5.866072655E0,-1.415649652E-1,1.207154274E0,5.990665278E0
1.479452011E1,6.904992104E0,5.724662542E-2,-3.984845400E0,7.972526951E0
1.481131526E1,7.432170868E0,3.576312959E-1,-3.701734543E0,8.310710113E0
1.482813287E1,5.637229919E0,6.817498803E-2,-4.425968647E0,7.167440789E0
1.484494581E1,1.922998428E0,7.961162925E-1,-4.716002464E0,5.154842709E0
1.486174836E1,-1.175167084E0,1.116373539E0,-6.027554512E0,6.241692154E0
1.487856321E1,-2.551523685E0,8.803318143E-1,-7.964483738E0,8.409414869E0
1.489537178E1,-3.749852657E0,1.113010168E0,-7.300876141E0,8.282691532E0
1.491217460E1,-4.763792992E0,1.466659188E0,-6.376318932E-1,5.025075847E0
1.492898512E1,-4.260728836E0,7.517648935E-1,5.297465324E0,6.839744113E0
1.494579329E1,-2.642364025E0,-7.455932498E-1,5.791903496E0,6.409691337E0
1.496260095E1,-1.258027077E0,-3.268409252E0,1.467154503E0,3.797061166E0
1.497939804E1,-1.821289062E-1,-4.072256565E0,-3.437640429E0,5.332336841E0
1.499621994E1,1.305675507E-1,-3.046737909E0,-6.331102371E0,7.027269527E0
1.501301785E1,-3.533592224E-1,-1.709699869E0,-6.453563213E0,6.685537714E0
1.502983839E1,-7.384195328E-1,-8.744173050E-1,-4.639969826E0,4.779036411E0
1.504664357E1,-1.098804951E0,-9.530947208E-1,-3.040298462E0,3.370337758E0
1.506345207E1,-1.826458931E0,-7.342051268E-1,-1.396884918E0,2.413772332E0
1.508025759E1,-2.339704990E0,-8.114948869E-3,5.177631378E-1,2.396323009E0
1.509706710E1,-1.458101749E0,7.465975285E-1,1.741774559E0,2.391076577E0
1.511387694E1,3.924369812E-1,6.518017650E-1,3.551937819E0,3.632508031E0
1.513068269E1,1.723482132E0,8.390259743E-1,4.429106712E0,4.826110392E0
1.514749188E1,1.310380936E0,1.748891115E0,4.127076149E0,4.669954590E0
1.516429593E1,-4.847707748E-1,4.225711823E0,6.465342522E0,7.739011373E0
1.518111083E1,1.733093262E-1,4.893280506E0,5.669344902E0,7.491041440E0
1.519791785E1,1.597618103E0,4.114118099E0,4.755924702E0,6.488233281E0
1.521472460E1,4.081537247E0,1.449041247E0,2.122176170E0,4.823100510E0
1.523153237E1,8.896652222E0,7.539566755E-1,2.173355818E0,9.189251707E0
1.524834189E1,1.457777786E1,-1.243783236E0,-4.844353676E0,1.541189043E1
1.526512917E1,8.974209785E0,-5.959282875E0,-1.399042511E1,1.765733526E1
1.528195675E1,5.262374878E-2,-5.492369175E0,-1.139533043E1,1.264999779E1
1.529875686E1,-4.697448730E0,-3.727051020E0,-4.228009701E0,7.337097513E0
1.531557533E1,-6.767275810E0,-2.539567947E0,-3.708643913E-1,7.237607868E0
1.533238851E1,-3.815514088E0,-2.110593081E0,3.237633228E0,5.430931764E0
1.534918775E1,1.487519264E0,-1.861510515E0,6.497941017E0,6.921067289E0
1.536600174E1,4.397530556E0,-1.612597942E0,7.034585953E0,8.451280769E0
1.538280293E1,2.086428642E0,-5.389581919E-1,7.839686394E0,8.130457746E0
1.539962063E1,-1.275342941E0,7.375789881E-1,6.746050835E0,6.905050633E0
1.541642324E1,-2.129493713E0,9.863117933E-1,2.796440363E0,3.650703101E0
1.543325296E1,-7.872190475E-1,-9.813024998E-1,-9.728671074E0,9.809674270E0
1.545004247E1,-4.336404800E-1,-2.917557716E0,-1.677969742E1,1.703697252E1
1.546684898E1,-1.010318756E0,-2.219958305E0,-2.191767216E0,3.279146595E0
1.548365542E1,-1.448379040E0,-7.241789103E-1,1.621524572E0,2.291632361E0
1.550046491E1,-9.058866501E-1,-1.245125309E-1,4.656531811E-1,1.026141744E0
1.551727287E1,-6.177711487E-1,-3.941190839E-1,-1.784978509E0,1.929538629E0
1.553408308E1,-9.883623123E-1,6.254556775E-1,-1.100804329E0,1.606183375E0
1.555088875E1,-1.260579109E0,1.366272330E0,-1.322505474E-1,1.863665737E0
1.556769826E1,-1.514918327E0,1.162137270E0,-3.395318985E-2,1.909631742E0
1.558450908E1,-2.051521778E0,1.276619911E0,8.148117065E-1,2.549983945E0
1.560131181E1,-2.731260300E0,1.507199287E0,1.834130406E0,3.618765931E0
1.561812162E1,-2.383947849E0,1.701522112E0,2.630546570E0,3.936770263E0
1.563491892E1,-9.055967331E-1,1.403058767E0,2.750006676E0,3.217330580E0
1.565173827E1,4.982404709E-1,6.327363253E-1,4.315973759E0,4.390470170E0
1.566854637E1,1.284233093E0,-1.620310247E-1,5.584651947E0,5.732699718E0
1.568536273E1,2.211498260E0,-1.599668264E0,4.659579277E0,5.400124272E0
1.570216327E1,1.565373421E0,-2.373145580E0,3.606366158E0,4.592177126E0
1.571897938E1,8.428936005E-1,-4.702779651E-1,3.124045849E0,3.269754341E0
1.573577923E1,-1.980304718E-2,1.138707638E0,2.732435465E0,2.960278841E0
1.575257629E1,-8.237791061E-1,8.633960485E-1,1.705879688E0,2.081847800E0
1.576939897E1,-5.428953171E-1,-6.122218370E-1,8.697767258E-1,1.194178569E0
1.578620342E1,1.070269585E0,-1.629224777E0,9.085413218E-1,2.150650528E0
1.580301210E1,2.428750992E0,-2.193453789E0,1.547686100E0,3.620138556E0
1.581982514E1,4.222536087E0,-2.058340073E0,7.691869736E-1,4.760065489E0
1.583662608E1,6.034416199E0,-1.715370655E0,1.396069527E0,6.426949935E0
1.585343093E1,6.444154739E0,-1.213310480E0,2.074538946E0,6.877715061E0
1.587024378E1,7.703265190E0,2.654666901E-1,-1.190333366E0,7.799208978E0
1.588705733E1,6.620920181E0,3.564641237E0,-1.049986076E1,1.291473295E1
1.590386458E1,3.286766052E0,4.471417427E0,-9.774522781E0,1.124000447E1
1.592066892E1,4.809541702E-1,2.489100695E0,-7.986491680E0,8.379199755E0
1.593747856E1,-2.458173275E0,1.470146298E0,-7.923834801E0,8.425621872E0
1.595428811E1,-4.785478592E0,2.048338413E0,-2.467347860E0,5.760581661E0
1.597109572E1,-4.217028141E0,3.387475610E-1,4.011438370E0,5.830069815E0
1.598790268E1,-2.567596436E0,-2.110602379E0,6.255640030E0,7.083800254E0
1.600471185E1,-1.865270138E0,-3.788810253E0,2.104475498E0,4.718382450E0
1.602151923E1,-1.617424488E0,-4.523810387E0,-2.735716581E0,5.528568314E0
1.603832877E1,-1.303678989E0,-3.641385555E0,-4.664560318E0,6.059487654E0
1.605513607E1,-1.095913410E0,-1.529731989E0,-5.858967781E0,6.153747608E0
1.607194483E1,-1.518453121E0,-5.180833936E-1,-5.438660622E0,5.670373854E0
1.608875315E1,-1.693332672E0,-6.991438270E-1,-3.844683170E0,4.258845655E0
1.610556251E1,-2.157765865E0,-8.478981256E-1,-2.427089691E0,3.356433990E0
1.612236890E1,-2.547462463E0,-2.749066651E-1,-1.186831474E0,2.823775420E0
1.613916935E1,-1.625914574E0,4.222927690E-1,-1.937866211E-1,1.691000484E0
1.615598501E1,1.917772293E-1,9.166874886E-1,1.518070698E0,1.783713290E0
1.617278176E1,2.253153801E0,1.713362455E0,3.734496832E0,4.686019584E0
1.618960298E1,2.787750244E0,2.041695118E0,5.161594391E0,6.211451282E0
1.620639480E1,1.136401176E0,4.361554623E0,6.505158424E0,7.914016205E0
1.622324042E1,1.603570938E0,5.001281261E0,3.556473970E0,6.342930010E0
1.624001019E1,1.301343918E0,4.302431583E0,3.022078991E0,5.416398707E0
1.625683526E1,1.303107262E0,3.154624462E0,2.398695707E0,4.171748450E0
1.627364357E1,2.004635811E0,1.042130232E0,3.162872791E-1,2.281367528E0
1.629045136E1,5.196488380E0,9.518256187E-1,1.189744711E0,5.415252162E0
1.630725888E1,9.767861366E0,2.135132551E-1,-2.149915695E-1,9.772559795E0
1.632406649E1,8.829070091E0,-3.604121447E0,-7.044453621E0,1.185607426E1
1.634087986E1,1.664491653E0,-5.214367867E0,-1.144303799E1,1.268476579E1
1.635768463E1,-2.698941231E0,-5.038088322E0,-7.012722969E0,9.046817183E0
1.637449224E1,-3.399721146E0,-4.015297890E0,-2.808144093E0,5.963756723E0
1.639128379E1,-8.177499771E-1,-3.012907028E0,-7.932662964E-1,3.221117074E0
1.640811235E1,2.752045631E0,-2.732251644E0,2.980871439E0,4.891272712E0
1.642491901E1,3.302253723E0,-2.774315834E0,5.652406693E0,7.109951436E0
1.644172447E1,-4.849433899E-3,-1.922114372E0,5.607355595E0,5.927645733E0
1.645853495E1,-2.516130924E0,-1.381526947E0,6.139734745E0,6.777600923E0
1.647534073E1,-3.539503574E0,-4.542298317E-1,6.617791176E0,7.518614922E0
1.649214971E1,-2.140777111E0,-1.269083619E0,8.931682110E-1,2.644097072E0
1.650896170E1,-1.054452896E0,-1.195552349E0,-7.835196495E0,7.995718882E0
1.652576778E1,-2.305374146E-1,-5.850653648E-1,-1.316130161E1,1.317631622E1
1.654257498E1,-3.464393616E-1,-4.472947419E-1,-3.348475218E0,3.395935674E0
1.655939014E1,-7.732801437E-1,8.487479389E-2,8.979480267E-1,1.188055794E0
1.657619172E1,-4.948740005E-1,8.657044172E-1,-8.037387133E-1,1.280757719E0
1.659299927E1,-2.169866562E-1,9.311695099E-1,-1.731919289E0,1.978308441E0
1.660980935E1,-8.719787598E-1,8.266682625E-1,-7.262119055E-1,1.403962644E0
1.662660527E1,-1.630640984E0,3.027564585E-1,6.715110540E-1,1.789295556E0
1.664342799E1,-1.994560719E0,2.749066949E-1,2.260409832E0,3.027094111E0
1.666022207E1,-2.093728065E0,9.195259809E-1,2.431321144E0,3.337745908E0
1.667704093E1,-2.157191277E0,1.774229407E0,2.663474560E0,3.859463813E0
1.669383449E1,-1.506598473E0,2.068334818E0,2.549978733E0,3.612511511E0
1.671065724E1,-8.886117935E-1,1.853980064E0,2.927151680E0,3.577022499E0
1.672747048E1,2.290353775E-1,1.572188139E0,4.801245689E0,5.057291065E0
1.674427216E1,1.936073303E0,1.713300347E0,4.523443222E0,5.210116745E0
1.676108526E1,2.340611458E0,1.771822095E0,3.274981260E0,4.398103886E0
1.677788965E1,1.363411903E0,2.726486921E-1,3.704440594E0,3.956780186E0
1.679470168E1,3.601312637E-1,3.737168908E-1,3.815652847E0,3.850787646E0
1.681150347E1,-2.052717209E-1,3.033128381E-1,2.278427124E0,2.307675306E0
1.682831733E1,-7.517719269E-2,-2.243289798E-1,1.876562595E0,1.891418060E0
1.684512583E1,6.612319946E-1,-1.269797325E0,2.466373444E0,2.851773301E0
1.686193097E1,1.394788742E0,-1.964216352E0,2.520226002E0,3.486419454E0
1.687874448E1,2.216038704E0,-2.806123018E0,8.498573303E-1,3.675243041E0
1.689554725E1,4.669900894E0,-3.938034534E0,-1.333618999E0,6.252569871E0
1.691235620E1,7.822216988E0,-5.011573792E0,-3.491338968E0,9.924333643E0
1.692916563E1,9.951938629E0,-3.574562073E0,-8.387257576E0,1.349683912E1
1.694597276E1,7.273914337E0,1.049360394E0,-7.751183987E0,1.068137820E1
1.696277989E1,3.695287704E0,3.979589939E0,-6.537147522E0,8.498622537E0
1.697959106E1,4.808187485E-1,5.907511234E0,-6.826228142E0,9.040313396E0
1.699639994E1,-2.026569366E0,6.025647640E0,-6.572388649E0,9.143943648E0
1.701322089E1,-4.417075634E0,6.544637203E0,-2.977051735E-1,7.901358215E0
1.703001644E1,-5.221944332E0,4.911666393E0,4.358839989E0,8.390033100E0
1.704682276E1,-3.750763893E0,-5.170607567E-2,3.538446903E0,5.156695627E0
1.706363022E1,-2.237043381E0,-4.196402550E0,-8.713142872E-1,4.834598849E0
1.708042749E1,-1.674352169E0,-5.969811916E0,-2.976334095E0,6.877548557E0
1.709723585E1,-1.368417740E0,-4.872145176E0,-3.868480206E0,6.369890488E0
1.711404245E1,-1.306751251E0,-3.085844755E0,-3.619541645E0,4.932658351E0
1.713086386E1,-1.226487160E0,-2.073324442E0,-2.990812540E0,3.840300072E0
1.714766451E1,-1.578530312E0,-1.912581444E0,-2.620116711E0,3.607594393E0
1.716447894E1,-2.173747540E0,-1.259261131E0,-1.364056349E0,2.858595229E0
1.718128947E1,-2.355615616E0,-1.487493068E-1,1.293244362E-1,2.363847731E0
1.719809596E1,-1.248994350E0,6.171799898E-1,6.567897797E-1,1.540217790E0
1.721490428E1,-2.778139114E-1,1.673762679E0,1.974671602E0,2.603457319E0
1.723171224E1,9.610147476E-1,2.459470034E0,3.358256817E0,4.272052322E0
1.724852155E1,1.766510963E0,3.255794048E0,2.364983797E0,4.394758723E0
1.726532768E1,1.667883873E0,5.123473644E0,3.711823463E0,6.542893261E0
1.728213993E1,1.862852097E0,6.078104496E0,4.497815132E0,7.787420186E0
1.729894792E1,2.247336388E0,5.284554482E0,3.237506390E0,6.592304948E0
1.731575316E1,9.936103821E-1,2.930889845E0,5.553536415E-1,3.144168339E0
1.733256126E1,-7.435054779E-1,1.517922878E0,-2.790929794E0,3.262848353E0
1.734938259E1,1.070676804E0,9.283795357E-1,-3.372936249E-1,1.456710119E0
1.736617973E1,4.963856697E0,6.695587933E-2,2.136435270E0,5.404508494E0
1.738298566E1,9.110809326E0,-1.472389817E0,6.988372803E-1,9.255439044E0
1.739979416E1,8.303212166E0,-4.369508743E0,-4.081314087E0,1.023196284E1
1.741660927E1,2.362215996E0,-5.502881527E0,-8.353153229E0,1.027798319E1
1.743340052E1,-1.871826649E0,-5.428633690E0,-7.931930542E0,9.792309271E0
1.745021973E1,-1.474341393E0,-4.209794044E0,-4.790939331E0,6.545926070E0
1.746702545E1,1.139142036E0,-3.153575420E0,-1.368707418E0,3.621607724E0
1.748383774E1,2.872520447E0,-2.986531258E0,5.691996098E0,7.040565478E0
1.750064349E1,1.011557579E0,-2.468725204E0,6.852690697E0,7.353721687E0
1.751745444E1,-1.396606445E0,-1.825716138E0,5.071702957E0,5.568295957E0
1.753425959E1,-2.808753967E0,-8.941984773E-1,3.837200642E0,4.838677353E0
1.755107017E1,-3.082885265E0,-3.257163763E-1,1.643435955E0,3.508725475E0
1.756787833E1,-2.334940434E0,-2.124537975E-1,-4.094216347E0,4.718017692E0
1.758468577E1,-6.239070892E-1,-5.950226188E-1,-1.123690701E1,1.126993305E1
1.760149705E1,-8.299846649E-1,-4.798533320E-1,-4.542329311E0,4.642401247E0
1.761830303E1,-1.573380947E0,1.678816676E-1,1.500995159E-1,1.589415529E0
1.763510164E1,-1.217210770E0,6.946550608E-1,7.653973103E-1,1.596865916E0
1.765191750E1,-8.777942657E-1,7.993274927E-1,-5.238885880E-1,1.297654217E0
1.766872352E1,-1.015429497E0,1.422322989E0,-5.428265333E-1,1.829961855E0
1.768553804E1,-1.237999916E0,1.450808764E0,7.971374989E-1,2.067103784E0
1.770234094E1,-1.624060631E0,1.112604856E0,2.334558249E0,3.053788584E0
1.771914988E1,-2.034183502E0,9.604725242E-1,3.019878864E0,3.765644479E0
1.773596293E1,-2.030549526E0,8.915672898E-1,2.331971169E0,3.218091537E0
1.775276266E1,-1.641240120E0,5.157569647E-1,1.032067418E0,2.006199774E0
1.776957990E1,-1.404805183E0,-3.359754756E-2,1.262659907E0,1.889157601E0
1.778638611E1,-1.313728333E0,3.583641350E-2,2.669155836E0,2.975157014E0
1.780319351E1,-3.505897522E-1,4.125560224E-1,3.939169884E0,3.976201079E0
1.782000130E1,1.219512939E0,8.366153836E-1,4.251169205E0,4.501063954E0
1.783680909E1,2.584535599E0,1.592607737E0,3.183061600E0,4.398648066E0
1.785361659E1,2.047359467E0,2.066683769E0,4.469819069E0,5.333117765E0
1.787042810E1,9.724836349E-1,2.090731382E0,4.200723648E0,4.791968416E0
1.788723572E1,-2.908735275E-1,1.974148870E0,3.601020336E0,4.116942874E0
1.790404148E1,-5.180835724E-1,1.300520658E0,2.866033077E0,3.189656748E0
1.792086117E1,1.106394768E0,-1.102678478E-1,2.693381310E0,2.913858483E0
1.793766078E1,3.021448135E0,-1.080181003E0,1.408408284E0,3.504219418E0
1.795445641E1,4.020673752E0,-1.989810467E0,7.997370958E-1,4.556834706E0
1.797127334E1,4.717082977E0,-2.886056185E0,-3.629020452E-1,5.541830926E0
1.798808074E1,5.732601166E0,-2.915325642E0,-3.507912159E0,7.325796028E0
1.800489214E1,6.701249123E0,-2.098679543E0,-5.609822750E0,8.987842172E0
1.802169984E1,4.586595535E0,-2.127285153E-1,-5.403373718E0,7.090737590E0
1.803850608E1,2.330097198E0,1.604108095E0,-5.330092907E0,6.034269312E0
1.805529587E1,-1.344614029E-1,2.972644567E0,-4.925138474E0,5.754275330E0
1.807213060E1,-2.252872944E0,2.709237814E0,-3.931757212E0,5.279594758E0
1.808891067E1,-4.044159889E0,2.228034496E0,-8.000378609E-1,4.686088721E0
1.810573662E1,-5.188550949E0,2.937124729E0,3.125628948E0,6.731813942E0
1.812255153E1,-4.270177841E0,3.862263858E-1,5.043272972E0,6.619531093E0
1.813935575E1,-2.599658966E0,-2.164726734E0,1.143209934E0,3.570881898E0
1.815616888E1,-1.568799019E0,-3.909816980E0,-1.850801945E0,4.601441841E0
1.817295752E1,-9.886221886E-1,-4.329874992E0,-3.728955746E0,5.799163925E0
1.818978584E1,-1.113568783E0,-3.376415014E0,-4.903434753E0,6.056722394E0
1.820658948E1,-1.103223801E0,-1.911208153E0,-4.335845947E0,4.865118646E0
1.822340212E1,-1.167412758E0,-1.192326069E0,-3.255990982E0,3.658684364E0
1.824020248E1,-1.456391335E0,-1.311981201E0,-2.084771156E0,2.861580187E0
1.825701818E1,-1.912696838E0,-9.172236919E-1,-1.006633759E0,2.347982117E0
1.827382406E1,-1.947013855E0,1.845334470E-1,-2.782244682E-1,1.975430181E0
1.829063107E1,-2.007205009E0,1.702005744E0,8.340497017E-1,2.760676440E0
1.830743841E1,-9.877510071E-1,2.108617067E0,2.164307356E0,3.179016250E0
1.832426408E1,1.617527008E-1,2.745524168E0,4.105135918E0,4.941275928E0
1.834105564E1,1.055850029E0,2.984409332E0,5.381180763E0,6.243286374E0
1.835786344E1,1.917989731E0,3.472615719E0,5.222232342E0,6.558159435E0
1.837467390E1,2.251722336E0,3.536262512E0,5.155742168E0,6.645079634E0
1.839147986E1,9.062099457E-1,3.570828438E0,4.019435883E0,5.452329503E0
1.840828898E1,1.797466278E-1,2.174958706E0,6.207060814E-1,2.268927117E0
1.842508457E1,3.116974831E0,1.013370395E0,-1.498929501E0,3.604059003E0
1.844190515E1,1.053320694E1,5.258441567E-1,-3.819820881E0,1.121677280E1
1.845871326E1,1.491420746E1,-2.998310089E0,-1.076624775E1,1.863694015E1
1.847553374E1,6.154057503E0,-6.431550980E0,-1.065515709E1,1.388415083E1
1.849233246E1,2.300071716E-2,-6.024322033E0,-3.801913261E0,7.123730023E0
1.850912727E1,-3.055668831E0,-5.118159294E0,1.688950062E0,6.195580592E0
1.852594926E1,-1.671847820E0,-3.097602367E0,3.516547680E0,4.975572645E0
1.854273965E1,1.719607353E0,-3.246896029E0,4.926316261E0,6.145565489E0
1.855956247E1,1.831787109E0,-2.562782288E0,6.750973701E0,7.449761270E0
1.857635820E1,-2.614240646E-1,-1.165082455E0,6.086765289E0,6.202779325E0
1.859318211E1,-2.225101471E0,-3.078708053E-1,4.971588135E0,5.455506353E0
1.860998476E1,-2.357848644E0,-2.281670421E-1,8.338859081E-1,2.511349465E0
1.862679436E1,-2.141083717E0,-6.201820374E-1,-6.568017006E0,6.935972364E0
1.864361041E1,-1.312165737E0,-1.641432047E0,-1.480272865E1,1.495114891E1
1.866040119E1,-1.548281193E0,-9.311869740E-1,-4.525525093E0,4.872849392E0
1.867720139E1,-2.323087215E0,6.794365644E-1,1.543785095E0,2.870825783E0
1.869402554E1,-1.532552242E0,1.234616518E0,1.748435497E0,2.632493307E0
1.871083890E1,-7.492570877E-1,1.005821943E0,-8.673534393E-1,1.524915064E0
1.872764550E1,-6.456966400E-1,1.681278229E0,-1.340419292E0,2.245071160E0
1.874445240E1,-1.032199860E0,2.168384314E0,9.622764587E-2,2.403453108E0
1.876126135E1,-1.492650032E0,1.793197632E0,1.093178511E0,2.576548296E0
1.877807464E1,-2.165759087E0,1.194637179E0,1.878608704E0,3.105936424E0
1.879487915E1,-2.780007839E0,7.273725271E-1,2.036042452E0,3.521786939E0
1.881167022E1,-2.652370930E0,6.788121462E-1,2.022476673E0,3.403860951E0
1.882849811E1,-1.750925541E0,1.350769877E0,2.736539841E0,3.518376019E0
1.884530327E1,-7.530679703E-1,1.302036643E0,3.701717138E0,3.995637691E0
1.886211210E1,7.462215424E-2,2.479214966E-2,5.210177422E0,5.210770757E0
1.887891831E1,1.569221497E0,-5.562210679E-1,5.400656700E0,5.651453864E0
1.889572851E1,2.027289391E0,-6.805460900E-3,2.960982323E0,3.588504550E0
1.891253452E1,1.393433571E0,1.322824597E0,3.890366077E0,4.338948058E0
1.892933972E1,1.000947952E-1,2.080931902E0,3.480127335E0,4.056055080E0
1.894615223E1,-5.810699463E-1,1.038444638E0,2.045165539E0,2.366159680E0
1.896295905E1,-6.506128311E-1,4.548076913E-2,2.590925694E0,2.671752516E0
1.897977186E1,1.044480324E0,-5.293263197E-1,2.084562302E0,2.390925655E0
1.899657248E1,4.523589134E0,-2.094362020E0,1.574005246E0,5.227494949E0
1.901338785E1,5.392010689E0,-1.882976532E0,3.135156631E-2,5.711423886E0
1.903020415E1,5.830965042E0,-2.030197620E0,-3.051639557E0,6.887260681E0
1.904699808E1,6.527590752E0,-3.026345015E0,-4.865361691E0,8.685617396E0
1.906381145E1,7.414052963E0,-2.819169998E0,-4.627020836E0,9.182876599E0
1.908061720E1,4.907052994E0,4.039615393E-3,-3.697167635E0,6.143959141E0
1.909743589E1,2.627729416E0,2.114527941E0,-4.805715561E0,5.871208764E0
1.911423406E1,4.265384674E-1,3.654945135E0,-6.346687317E0,7.336279636E0
1.913104218E1,-1.393527985E0,3.598982096E0,-7.752695084E0,8.660188995E0
1.914784905E1,-3.790261269E0,4.358113766E0,-3.902159452E0,6.970371903E0
1.916466368E1,-5.153409958E0,4.763072014E0,1.695813656E0,7.219437177E0
1.918146091E1,-4.372378826E0,1.211941838E0,4.336740494E0,6.276449452E0
1.919827395E1,-2.827334404E0,-2.082551241E0,3.153510094E0,4.719689123E0
1.921508464E1,-2.123415947E0,-4.857734680E0,-1.505401611E0,5.511144665E0
1.923189083E1,-1.081073284E0,-5.459230900E0,-3.636777878E0,6.648163265E0
1.924870002E1,-4.187345505E-1,-3.651073933E0,-4.566526890E0,5.861642033E0
1.926550764E1,-3.161935806E-1,-1.639999986E0,-4.663325310E0,4.953400981E0
1.928231549E1,-4.797887802E-1,-6.720837355E-1,-4.279175758E0,4.358123334E0
1.929912598E1,-1.630220413E0,-8.690913320E-1,-3.102649689E0,3.611007260E0
1.931593140E1,-2.731833935E0,-5.981490612E-1,-1.312471867E0,3.089220184E0
1.933273855E1,-2.959012508E0,5.503464937E-1,-2.884876728E-1,3.023551128E0
1.934955176E1,-1.798278809E0,1.438848019E0,1.434765816E0,2.713419105E0
1.936635785E1,5.760192871E-2,1.856919646E0,3.189129353E0,3.690801347E0
1.938316587E1,1.320662498E0,2.756088257E0,5.514422417E0,6.304682903E0
1.939997482E1,1.283149719E0,3.862964869E0,7.456126213E0,8.494868385E0
1.941678434E1,1.651901245E0,3.944025517E0,5.374240875E0,6.867792949E0
1.943359171E1,7.410097122E-1,4.172524452E0,4.167117596E0,5.943393370E0
1.945038904E1,-2.877273560E-1,3.256323814E0,3.202858686E0,4.576541880E0
1.946720485E1,1.508270264E0,1.922100782E0,7.964348793E-2,2.444523203E0
1.948400556E1,8.514362335E0,9.991858602E-1,-1.060333729E0,8.638115881E0
1.950082258E1,1.763272667E1,-7.403361797E-1,-7.015261650E0,1.899144659E1
1.951762341E1,8.783718109E0,-6.113778114E0,-1.119846916E1,1.548992247E1
1.953443968E1,-1.196966171E-1,-5.079156399E0,-7.555390358E0,9.104728467E0
1.955124994E1,-4.352445126E0,-2.989217758E0,-6.719856262E-1,5.322665315E0
1.956805817E1,-3.138845444E0,-3.116155148E0,2.832985401E0,5.252483213E0
1.958486246E1,1.654688835E0,-3.312529564E0,4.136138916E0,5.551440568E0
1.960167999E1,3.108453751E0,-3.737763643E0,5.021334648E0,6.989074575E0
1.961848169E1,8.699102402E-1,-2.725592852E0,5.553582191E0,6.247229416E0
1.963528837E1,-2.192525387E0,-7.200690508E-1,5.959608078E0,6.390821188E0
1.965209631E1,-3.401329517E0,3.439722061E-1,4.687732220E0,5.801912851E0
1.966890644E1,-3.218579769E0,5.190596581E-1,-2.987835407E-1,3.273828075E0
1.968571362E1,-1.055684090E0,-1.869049191E0,-1.691007614E1,1.704577628E1
1.970252095E1,-8.608722687E-2,-2.753791332E0,-1.080988121E1,1.115546097E1
1.971933070E1,-1.732535362E0,-2.344943047E0,-1.370505810E0,3.221602528E0
1.973613924E1,-2.117359638E0,-2.038144588E0,1.982312679E0,3.544969501E0
1.975294519E1,-1.910630703E0,-2.180164099E0,-5.022959709E-1,2.942095584E0
1.976975378E1,-1.419755936E0,-6.314772367E-1,-1.669233680E0,2.280528775E0
1.978656320E1,-1.035490036E0,1.408697486E0,-7.135077715E-1,1.888322420E0
1.980337271E1,-4.522714615E-1,2.152127504E0,7.128047943E-2,2.200291612E0
1.982018268E1,-5.434617996E-1,1.511644363E0,1.286596537E0,2.058093792E0
1.983698482E1,-4.763479233E-1,8.576463461E-1,1.432604074E0,1.736323424E0
1.985379644E1,-7.501506805E-1,1.005413413E0,2.311752558E0,2.630167687E0
1.987060440E1,-1.279522896E0,1.544321179E0,3.590024710E0,4.112223749E0
1.988739906E1,-1.436774254E0,2.369021416E0,4.239340305E0,5.064443597E0
1.990423167E1,-1.553942680E0,1.937710404E0,6.410998344E0,6.875344300E0
1.992102320E1,-1.429265976E0,6.062645912E-1,7.377631664E0,7.539217927E0
1.993783034E1,-2.489414215E-1,4.220551550E-1,5.180879116E0,5.203999500E0
1.995464237E1,1.143741608E0,-3.192348182E-1,3.743408442E0,3.927233440E0
1.997144743E1,1.508832932E0,-7.102522850E-1,4.588988781E0,4.882607209E0
1.998825589E1,4.094963074E-1,-4.053421915E-1,2.832932949E0,2.890933865E0
2.000509112E1,-1.281723976E0,-6.101371646E-1,1.322427869E0,1.940077106E0
2.002187558E1,-1.246539116E0,-1.070284128E0,1.280143499E0,2.082819066E0
2.003868808E1,6.396751404E-1,-1.902741432E0,5.375664234E-1,2.078121003E0
2.005548936E1,3.090435982E0,-2.474119663E0,4.025700092E-1,3.979211640E0
2.007230740E1,6.773060799E0,-1.961099148E0,-2.250014067E0,7.401542120E0
2.008910666E1,1.093624496E1,-2.868905783E0,-4.449218273E0,1.215021060E1
2.010592346E1,1.247108555E1,-4.155693054E0,-4.790856361E0,1.399107087E1
2.012272562E1,8.437961578E0,-9.912930131E-1,-5.358898163E0,1.004488163E1
2.013953594E1,3.634472847E0,1.735812426E0,-5.417987347E0,6.751075806E0
2.015633948E1,-4.196653366E-1,3.233600855E0,-6.824328423E0,7.563316197E0
2.017315769E1,-2.651775360E0,4.608219147E0,-8.353218079E0,9.901709374E0
2.018995782E1,-3.818684101E0,5.937840462E0,-5.744379044E0,9.101548671E0
2.020677094E1,-4.539152145E0,6.965764523E0,-2.687325478E-1,8.318533210E0
2.022357560E1,-3.765121937E0,2.216714621E0,6.013617039E0,7.433273626E0
2.024038749E1,-2.184729576E0,-3.155303478E0,4.122716904E0,5.632564072E0
2.025719384E1,-2.061911583E0,-6.511101723E0,-1.705798149E0,7.039578989E0
2.027399909E1,-2.124309540E0,-8.132884026E0,-4.668807983E0,9.615313910E0
2.029080889E1,-3.679380417E-1,-2.529576302E0,-4.356081963E0,5.050701410E0
2.030761823E1,-1.394119263E-1,1.819115162E0,-5.367104530E0,5.668723551E0
2.032444086E1,-8.724775314E-1,4.425141215E-1,-4.913091660E0,5.009541441E0
2.034123366E1,-1.828381062E0,-1.642694950E0,-3.143768787E0,3.990577176E0
2.035804876E1,-2.857228756E0,-1.328974843E0,1.380610466E-1,3.154202142E0
2.037485194E1,-2.737629414E0,9.159179032E-2,1.797871113E0,3.276483542E0
2.039166091E1,-1.743109703E0,1.351293325E0,1.238659859E0,2.529565839E0
2.040846555E1,-4.177379608E-1,1.544449449E0,1.172505856E0,1.983582387E0
2.042526292E1,6.789016724E-1,2.139386177E0,2.232186794E0,3.165523429E0
2.044208336E1,1.090115547E0,2.968641758E0,4.690278053E0,5.656844881E0
2.045888099E1,1.305170059E0,4.359656811E0,6.075576305E0,7.590961983E0
2.047569870E1,2.750768661E0,4.908574581E0,5.914319515E0,8.163333141E0
2.049250755E1,3.225605965E0,4.674306870E0,4.334255219E0,7.144189727E0
2.050931689E1,2.025143623E0,3.272389650E0,5.071289539E-1,3.881613130E0
2.052611356E1,3.252374649E0,1.667620063E0,-1.795648575E0,4.072253840E0
2.054293397E1,8.078073502E0,-2.141812742E-1,-3.729095936E0,8.899848404E0
2.055973907E1,1.079318523E1,-3.336858511E0,-7.224280357E0,1.340961218E1
2.057654956E1,4.235584259E0,-6.748651028E0,-8.408441544E0,1.158388337E1
2.059335745E1,-1.366722584E0,-6.955096722E0,-5.423826694E0,8.925200112E0
2.061016792E1,-3.841474056E0,-6.199106216E0,-1.156466007E0,7.383986351E0
2.062697337E1,-6.920022964E-1,-4.099689007E0,1.528468609E0,4.429732883E0
2.064378306E1,3.869170189E0,-3.529878378E0,2.992475748E0,6.032033688E0
2.066058887E1,4.312305450E0,-2.949271202E0,4.292776108E0,6.761812304E0
2.067739844E1,9.627742767E-1,-1.850999713E0,2.539110184E0,3.286368021E0
2.069420412E1,-1.920029163E0,-3.477889895E-1,1.019500256E0,2.201556254E0
2.071101671E1,-4.301869392E0,1.205811381E0,2.893353462E0,5.322739484E0
2.072782144E1,-4.281532764E0,1.299348116E0,4.313254356E-2,4.474560175E0
2.074463054E1,-2.627509117E0,1.012108326E0,-2.810938835E0,3.978636017E0
2.076144080E1,-7.342338562E-1,-5.258119106E-1,-9.565162659E0,9.607700776E0
2.077824900E1,-3.534917831E-1,-1.312005520E0,-4.851234436E0,5.037935140E0
2.079505392E1,-1.296244621E0,-8.277868629E-1,1.636192799E-1,1.546690815E0
2.081185261E1,-1.480165482E0,-1.120348454E0,3.103644848E-1,1.882125560E0
2.082867282E1,-9.139509201E-1,-1.195676088E0,-1.569079638E0,2.174156963E0
2.084548135E1,-5.156955719E-1,-1.779290140E-1,-1.310982466E0,1.419956226E0
2.086228738E1,-5.629186630E-1,1.132212162E0,2.972197533E-2,1.264778715E0
2.087911184E1,-7.291221619E-1,1.836819291E0,9.654650688E-1,2.199465170E0
2.089590606E1,-1.119795799E0,2.114782095E0,1.282073975E0,2.714766955E0
2.091270023E1,-1.600777626E0,2.233673573E0,1.705081224E0,3.234051425E0
2.092950429E1,-2.156367302E0,2.305292845E0,2.839175940E0,4.245611270E0
2.094633009E1,-1.998344421E0,2.031889439E0,3.200508833E0,4.285465191E0
2.096313733E1,-1.018987656E0,1.598078609E0,3.372843981E0,3.868884542E0
2.097994595E1,-2.516441345E-1,1.089502454E0,5.412978649E0,5.527266795E0
2.099675291E1,1.077061653E0,6.790544987E-1,5.063170433E0,5.220811398E0
2.101356387E1,6.409492493E-1,8.822075129E-1,2.708674908E0,2.919935922E0
2.103037257E1,6.337985992E-1,7.308505177E-1,3.180106163E0,3.323991328E0
2.104717745E1,9.720659256E-1,-1.487475038E-1,4.749029160E0,4.849774834E0
2.106398727E1,7.455091476E-1,-1.470970511E0,3.931360245E0,4.263230173E0
2.108079432E1,1.054916382E-1,-2.111645460E0,3.566982985E0,4.146509695E0
2.109760865E1,7.461900711E-1,-2.783113003E0,3.153122425E0,4.271381350E0
2.111440165E1,1.694824219E0,-2.885626078E0,7.836608887E-1,3.437061446E0
2.113122183E1,2.918903351E0,-1.701371670E0,-6.995495558E-1,3.450222009E0
2.114802561E1,4.389535904E0,-9.005630016E-1,-1.278401256E0,4.659758464E0
2.116483747E1,6.418573380E0,-5.762141347E-1,-4.505173206E0,7.862995140E0
2.118164355E1,7.661321640E0,5.787342787E-2,-4.620962620E0,8.947205940E0
2.119845479E1,6.158034325E0,1.898589373E0,-4.752645016E0,8.007100786E0
2.121526116E1,3.449914932E0,3.218518257E0,-5.024600506E0,6.892559978E0
2.123205741E1,1.018723488E0,3.948280334E0,-5.089457512E0,6.521448682E0
2.124887698E1,-1.344327927E-1,3.476550817E0,-7.393960953E0,8.171605493E0
2.126569230E1,-2.309460640E0,3.838442326E0,-7.784131050E0,8.981088138E0
2.128249294E1,-4.605753899E0,5.207876205E0,-1.646916866E0,7.144737834E0
2.129931341E1,-4.026360989E0,1.621076584E0,5.870383263E0,7.300744603E0
2.131611055E1,-1.696223259E0,-2.977480412E0,7.210568428E0,7.983411552E0
2.133291745E1,-1.166245937E0,-5.911861420E0,5.828771591E-1,6.053922763E0
2.134972694E1,-4.345941544E-1,-7.296960354E0,-4.664682865E0,8.671434063E0
2.136652277E1,-5.568504333E-2,-5.569993019E0,-5.856827736E0,8.082719480E0
2.138334262E1,-3.240098953E-1,-2.090493679E0,-5.228237152E0,5.640000882E0
2.140015750E1,-1.030480862E0,-5.743492246E-1,-4.260534286E0,4.420850625E0
2.141695970E1,-1.392969608E0,-8.562067747E-1,-2.806769133E0,3.248292988E0
2.143376681E1,-1.750293255E0,-1.199558020E0,-1.417785645E0,2.551976108E0
2.145057567E1,-1.990032673E0,-5.847026110E-1,1.746573448E-1,2.081492823E0
2.146739187E1,-2.012980938E0,1.325086594E0,1.097008228E0,2.647899883E0
2.148419032E1,-1.016794682E0,2.363509893E0,1.808655739E0,3.145041498E0
2.150100344E1,2.333087921E-1,2.700298309E0,2.355715275E0,3.591021917E0
2.151780831E1,8.992586136E-1,2.854501724E0,3.490903378E0,4.598179263E0
2.153461867E1,1.053048134E0,2.605752945E0,4.821039200E0,5.580437057E0
2.155143423E1,1.011354446E0,2.975219965E0,4.609535217E0,5.578762101E0
2.156823234E1,4.785757065E-1,2.985789299E0,4.089795589E0,5.086295352E0
2.158504267E1,4.741001129E-2,2.676774502E0,4.703749657E0,5.412266649E0
2.160184876E1,5.364503860E-1,1.642481804E0,1.814239979E0,2.505392623E0
2.161865653E1,4.465662956E0,6.129928231E-1,1.425941467E0,4.727707151E0
2.163546610E1,1.254782963E1,1.063867450E0,-2.376850367E0,1.281519645E1
2.165227324E1,1.329096413E1,-2.348747730E0,-1.056987572E1,1.714317987E1
2.166908444E1,3.352870941E0,-5.435072422E0,-1.185660267E1,1.346702575E1
2.168588983E1,-2.379172802E0,-5.363090515E0,-5.614660740E0,8.120813895E0
2.170269479E1,-4.193252563E0,-5.109373569E0,-6.496589184E-1,6.641620438E0
2.171951131E1,-2.338448048E0,-4.164526463E0,2.830737829E0,5.551999332E0
2.173631525E1,1.718369484E0,-4.020342350E0,4.971924782E0,6.620874741E0
2.175313464E1,1.830546379E0,-4.053115368E0,5.742829323E0,7.263520693E0
2.176993284E1,-5.098619461E-1,-3.190208673E0,2.648555756E0,4.177587602E0
2.178671931E1,-2.196571350E0,-1.733353138E0,9.897620678E-1,2.968007370E0
2.180354886E1,-3.195040703E0,-3.410793245E-1,1.449285746E0,3.524918350E0
2.182034084E1,-2.629017830E0,5.554818511E-1,3.149173260E-1,2.705451489E0
2.183716547E1,-1.488736629E0,8.437961340E-1,-1.683430433E0,2.400472181E0
2.185397018E1,-3.485584259E-2,6.135932207E-1,-5.522071362E0,5.556166277E0
2.187077700E1,2.211513519E-1,3.593188226E-1,-5.467282295E0,5.483538423E0
2.188759150E1,-3.812217712E-1,7.954747677E-1,-1.045813560E0,1.368150631E0
2.190439930E1,-8.306341171E-1,3.936611414E-1,3.105597496E-1,9.702419744E-1
2.192120607E1,-3.515882492E-1,3.113639951E-1,-1.290073156E0,1.372898606E0
2.193801663E1,-4.272212982E-1,1.035593271E0,-1.173369646E0,1.622272415E0
2.195481689E1,-1.276598930E0,1.707206488E0,-4.184417725E-1,2.172407038E0
2.197163268E1,-1.814102173E0,2.221824408E0,1.829493046E-1,2.874185248E0
2.198842646E1,-1.747293472E0,2.937202454E0,1.211791039E0,3.626104005E0
2.200524523E1,-1.741422653E0,2.849266052E0,1.236092329E0,3.560729439E0
2.202205519E1,-1.756586075E0,1.957738519E0,2.091363668E0,3.360377470E0
2.203886400E1,-1.073364258E0,9.960860610E-1,3.663961411E0,3.945745999E0
2.205567253E1,-3.729286194E-1,8.780604601E-2,4.797019958E0,4.812295309E0
2.207247803E1,1.801145554E0,-9.742765427E-1,4.801182270E0,5.219644746E0
2.208928879E1,1.700051308E0,-8.677687645E-1,3.269428968E0,3.785810727E0
2.210609629E1,-7.721900940E-3,3.696820736E-1,2.325779200E0,2.354989034E0
2.212290327E1,-8.257818222E-1,1.183600903E0,2.434060097E0,2.829748270E0
2.213971021E1,-5.943918228E-1,9.572831988E-1,1.872816086E0,2.185665311E0
2.215652124E1,-7.757558823E-1,8.367189765E-2,2.057149887E0,2.200150866E0
2.217332960E1,4.114446640E-1,-1.208923697E0,2.644724846E0,2.936895083E0
2.219013940E1,3.264381409E0,-2.556963205E0,2.811591148E0,5.009919321E0
2.220694156E1,5.028351784E0,-2.095398903E0,1.563384891E0,5.667379513E0
2.222375691E1,6.142868042E0,-1.555315256E0,-1.230142832E0,6.455004625E0
2.224054911E1,7.184362411E0,-1.669725418E0,-4.466542244E0,8.622821223E0
2.225737098E1,7.607132912E0,-7.496501207E-1,-5.332540512E0,9.320216454E0
2.227416995E1,5.692947388E0,2.511073589E0,-5.901974201E0,8.576038713E0
2.229098370E1,2.149643898E0,4.502017498E0,-6.976482391E0,8.576738133E0
2.230778166E1,-1.143255234E-1,5.464148521E0,-7.559543133E0,9.328273247E0
2.232460102E1,-1.381518364E0,4.528087139E0,-6.959070683E0,8.416699525E0
2.234140178E1,-3.326982498E0,4.476841450E0,-3.527923107E0,6.599785099E0
2.235821350E1,-4.390450001E0,3.472013712E0,3.469209671E0,6.585312913E0
2.237503346E1,-3.266592979E0,-1.781447053E0,6.293845654E0,7.311407279E0
2.239183155E1,-1.871752739E0,-4.025715828E0,2.535599232E0,5.112642145E0
2.240864560E1,-1.120807648E0,-4.984991550E0,-2.871501684E0,5.861047045E0
2.242545027E1,-5.049734116E-1,-3.225800037E0,-4.968245506E0,5.945102811E0
2.244226231E1,-2.560195923E-1,-1.298219204E0,-4.055525303E0,4.265935374E0
2.245906352E1,-2.972793579E-2,-2.174241841E-2,-3.782568932E0,3.782748234E0
2.247588450E1,-8.882560730E-1,-1.027266383E-1,-2.600164175E0,2.749619128E0
2.249268093E1,-1.809988022E0,-7.361783981E-1,-1.744206190E0,2.619211810E0
2.250949283E1,-2.267770767E0,-6.796802878E-1,-3.907995224E-1,2.399473653E0
2.252630052E1,-2.015190601E0,-3.084301949E-1,-4.203753471E-1,2.081546967E0
2.254311147E1,-1.158893585E0,3.208016157E-1,-9.905242920E-2,1.206548549E0
2.255991840E1,-1.333045959E-2,1.475824356E0,4.821367264E-1,1.552640027E0
2.257672527E1,1.150150299E0,2.628476381E0,1.093717575E0,3.070497017E0
2.259353355E1,1.545121193E0,3.713993311E0,2.441792727E0,4.705687785E0
2.261034371E1,1.285258293E0,4.766833782E0,3.338471413E0,5.959864475E0
2.262715043E1,1.144688606E0,5.779471397E0,3.750652075E0,6.984267508E0
2.264395746E1,1.256777763E0,5.258849621E0,2.807204485E0,6.092239876E0
2.266077050E1,8.132257462E-1,3.492832184E0,2.795669079E0,4.547194561E0
2.267757480E1,8.028221130E-2,1.535834551E0,1.444901228E0,2.110206758E0
2.269439117E1,2.177554131E0,1.470480859E-2,8.828794956E-1,2.349773271E0
2.271119001E1,7.400408745E0,-3.725398779E-1,-7.945759296E-1,7.452260493E0
2.272800005E1,1.109469032E1,-1.909176230E0,-3.886209011E0,1.190964851E1
2.274480987E1,6.014850616E0,-5.228593349E0,-7.082511902E0,1.066201628E1
2.276159504E1,-4.686546326E-1,-5.332852840E0,-7.698422432E0,9.376815265E0
2.277842434E1,-3.622847557E0,-4.606296062E0,-4.542786121E0,7.414842789E0
2.279523582E1,-2.234026909E0,-3.061707020E0,-1.559626698E0,4.098458435E0
2.281203939E1,1.449102402E0,-2.664991140E0,5.529143810E-1,3.083470425E0
2.282884950E1,2.918091774E0,-3.095484972E0,3.046493053E0,5.232437934E0
2.284565445E1,9.559259415E-1,-3.636288643E0,3.326461077E0,5.020132747E0
2.286246672E1,-1.731521606E0,-3.114776134E0,1.595813513E0,3.904691820E0
2.287927218E1,-3.323722839E0,-2.059973717E0,1.249623537E0,4.105141193E0
2.289608412E1,-4.048108578E0,-4.465959072E-1,2.384752989E0,4.719499738E0
2.291288835E1,-3.031012058E0,7.728132010E-1,1.803430080E0,3.610627978E0
2.292968429E1,-9.736766815E-1,1.584120989E0,-2.751197815E-1,1.879674568E0
2.294650599E1,2.826871872E-1,1.383865833E0,-5.956051826E0,6.121237624E0
2.296331259E1,-2.855062485E-1,7.943083644E-1,-4.886422157E0,4.958786252E0
2.298012297E1,-9.964151382E-1,1.181939840E0,3.417344093E-1,1.583226870E0
2.299693129E1,-8.437051773E-1,1.197439194E0,7.255151272E-1,1.634647133E0
2.301373946E1,-7.480382919E-1,1.414045572E0,-4.316623211E-1,1.656930453E0
2.303054573E1,-6.516809464E-1,2.015331030E0,-4.214665890E-1,2.159602116E0
2.304735591E1,-6.695537567E-1,2.644288540E0,9.242868423E-2,2.729305255E0
2.306416491E1,-8.468427658E-1,2.526705503E0,1.339323521E-1,2.668205623E0
2.308097024E1,-1.031338692E0,1.835809708E0,-6.089055538E-2,2.106552738E0
2.309777849E1,-1.197768211E0,9.781141281E-1,7.222691774E-1,1.706759708E0
2.311458964E1,-1.171276093E0,5.475083590E-1,1.885239840E0,2.285997012E0
2.313140090E1,-8.055715561E-1,1.295141280E-1,2.498011351E0,2.627885110E0
2.314820194E1,-4.904088974E-1,-6.772070527E-1,3.344224930E0,3.447165598E0
2.316501337E1,6.535482407E-1,-1.346363544E0,4.521183968E0,4.762449429E0
2.318181270E1,5.740108490E-1,-5.450111628E-1,4.465981483E0,4.535583340E0
2.319862813E1,1.906852722E-1,4.734683931E-1,4.166661263E0,4.197808865E0
2.321545426E1,4.939155579E-1,1.307544470E0,3.422736645E0,3.697127433E0
2.323224417E1,7.245073318E-1,2.445370674E0,2.304124355E0,3.437111818E0
2.324905587E1,4.560632706E-1,9.779574871E-1,2.683581591E0,2.892404658E0
2.326586797E1,1.006965637E-1,-5.262145996E-1,3.142182827E0,3.187531101E0
2.328266320E1,1.501434326E0,-2.692533970E0,3.276192427E0,4.498608788E0
2.329948022E1,3.192929268E0,-3.769227505E0,1.894993901E0,5.290829347E0
2.331628435E1,3.400665283E0,-2.499622107E0,1.245981336E0,4.400580022E0
2.333309273E1,3.001064301E0,-1.818071723E0,-2.628977299E-1,3.518648454E0
2.334990340E1,3.446703911E0,-1.555649519E0,-4.441680431E0,5.833381380E0
2.336670867E1,4.173913956E0,3.140220642E-1,-5.090371609E0,6.590299741E0
2.338352308E1,3.044202805E0,2.275988340E0,-4.967241287E0,6.254660634E0
2.340032974E1,1.324867249E0,3.049351215E0,-3.966642618E0,5.175719247E0
2.341713418E1,-4.151535034E-1,2.750871658E0,-3.188525200E0,4.231588385E0
2.343394474E1,-1.457678795E0,1.934315801E0,-4.403061867E0,5.025272021E0
2.345075102E1,-2.662884235E0,1.016726136E0,-4.224356651E0,5.096064521E0
2.346756063E1,-4.366108894E0,1.367867708E0,-1.243511915E0,4.741338506E0
2.348436768E1,-4.186438560E0,3.757169843E-1,3.956392288E0,5.772388675E0
2.350117742E1,-1.074344158E0,-1.722134352E0,5.870062828E0,6.211086837E0
2.351798186E1,6.751470566E-1,-3.502138615E0,1.863191605E0,4.023963392E0
2.353479585E1,1.531906128E0,-4.617138863E0,-2.617162466E0,5.523970224E0
2.355160310E1,1.955648422E0,-3.953634977E0,-6.341497898E0,7.724660891E0
2.356839543E1,1.684156418E0,-2.185193539E0,-7.234917164E0,7.743092406E0
2.358522103E1,9.480800629E-1,-9.009791613E-1,-5.047428608E0,5.214130302E0
2.360201414E1,-3.443899155E-1,-5.362853408E-2,-2.167543173E0,2.195386945E0
2.361883273E1,-1.182389736E0,-3.043708205E-1,-8.852934837E-1,1.508121891E0
2.363564025E1,-1.599447250E0,-8.547512889E-1,-4.180951118E-1,1.861084306E0
2.365245245E1,-2.093500137E0,-8.252348900E-1,1.959419250E-2,2.250364277E0
2.366926294E1,-1.882566929E0,-1.936084926E-1,2.614688873E-2,1.892676980E0
2.368606737E1,-1.478226662E0,4.922725558E-1,5.722160339E-1,1.659794422E0
2.370286296E1,-2.648077011E-1,2.525818348E-1,1.799413919E0,1.836249208E0
2.371968002E1,8.438739777E-1,4.028627276E-1,4.415241241E0,4.513178136E0
2.373649366E1,2.953243256E-2,1.015152454E0,7.366045952E0,7.435727243E0
2.375329746E1,6.152305603E-1,2.580949545E0,7.705489635E0,8.149501808E0
2.377011160E1,7.561893463E-1,2.327994823E0,7.196466923E0,7.601349775E0
2.378691186E1,1.557203293E0,1.353555799E0,2.772992611E0,3.456368530E0
2.380372766E1,4.973541260E0,1.357293963E0,2.383711815E0,5.679827601E0
2.382052834E1,1.199023438E1,1.092821956E0,-9.302425385E-2,1.204029209E1
2.383734370E1,1.243606567E1,-1.923221469E0,-1.057058048E1,1.643446628E1
2.385414920E1,3.307894707E0,-4.834043026E0,-1.713675690E1,1.811017880E1
2.387095603E1,-2.195983887E0,-4.395716667E0,-7.985105991E0,9.375851318E0
2.388776233E1,-4.299586296E0,-2.891720772E0,3.225512505E-1,5.191582673E0
2.390457710E1,-3.389646053E0,-1.859849095E0,1.722418070E0,4.232666185E0
2.392138681E1,9.403266907E-1,-2.301185131E0,5.447813034E0,5.988182875E0
2.393817840E1,2.575118065E0,-2.679291964E0,8.558888435E0,9.330831138E0
2.395499752E1,6.345701218E-1,-1.646764278E0,8.616717339E0,8.795585797E0
2.397180505E1,-1.949528694E0,-5.145909786E-1,6.140501022E0,6.463065744E0
2.398861291E1,-2.357888699E0,-4.233981371E-1,2.299294710E0,3.320491118E0
2.400543269E1,-1.963369846E0,-1.176506281E0,-7.601212502E0,7.938351194E0
2.402222945E1,-1.233738899E0,-2.404553890E0,-1.436506081E1,1.461707779E1
2.403903970E1,-1.343981743E0,-5.197336674E-1,-1.023182988E0,1.767289857E0
2.405584566E1,-8.542747498E-1,7.494500279E-1,4.379264832E0,4.524314441E0
2.407265838E1,-7.019844055E-1,4.269587100E-1,2.065361261E0,2.222789460E0
2.408945993E1,-6.149816513E-1,-2.332018465E-1,-2.799134970E0,2.875368170E0
2.410627144E1,-6.309871674E-1,8.337251842E-2,-1.181405902E0,1.341944741E0
2.412307675E1,-6.897583008E-1,7.547187805E-1,4.220485687E-3,1.022440592E0
2.413989183E1,-9.118471146E-1,1.986192942E0,-3.176636696E-1,2.208469554E0
2.415668071E1,-1.083886147E0,2.293007374E0,-1.764848232E-1,2.542408088E0
2.417350261E1,-1.210406303E0,1.742962003E0,5.315160751E-1,2.187580696E0
2.419031620E1,-1.216931343E0,1.125461102E0,1.254435539E0,2.078747966E0
2.420712317E1,-1.218355179E0,7.310827971E-1,1.634087443E0,2.165436023E0
2.422393005E1,-8.471012115E-1,3.822785616E-2,2.140522480E0,2.302363637E0
2.424073422E1,-4.255971909E-1,-4.335241318E-1,2.876360416E0,2.939817237E0
2.425754654E1,-2.011642456E-1,-2.095923722E-1,4.677301884E0,4.686315069E0
2.427435556E1,-3.953771591E-1,-1.732232273E-1,5.424419880E0,5.441567827E0
2.429115934E1,-2.626028061E-1,-4.467367530E-1,3.938434601E0,3.972379774E0
2.430796843E1,1.397991180E-1,-1.051609755E0,3.085075617E0,3.262379259E0
2.432477753E1,8.851680756E-1,-1.960931540E0,3.669786215E0,4.253951797E0
2.434158628E1,1.091892242E0,-1.833345652E0,2.691031456E0,3.434390083E0
2.435839689E1,8.725900650E-1,-1.077777147E0,2.391790628E0,2.764720494E0
2.437519983E1,1.875513077E0,-1.657554626E0,2.569821596E0,3.587341589E0
2.439201195E1,3.372121811E0,-2.591375113E0,2.685573101E0,5.029784624E0
2.440881938E1,3.292269707E0,-2.164257765E0,1.300686359E0,4.149076584E0
2.442561544E1,2.072880745E0,-1.209193707E0,-2.770780325E-1,2.415730995E0
2.444243440E1,2.323669434E0,-4.834048450E-1,-3.157170296E0,3.949790394E0
2.445924453E1,3.474149704E0,2.911762893E-1,-5.424568176E0,6.448289672E0
2.447605257E1,4.060407639E0,6.600376964E-1,-3.778605938E0,5.585733863E0
2.449285957E1,2.855751991E0,1.698661089E0,-2.609252214E0,4.224803670E0
2.450966680E1,1.177614212E0,1.967086673E0,-3.210905313E0,3.945392014E0
2.452647709E1,-2.981014252E-1,9.126865268E-1,-4.539362907E0,4.639792750E0
2.454327261E1,-2.177854538E0,6.129642129E-1,-4.143661022E0,4.721091207E0
2.456009207E1,-3.749154568E0,1.088231802E0,-1.517267942E0,4.188378020E0
2.457689067E1,-4.196502686E0,1.906840205E0,1.528338909E0,4.856181028E0
2.459371006E1,-1.434657574E0,-4.771255553E-1,3.568244934E0,3.875340380E0
2.461050502E1,-4.759025574E-1,-2.030077219E0,2.011765480E0,2.897394883E0
2.462732404E1,1.058216095E-1,-3.128859997E0,-2.309432983E0,3.890301248E0
2.464412161E1,-2.617578506E-1,-3.289276600E0,-4.640541077E0,5.694074043E0
2.466094351E1,-7.593908310E-1,-2.149579525E0,-3.790769815E0,4.423494361E0
2.467775058E1,-9.049153328E-1,-1.628305793E0,-2.832391739E0,3.390087680E0
2.469455422E1,-1.174338341E0,-1.649974346E0,-2.799111843E0,3.454925903E0
2.471136998E1,-1.730427742E0,-2.016561031E0,-1.103385210E0,2.877213493E0
2.472817420E1,-2.219969749E0,-1.961785436E0,1.050071716E0,3.143170118E0
2.474498870E1,-2.040015221E0,-8.096867800E-1,9.392504692E-1,2.387351299E0
2.476178969E1,-7.305793762E-1,3.070411980E-1,2.916786671E-1,8.444506895E-1
2.477860199E1,8.976917267E-1,1.003923535E0,5.637502670E-1,1.459975090E0
2.479540091E1,1.922007561E0,2.084345818E0,1.052597284E0,3.024329941E0
2.481221717E1,2.147484779E0,2.688049078E0,2.441351175E0,4.218707656E0
2.482901913E1,1.723915100E0,3.483906984E0,3.114238501E0,4.980760242E0
2.484583263E1,1.057003021E0,3.967024803E0,1.777905941E0,4.473867534E0
2.486264003E1,6.768512726E-2,3.575828075E0,3.217741251E0,4.810923660E0
2.487945093E1,-4.230003357E-1,1.937946200E0,4.081577301E0,4.538043414E0
2.489625286E1,-4.285430908E-2,4.809200764E-1,2.889104366E0,2.929171325E0
2.491306810E1,2.910906792E0,-2.362112999E-1,2.395909548E0,3.777506676E0
2.492987451E1,7.620556831E0,-7.451557517E-1,1.771708965E0,7.859204551E0
2.494667918E1,8.657446861E0,-3.223104000E0,-9.325141907E-1,9.284900014E0
2.496348892E1,2.123698235E0,-5.154745579E0,-5.409075737E0,7.767856622E0
2.498030167E1,-1.911535740E0,-4.908305168E0,-6.664004326E0,8.494373559E0
2.499709499E1,-1.928112507E0,-3.603754044E0,-4.454157829E0,6.045178493E0
2.501391317E1,5.448102951E-1,-3.862962246E0,-1.281054497E0,4.106141278E0
2.503070648E1,2.078683853E0,-4.605426788E0,1.867992520E0,5.387047291E0
2.504753342E1,9.798669815E-1,-4.958863735E0,2.825929403E0,5.791057402E0
2.506432687E1,-1.293055534E0,-4.320319176E0,2.482307434E0,5.147717999E0
2.508114570E1,-3.106376648E0,-2.111866951E0,3.453087330E0,5.102290663E0
2.509794198E1,-4.022050858E0,5.157559514E-1,4.392154217E0,5.977785206E0
2.511476596E1,-3.719956398E0,1.452093601E0,2.480651617E0,4.701093902E0
2.513157368E1,-2.324437618E0,-3.365554810E-1,-2.631947756E0,3.527524461E0
2.514838160E1,-1.189225197E0,-1.952945232E0,-3.902306557E0,4.522858401E0
2.516517597E1,-4.972181320E-1,-1.374615669E0,-1.734106302E0,2.268020894E0
2.518199023E1,1.368827820E-1,4.553461075E-2,-8.607090712E-1,8.727143874E-1
2.519880753E1,9.840393066E-2,1.389576197E0,-9.373730421E-1,1.679069254E0
2.521560863E1,-6.295404434E-1,1.509146810E0,-1.341869593E0,2.115291769E0
2.523243779E1,-7.480487823E-1,8.283340335E-1,-2.478910685E-1,1.143312833E0
2.524922959E1,-6.072721481E-1,-4.537224770E-3,1.044034958E-3,6.072899952E-1
2.526603469E1,-6.879930496E-1,-5.248315334E-1,-3.125859499E-1,9.200502980E-1
2.528284458E1,-5.789813995E-1,-3.641009033E-1,4.564603567E-1,8.222803573E-1
2.529965404E1,-8.702754974E-2,6.520116329E-2,9.942609072E-1,1.000189851E0
2.531646245E1,-1.092681885E-1,1.815575957E-1,1.579379201E0,1.593531097E0
2.533326853E1,-6.892910004E-1,2.365391254E-1,3.669789314E0,3.741447107E0
2.535008040E1,-1.637736320E0,1.775841117E-1,5.307111740E0,5.556901240E0
2.536687498E1,-1.988511086E0,1.345072985E-1,5.986202717E0,6.309270284E0
2.538369472E1,-1.408097267E0,-1.386328936E-1,4.562063217E0,4.776439866E0
2.540050103E1,-1.229823112E0,7.590724230E-1,3.388121367E0,3.683479636E0
2.541731104E1,-3.443756104E-1,9.522333741E-1,3.554842472E0,3.696247822E0
2.543412031E1,5.695409775E-1,-9.496189356E-1,3.827661037E0,3.984613164E0
2.545093018E1,8.301324844E-1,-2.462730646E0,3.687042475E0,4.510925004E0
2.546773274E1,7.083063126E-1,-2.785265446E0,3.688483238E0,4.675928788E0
2.548452883E1,1.898079872E0,-3.906815290E0,3.648723125E0,5.672661929E0
2.550135018E1,3.837553024E0,-4.637205124E0,2.578010082E0,6.548024172E0
2.551814840E1,4.343955040E0,-3.406545162E0,4.637907743E-1,5.539819240E0
2.553496659E1,4.125526428E0,-2.238291740E0,-1.959764481E0,5.086314485E0
2.555176929E1,3.810834885E0,-2.132373571E0,-4.735049248E0,6.441286436E0
2.556858552E1,4.061088562E0,-1.134194374E0,-4.218387604E0,5.964363433E0
2.558538147E1,3.193668365E0,-5.322709680E-2,-4.100577354E0,5.197796205E0
2.560220016E1,1.939219475E0,1.438486576E0,-4.031713486E0,4.699417989E0
2.561900774E1,1.016947746E0,2.899281263E0,-3.692764044E0,4.803802748E0
2.563581689E1,-2.160911560E-1,2.680322409E0,-4.734902382E0,5.445192758E0
2.565262389E1,-1.211753845E0,1.569003701E0,-5.186422825E0,5.552396034E0
2.566942462E1,-2.421512604E0,1.030416965E0,-4.058616638E0,4.837132563E0
2.568624547E1,-4.147783756E0,1.386070013E0,-1.949229240E-1,4.377590104E0
2.570304877E1,-3.503829002E0,4.484342337E-1,5.214039803E0,6.297945856E0
2.571985624E1,-1.278537750E0,-1.565031052E0,5.797155380E0,6.139298940E0
2.573666787E1,2.618455887E-1,-4.205072403E0,1.709633112E0,4.546871716E0
2.575347647E1,8.682174683E-1,-5.819504261E0,-2.043004036E0,6.228506796E0
2.577028131E1,1.067654610E0,-5.251405239E0,-4.938121796E0,7.287124963E0
2.578709067E1,7.588062286E-1,-3.854349136E0,-5.538504124E0,6.790200445E0
2.580389959E1,1.165351868E-1,-2.245511055E0,-3.348898888E0,4.033735751E0
2.582070757E1,-7.074804306E-1,-7.817249894E-1,-1.450747490E0,1.793402018E0
2.583751329E1,-1.169308662E0,-4.888536036E-1,-2.430210114E-1,1.290472706E0
2.585432222E1,-1.432494640E0,-3.222496510E-1,5.242490768E-2,1.469229085E0
2.587112024E1,-1.405761242E0,2.911760807E-1,-1.503460407E-1,1.443451458E0
2.588794308E1,-1.023294926E0,1.263956428E0,2.631368637E-1,1.647409896E0
2.590474482E1,3.788471222E-2,1.562840939E0,2.765930891E0,3.177149783E0
2.592155522E1,9.486122131E-1,5.352891088E-1,3.812837362E0,3.965366101E0
2.593836487E1,1.420650482E0,-4.547530413E-2,2.857108593E0,3.191141693E0
2.595517440E1,-1.901378632E-1,1.043403029E0,3.385231972E0,3.547483304E0
2.597196665E1,-1.102623940E0,1.491549373E0,5.484136581E0,5.789322337E0
2.598878781E1,-3.456106186E-1,1.371380210E0,6.571928024E0,6.722378176E0
2.600559064E1,3.651037216E-1,5.439652205E-1,4.465413094E0,4.513215371E0
2.602240415E1,2.854148865E0,-1.074446365E-2,1.428586960E0,3.191730234E0
2.603919906E1,6.166532516E0,-4.118506908E-1,1.785838604E-1,6.182850189E0
2.605601793E1,7.379323959E0,-1.826861620E0,-3.856373072E0,8.524286407E0
2.607283010E1,4.656251907E0,-2.772882223E0,-9.352123260E0,1.080887446E1
2.608963701E1,-6.312370300E-2,-4.091916561E0,-8.069558144E0,9.047957470E0
2.610644441E1,-2.966711044E0,-4.713596344E0,-3.406286716E0,6.528564475E0
2.612323765E1,-3.655876160E0,-3.910702705E0,5.283710957E-1,5.379423962E0
2.614006827E1,-1.452921867E0,-2.016735315E0,3.295159340E0,4.127502678E0
2.615686813E1,1.171485901E0,-1.736612320E0,4.704459667E0,5.149771095E0
2.617368016E1,1.827840805E0,-1.413898349E0,7.683061123E0,8.023062929E0
2.619048629E1,5.966472626E-1,-1.083500981E0,6.713812828E0,6.826803426E0
2.620729504E1,-1.074837685E0,-7.426406145E-1,4.706542969E0,4.884499754E0
2.622410583E1,-9.966144562E-1,-2.651293516E0,-1.450357723E1,1.477756239E1
2.624091005E1,-4.673576355E-1,-2.664447784E0,-7.757474899E0,8.215602350E0
2.625772005E1,-1.504445076E0,-1.759171486E0,1.977403164E-1,2.323174668E0
2.627452838E1,-1.425719261E0,-1.106842518E0,3.765704632E-1,1.843795294E0
2.629133490E1,-1.171343803E0,-9.768691659E-1,-1.502132416E-2,1.525301712E0
2.630814280E1,-1.689400196E0,-9.721404910E-1,3.095860481E-1,1.973568767E0
2.632495308E1,-1.615399837E0,-8.007898927E-1,-4.039492607E-1,1.847689393E0
2.634175950E1,-1.281509399E0,-2.889345884E-1,-3.308075666E-1,1.354689331E0
2.635856744E1,-1.062977791E0,4.367603064E-1,1.650441885E-1,1.160999971E0
2.637538116E1,-1.002116203E0,7.947354317E-1,5.747727156E-1,1.402214308E0
2.639217996E1,-1.371950150E0,9.822358489E-1,1.096429825E0,2.012260628E0
2.640899209E1,-1.591465950E0,1.033494115E0,1.657490611E0,2.519553350E0
2.642578805E1,-1.314412117E0,9.889631867E-1,1.977441311E0,2.572158925E0
2.644261211E1,-7.284278870E-1,9.079812765E-1,2.282431602E0,2.562134111E0
2.645940017E1,-1.765022278E-1,9.403304458E-1,2.615745783E0,2.785228964E0
2.647622582E1,6.093711853E-1,-1.294128001E-1,3.291700125E0,3.350129942E0
2.649302516E1,9.226932526E-1,-7.685070038E-1,3.786564350E0,3.972409273E0
2.650984276E1,8.623561859E-1,-2.818535864E-1,3.729402304E0,3.838168988E0
2.652665180E1,8.573007584E-1,-1.851353049E-1,3.617168188E0,3.721981377E0
2.654347175E1,7.407045364E-1,-7.813339233E-1,5.045785427E0,5.159367838E0
2.656026985E1,2.618217468E-1,-1.628425837E0,5.451055050E0,5.695113914E0
2.657707498E1,6.400241852E-1,-2.094786406E0,4.620617867E0,5.113498852E0
2.659388911E1,2.087485313E0,-2.685073376E0,4.746758461E0,5.839428898E0
2.661068688E1,3.271463394E0,-3.688282728E0,3.388995647E0,5.982574172E0
2.662750166E1,4.025836945E0,-3.565828323E0,1.951954842E0,5.721243085E0
2.664430832E1,3.116732597E0,-2.639009953E0,1.261425018E-1,4.085866804E0
2.666111570E1,3.624191284E-1,-2.235441208E0,-1.977265716E0,3.006347407E0
2.667791971E1,-7.966814041E-1,-1.945180416E0,-3.849590778E0,4.386089063E0
2.669473622E1,-8.516311646E-4,-2.122939587E0,-2.588520050E0,3.347731958E0
2.671153910E1,1.669137001E0,-1.291044593E0,-2.786475658E0,3.495319880E0
2.672834855E1,2.179603577E0,-1.249757707E-1,-2.574717999E0,3.375716734E0
2.674515571E1,1.907265663E0,4.492264986E-2,-2.302914143E0,2.990500611E0
2.676196444E1,1.232738495E-1,1.252499521E-1,-2.343081236E0,2.349662459E0
2.677877414E1,-1.570121765E0,3.539010286E-1,-1.418054104E0,2.145088748E0
2.679558072E1,-3.081447124E0,1.249259472E0,1.066917658E0,3.492030770E0
2.681239053E1,-2.273588657E0,1.976097822E-1,5.863115788E-1,2.356271690E0
2.682919799E1,-8.416652679E-1,-7.243187428E-1,1.710719585E0,2.039509638E0
2.684599321E1,6.631450653E-1,-3.081592083E0,-1.256258726E0,3.393251705E0
2.686281288E1,8.361368179E-1,-3.631560564E0,-3.062787056E0,4.823693757E0
2.687961995E1,6.554784775E-1,-2.616500139E0,-2.978200436E0,4.018134250E0
2.689643521E1,-3.320217133E-2,-1.748535633E0,-1.961023331E0,2.627563843E0
2.691322777E1,-8.421492577E-1,-1.663384914E0,-9.133930206E-1,2.076138617E0
2.693004507E1,-1.496574879E0,-2.271434307E0,-3.710432053E-1,2.745327529E0
2.694684273E1,-2.173406601E0,-2.669158936E0,-5.227663517E-1,3.481578713E0
2.696366092E1,-2.260179520E0,-2.129022598E0,-9.036521912E-1,3.233842292E0
2.698047703E1,-1.519226551E0,-1.282016754E0,-1.325786114E-1,1.992283454E0
2.699727596E1,-2.845668793E-1,-9.312693477E-1,5.495810509E-1,1.118159308E0
2.701408560E1,-1.404447556E-1,-1.372018814E0,1.820878983E0,2.284241805E0
2.703089623E1,-1.694126129E-1,-1.086884737E0,2.603662252E0,2.826495390E0
2.704770561E1,4.387989044E-1,-1.694601774E-2,3.142018080E0,3.172555635E0
2.706451118E1,4.933919907E-1,7.040915489E-1,5.424992561E0,5.492697412E0
2.708131963E1,4.591941833E-2,1.206557989E0,6.183227539E0,6.300015363E0
2.709813399E1,5.604410172E-1,1.066100836E0,4.467736244E0,4.627238083E0
2.711493712E1,1.002877235E0,6.271057725E-1,3.408086300E0,3.607502824E0
2.713174478E1,3.440325737E0,6.919771433E-3,2.253376007E0,4.112613827E0
2.714855201E1,7.273775101E0,-6.321743727E-1,1.431674957E0,7.440238023E0
2.716536237E1,9.644186974E0,-2.267315388E0,-1.573183537E-1,9.908370729E0
2.718216791E1,5.274933815E0,-3.862357855E0,-5.417427063E0,8.490656685E0
2.719897671E1,-1.283581734E0,-3.844018459E0,-1.054620552E1,1.129807554E1
2.721578641E1,-4.170518875E0,-4.301544666E0,-7.097030640E0,9.287860793E0
2.723259400E1,-4.823698997E0,-3.360126734E0,-2.132229328E0,6.253393126E0
2.724939923E1,-3.199466705E0,-2.251991034E0,7.659825087E-1,3.986825807E0
2.726620636E1,-4.622173309E-2,-1.449028373E0,5.509809971E0,5.697352507E0
2.728302042E1,9.696226120E-1,8.624036908E-1,1.201172447E1,1.208161549E1
2.729982733E1,2.944345474E-1,1.289061069E0,1.083429718E1,1.091468577E1
2.731663422E1,-6.487798691E-1,5.609224439E-1,5.734724998E0,5.798501540E0
2.733343094E1,-7.234869003E-1,-1.556245327E0,-1.131166458E1,1.144111395E1
2.735025244E1,-1.095714569E0,-2.513805628E0,-1.435206413E1,1.461169237E1
2.736704542E1,-1.776101112E0,-1.696700335E0,1.727940559E0,3.003182606E0
2.738386655E1,-1.171919823E0,-1.009648204E0,4.766082764E0,5.010821338E0
2.740066420E1,-6.520748138E-1,-6.299662590E-1,9.855163097E-1,1.339142056E0
2.741748105E1,-4.468631744E-1,-4.963712096E-1,-8.936784267E-1,1.115675672E0
2.743429387E1,-4.947805405E-1,4.170251489E-1,1.392941475E-1,6.619068043E-1
2.745109734E1,-9.110755920E-1,7.895920277E-1,5.869343281E-1,1.340897539E0
2.746791055E1,-1.250164032E0,5.830893517E-1,7.213443518E-1,1.556676258E0
2.748471484E1,-1.488527298E0,4.328073561E-1,9.969063997E-1,1.843056726E0
2.750152549E1,-1.802688122E0,5.108019114E-1,1.003365755E0,2.125404878E0
2.751833165E1,-1.835957527E0,9.081677198E-1,8.208192587E-1,2.206638372E0
2.753514158E1,-1.453399658E0,1.219419956E0,1.720841646E0,2.561376889E0
2.755194586E1,-5.727338791E-1,9.657127261E-1,2.851145744E0,3.064254758E0
2.756875990E1,-4.063882828E-1,6.620036364E-1,4.002135754E0,4.076823622E0
2.758555313E1,-3.895463943E-1,-2.953101993E-1,5.516139507E0,5.537756727E0
2.760237627E1,3.743896484E-1,-1.090599537E0,5.681429386E0,5.797259251E0
2.761918401E1,1.207449913E0,-7.311965823E-1,3.762598515E0,4.018672830E0
2.763598738E1,1.733350754E0,-1.187001109E0,3.082420826E0,3.730253961E0
2.765279705E1,1.624322891E0,-2.743425131E0,5.266447544E0,6.156320008E0
2.766961143E1,7.938919067E-1,-3.529810429E0,5.036319256E0,6.201156156E0
2.768640413E1,7.706069946E-2,-3.619883776E0,2.850537300E0,4.608151452E0
2.770323997E1,4.221973419E-1,-3.981331825E0,2.029095173E0,4.488483142E0
2.772001781E1,1.877462387E0,-4.021226406E0,2.728412628E0,5.209545306E0
2.773683922E1,2.807782173E0,-3.440946341E0,2.664888382E0,5.179322595E0
2.775364861E1,2.798273087E0,-1.559458137E0,4.508749247E-1,3.235047163E0
2.777045417E1,3.807183266E0,5.993199348E-2,-2.777859688E0,4.713251607E0
2.778726374E1,4.939876556E0,5.238671303E-1,-4.101034641E0,6.441684740E0
2.780407753E1,3.911283493E0,2.852710485E-1,-3.586091518E0,5.314091692E0
2.782088625E1,2.033317566E0,4.513242245E-1,-2.509678602E0,3.261374030E0
