"Time (s)","Linear Acceleration x (m/s^2)","Linear Acceleration y (m/s^2)","Linear Acceleration z (m/s^2)","Absolute acceleration (m/s^2)"
1.033490900E-2,-1.596741199E0,-3.582502365E0,2.002860308E0,4.404015789E0
2.715465200E-2,-1.066287518E0,-3.775933266E0,1.446099520E0,4.181607935E0
4.397260400E-2,-5.416297913E-1,-3.704151154E0,1.129597783E0,3.910254436E0
6.076938900E-2,-9.423637390E-2,-3.044643402E0,1.130437255E0,3.249095617E0
7.757678200E-2,8.998155594E-2,-8.246822357E-1,1.095419526E0,1.374096579E0
9.438445100E-2,3.454637527E-1,1.027353287E0,1.127784848E0,1.564192649E0
1.111953340E-1,5.275278091E-1,2.234318733E0,1.124563217E0,2.556385773E0
1.280000010E-1,4.491410255E-1,2.687159061E0,8.244416118E-1,2.846446109E0
1.447968770E-1,4.992508888E-1,2.132886410E0,4.588498473E-1,2.238079326E0
1.616163960E-1,7.351508141E-1,1.127645493E0,1.052032411E-2,1.346158146E0
1.784285510E-1,5.010542870E-1,4.799375534E-1,-4.300779700E-1,8.163103049E-1
1.952285280E-1,2.994713783E-1,6.889162064E-1,-8.499354124E-1,1.134318673E0
2.120451900E-1,2.452893257E-1,1.469484329E0,-1.274654031E0,1.960687111E0
2.288481590E-1,3.420262337E-1,2.205936909E0,-1.461752653E0,2.668306656E0
2.456675960E-1,5.480999947E-1,2.600415230E0,-1.505206704E0,3.054213515E0
2.624627330E-1,8.376331329E-1,2.705650806E0,-1.532297492E0,3.220265696E0
2.792776040E-1,1.108178139E0,2.674831390E0,-1.660663605E0,3.337751543E0
2.960834100E-1,1.071393013E0,2.480362415E0,-1.556248665E0,3.118010681E0
3.128895940E-1,1.071555138E0,2.562934399E0,-1.641199470E0,3.226514969E0
3.296979130E-1,1.131483078E0,2.402179718E0,-1.677835226E0,3.140995447E0
3.465070360E-1,1.127644539E0,2.274059772E0,-1.656816602E0,3.031166658E0
3.633140330E-1,1.087081432E0,2.245204449E0,-1.588399172E0,2.957313136E0
3.801242350E-1,8.941946030E-1,2.551401138E0,-1.815879822E0,3.256785422E0
3.969290240E-1,8.095636368E-1,2.453706741E0,-1.825463295E0,3.163603372E0
4.137350950E-1,8.152656555E-1,2.162855625E0,-1.434885979E0,2.720569851E0
4.305512380E-1,1.128270626E0,1.503491879E0,-1.036327481E0,2.146498796E0
4.473543080E-1,1.479709148E0,6.963834763E-1,-7.998965979E-1,1.820528406E0
4.641640420E-1,1.835243225E0,1.787281036E-2,-6.427243948E-1,1.944616101E0
4.809726160E-1,2.052149296E0,-1.111335754E0,-4.228594899E-1,2.371749152E0
4.977804980E-1,2.104470253E0,-1.424704552E0,-2.083191276E-1,2.549897050E0
5.145877690E-1,2.146316051E0,-1.652297974E0,-3.267586231E-2,2.708842723E0
5.313913490E-1,2.299995422E0,-1.681266785E0,1.646023989E-1,2.853722287E0
5.482125370E-1,2.454328537E0,-1.938201904E0,1.197833717E-1,3.129649061E0
5.650099910E-1,2.632843018E0,-2.402089119E0,-2.278548181E-1,3.571248004E0
5.818090540E-1,2.762169838E0,-2.681510925E0,-6.403318048E-1,3.902577081E0
5.986172820E-1,2.567537785E0,-2.511123657E0,-8.643288612E-1,3.693921585E0
6.154412460E-1,1.934651852E0,-1.604727745E0,-9.781029820E-1,2.697167842E0
6.322293040E-1,1.288424969E0,2.566337585E-3,-7.023840547E-1,1.467442962E0
6.490519050E-1,9.156064987E-1,1.303373814E0,-4.411527812E-1,1.652795914E0
6.658627060E-1,7.757964134E-1,1.590680122E0,-1.556484252E-1,1.776611876E0
6.826710770E-1,8.625202179E-1,8.698396683E-1,-9.917859733E-2,1.228982737E0
6.994753580E-1,1.035763741E0,-1.340560913E-1,-7.527612150E-2,1.047112246E0
7.162812870E-1,7.990889549E-1,-6.617889404E-1,1.967331320E-1,1.056035835E0
7.330974590E-1,3.410530090E-1,-4.805021286E-1,7.151417732E-1,9.266213932E-1
7.499029920E-1,-2.751111984E-1,-1.807117462E-2,1.214251280E0,1.245158187E0
7.667102830E-1,-8.729429245E-1,2.737627029E-1,1.559215069E0,1.807796172E0
7.835165580E-1,-1.315353394E0,3.116922379E-1,1.598875165E0,2.093730736E0
8.003272080E-1,-1.728910446E0,1.349473000E-1,1.314451694E0,2.176034320E0
8.171401560E-1,-2.237710476E0,-3.969621658E-2,9.862974286E-1,2.445752764E0
8.339321070E-1,-2.512343884E0,-8.720588684E-2,6.674954891E-1,2.600966529E0
8.507544750E-1,-2.805377483E0,-3.656282425E-1,4.850117564E-1,2.870376846E0
8.675571080E-1,-2.952553511E0,-6.792478561E-1,3.109674156E-1,3.045595281E0
8.843664850E-1,-2.955276012E0,-9.906115532E-1,2.377546728E-1,3.125939034E0
9.011744300E-1,-3.036244869E0,-1.272991657E0,3.795748353E-1,3.314116431E0
9.179858920E-1,-3.241466761E0,-1.197683334E0,4.698953032E-1,3.487456627E0
9.347930410E-1,-3.345329285E0,-1.197445869E0,5.666139126E-1,3.598076703E0
9.516049620E-1,-3.328366280E0,-1.262752056E0,4.241029024E-1,3.585028329E0
9.684070760E-1,-3.178657770E0,-1.587665558E0,2.606287301E-1,3.562649924E0
9.852171350E-1,-2.880985737E0,-2.519888401E0,3.270801306E-1,3.841470784E0
1.002023634E0,-2.322528839E0,-4.482242107E0,9.205098152E-1,5.131468877E0
1.018840549E0,-2.191041946E0,-6.334424973E0,1.749518752E0,6.927223138E0
1.035639774E0,-2.632187366E0,-6.688894749E0,2.116469383E0,7.493274714E0
1.052447138E0,-3.096427917E0,-6.372787476E0,2.263414383E0,7.437965496E0
1.069256953E0,-2.629053116E0,-6.586415768E0,2.243907928E0,7.438273707E0
1.086052445E0,-1.662393093E0,-6.179471970E0,1.649628639E0,6.608380987E0
1.102869369E0,-6.622676849E-1,-5.254653931E0,8.954157829E-1,5.371383047E0
1.119685054E0,4.332394600E-1,-4.382266045E0,5.601555109E-1,4.439113235E0
1.136475348E0,1.114290237E0,-2.847912788E0,9.169881344E-1,3.192666162E0
1.153298773E0,1.103390694E0,-5.842218399E-1,1.603571653E0,2.032296294E0
1.170102780E0,9.987421036E-1,1.355359554E0,2.235450268E0,2.798521612E0
1.186923785E0,1.219609261E0,2.528108597E0,2.283501863E0,3.618447262E0
1.203723407E0,1.476392031E0,2.808376789E0,1.736618638E0,3.616981879E0
1.220533426E0,1.603831053E0,2.454776287E0,1.046385407E0,3.113378083E0
1.237332671E0,1.810846567E0,1.730452061E0,7.512600422E-1,2.614961047E0
1.254148345E0,1.769091368E0,1.386991024E0,5.257493854E-1,2.308644794E0
1.270951294E0,1.065347195E0,1.524426937E0,-3.088486195E-2,1.860052689E0
1.287761729E0,1.177349329E0,1.676877022E0,-5.306805372E-1,2.116527775E0
1.304558889E0,1.320766211E0,2.248342991E0,-1.016456246E0,2.798687708E0
1.321380016E0,1.538029194E0,2.844601154E0,-1.236902356E0,3.462256052E0
1.338189516E0,1.755173206E0,3.056498051E0,-1.670269728E0,3.900335150E0
1.354994203E0,2.009516954E0,3.403223038E0,-2.302598000E0,4.574061978E0
1.371803693E0,2.197628975E0,3.470244408E0,-3.032499552E0,5.105704936E0
1.388613742E0,2.419663191E0,3.324203491E0,-3.687970638E0,5.523244177E0
1.405419569E0,2.596701860E0,2.915893078E0,-4.039195061E0,5.617863449E0
1.422226536E0,2.412037134E0,2.261595249E0,-4.028942585E0,5.212016362E0
1.439042841E0,1.901081085E0,2.202271938E0,-4.364199638E0,5.245030931E0
1.455845351E0,1.448832273E0,2.329246998E0,-4.227855682E0,5.039768864E0
1.472652918E0,1.305107117E0,2.178630352E0,-3.746140003E0,4.525847956E0
1.489459437E0,1.332601547E0,1.645807266E0,-3.009478569E0,3.679873598E0
1.506265671E0,1.603022099E0,7.807884216E-1,-2.346494913E0,2.947091581E0
1.523076045E0,1.885753870E0,-5.157661438E-2,-1.532281637E0,2.430352818E0
1.539883816E0,2.078409672E0,-5.763282776E-1,-7.911251783E-1,2.297350669E0
1.556679562E0,2.307539940E0,-8.121862411E-1,-2.386831045E-1,2.457917144E0
1.573503953E0,2.527114391E0,-8.545436859E-1,3.233772516E-1,2.687215083E0
1.590308642E0,2.488172531E0,-8.015222549E-1,8.747878075E-1,2.756572905E0
1.607118447E0,2.194071293E0,-1.159128189E0,1.128644466E0,2.726053068E0
1.623926949E0,1.705994129E0,-1.430338860E0,1.000434995E0,2.440728457E0
1.640735056E0,1.440259457E0,-1.720561028E0,3.715410829E-1,2.274361521E0
1.657544128E0,1.459064960E0,-2.211140633E0,-6.185039282E-1,2.720397134E0
1.674349985E0,1.455638885E0,-2.653689384E0,-1.374337435E0,3.324117221E0
1.691157797E0,1.220655918E0,-2.236216545E0,-1.845936656E0,3.146132140E0
1.707964061E0,1.315318584E0,-1.529473305E0,-2.020250320E0,2.854954102E0
1.724762309E0,1.844738483E0,-7.304019928E-1,-2.034485340E0,2.841773697E0
1.741583122E0,2.536098003E0,-3.185377121E-1,-1.355873346E0,2.893380702E0
1.758391868E0,2.906095982E0,-2.633419037E-1,-5.230357647E-1,2.964508260E0
1.775201763E0,2.749320030E0,-7.558317184E-1,1.562456787E-1,2.855600625E0
1.791994571E0,1.992281914E0,-9.308452606E-1,6.673678160E-1,2.298051332E0
1.808803500E0,8.111095428E-1,-9.582834244E-1,8.545684814E-1,1.518714292E0
1.825623365E0,-1.667528152E-1,-9.924278259E-1,6.952513456E-1,1.223149183E0
1.842431615E0,-9.489827156E-1,-9.369106293E-1,3.903979063E-1,1.389525188E0
1.859238215E0,-1.557762623E0,-7.583951950E-1,1.563688964E-1,1.739608833E0
1.876049494E0,-2.118832111E0,-4.365468025E-1,-1.039425433E-1,2.165831637E0
1.892855158E0,-2.517184734E0,-4.290952682E-1,-3.286876678E-1,2.574563520E0
1.909664902E0,-3.137855530E0,-7.444291115E-1,-3.975737691E-1,3.249365620E0
1.926460078E0,-3.712178230E0,-9.600372314E-1,-6.982398033E-1,3.897368025E0
1.943280595E0,-4.046113014E0,-1.366725922E0,-1.017444015E0,4.390234913E0
1.960088915E0,-4.357004166E0,-1.616636276E0,-1.213232279E0,4.803012670E0
1.976899125E0,-4.731208801E0,-1.745230675E0,-1.190220594E0,5.181388993E0
1.993715593E0,-4.737195015E0,-1.790990829E0,-1.165106297E0,5.196742965E0
2.010513599E0,-4.588613510E0,-1.984762192E0,-9.960403442E-1,5.097720203E0
2.027308897E0,-4.539513588E0,-1.934144974E0,-7.624926567E-1,4.992944567E0
2.044129942E0,-4.367069244E0,-2.531446934E0,-3.295040429E-1,5.058467187E0
2.060943552E0,-3.865922928E0,-3.414915085E0,2.002355456E-2,5.158236720E0
2.077750203E0,-3.086043835E0,-4.806419849E0,3.694403768E-1,5.723794590E0
2.094550434E0,-2.457973480E0,-5.889698029E0,8.376123309E-1,6.436751581E0
2.111358643E0,-2.078240871E0,-6.013259888E0,1.404815435E0,6.515511185E0
2.128173208E0,-1.945885181E0,-5.527163506E0,1.869510531E0,6.150697130E0
2.144978394E0,-1.952506065E0,-4.852057934E0,2.203323364E0,5.675330825E0
2.161789898E0,-1.747154236E0,-4.411935329E0,2.144860744E0,5.207508895E0
2.178593884E0,-1.007117271E0,-4.598420143E0,1.726493478E0,5.014033580E0
2.195405214E0,-2.099699974E-1,-4.710843086E0,1.503997087E0,4.949559296E0
2.212209740E0,5.736055374E-1,-4.873579979E0,1.445570111E0,5.115708951E0
2.229019402E0,1.246538162E0,-4.560584545E0,1.866824031E0,5.083091652E0
2.245826857E0,1.204108715E0,-2.780030251E0,2.216734648E0,3.753979021E0
2.262635279E0,1.281654358E0,-8.624739647E-1,2.329676151E0,2.795333648E0
2.279445093E0,1.742320538E0,5.045328140E-1,2.263184071E0,2.900385553E0
2.296252283E0,2.011152267E0,1.597832203E0,1.879192829E0,3.182635210E0
2.313051824E0,1.993862152E0,2.372748852E0,1.262701750E0,3.346616068E0
2.329868973E0,1.817444801E0,2.533458710E0,4.190708697E-1,3.145971874E0
2.346664862E0,1.853569508E0,1.818832874E0,1.612769067E-1,2.601899918E0
2.363483466E0,1.990658283E0,1.785245419E0,1.674251109E-1,2.679151502E0
2.380292051E0,1.961955070E0,2.502926826E0,1.081337035E-1,3.182075313E0
2.397105080E0,1.881766319E0,3.394535065E0,-1.099366248E-1,3.882782359E0
2.413913765E0,2.092504025E0,3.772583008E0,-3.918002248E-1,4.331796747E0
2.430716683E0,2.342903137E0,3.801805973E0,-7.970548868E-1,4.536322328E0
2.447524799E0,2.408368111E0,3.990036964E0,-1.236468077E0,4.821772002E0
2.464332670E0,2.102254868E0,3.744895458E0,-1.867427945E0,4.683055055E0
2.481139129E0,2.002896786E0,3.420916557E0,-2.616312981E0,4.749669382E0
2.497956279E0,1.901210308E0,3.355694294E0,-3.017527103E0,4.897014871E0
2.514762939E0,1.896615028E0,3.080163956E0,-2.958088160E0,4.672776917E0
2.531562958E0,1.709743977E0,3.035362244E0,-2.726165771E0,4.423644225E0
2.548379233E0,1.562211514E0,2.852768421E0,-2.462645054E0,4.079633947E0
2.565178935E0,1.567614555E0,2.251617432E0,-2.223096132E0,3.531197087E0
2.581993522E0,1.640080929E0,1.410418987E0,-2.012425661E0,2.954488824E0
2.598795951E0,1.869534492E0,7.667951584E-1,-1.867043257E0,2.751178758E0
2.615615665E0,2.437914848E0,-1.574745178E-1,-1.622972846E0,2.932962306E0
2.632414310E0,3.009985924E0,-6.846904755E-1,-1.253203630E0,3.331566546E0
2.649223718E0,3.076707840E0,-2.962932587E-1,-7.162507772E-1,3.172843520E0
2.666032820E0,2.906317711E0,-2.707595825E-1,-3.804776669E-1,2.943595870E0
2.682838993E0,2.663763046E0,-9.768829346E-1,-5.840547085E-1,2.896731561E0
2.699647100E0,2.346936703E0,-1.756134033E0,-1.399483562E0,3.248179932E0
2.716458613E0,2.394876480E0,-2.309927940E0,-2.165155172E0,3.969772961E0
2.733262232E0,2.495588303E0,-2.648188591E0,-2.331405163E0,4.321610096E0
2.750071620E0,2.315423965E0,-2.165918350E0,-2.579150200E0,4.087102420E0
2.766880021E0,2.024942398E0,-1.186010361E0,-3.032641411E0,3.834569887E0
2.783688158E0,1.955791950E0,-1.142139435E-1,-2.765913010E0,3.389460393E0
2.800497790E0,1.997253895E0,7.430086136E-1,-1.794949293E0,2.786203131E0
2.817306516E0,2.229191780E0,5.460758209E-1,-9.765272737E-1,2.494213365E0
2.834112607E0,2.170295715E0,-2.376766205E-1,-4.126310647E-1,2.221922155E0
2.850926065E0,1.859879494E0,-9.486808777E-1,-2.010082603E-1,2.097510777E0
2.867730437E0,1.561008930E0,-1.590612411E0,1.942109019E-1,2.237077245E0
2.884538187E0,9.860939980E-1,-1.296597481E0,8.342462182E-1,1.830167520E0
2.901358806E0,1.451725960E-1,-3.850040436E-1,1.302470446E0,1.365918174E0
2.918155365E0,-4.960374832E-1,2.047395706E-2,1.536365390E0,1.614586937E0
2.934960917E0,-1.149482727E0,1.811547279E-1,1.452971816E0,1.861519453E0
2.951769695E0,-1.908205032E0,1.288943291E-1,1.022323966E0,2.168641622E0
2.968582134E0,-2.567184925E0,-1.847677231E-1,4.445194006E-1,2.611929373E0
2.985386497E0,-3.059391737E0,-5.616869926E-1,-1.387094110E-1,3.113616929E0
3.002195508E0,-3.230659962E0,-1.248087406E0,-5.218733549E-1,3.502461671E0
3.019000593E0,-3.372787952E0,-1.759473324E0,-5.106068254E-1,3.838250159E0
3.035814395E0,-3.978513718E0,-1.836723328E0,-2.548429370E-1,4.389426945E0
3.052616856E0,-4.596135139E0,-1.696109772E0,-1.112834513E-1,4.900370454E0
3.069429336E0,-4.935726166E0,-1.668471813E0,-5.877643824E-2,5.210436224E0
3.086235752E0,-4.850613117E0,-1.926357746E0,1.596785039E-1,5.221570550E0
3.103042953E0,-4.730762959E0,-2.362204075E0,4.334490895E-1,5.305469289E0
3.119852484E0,-4.616713047E0,-3.346128941E0,1.293273807E0,5.846637956E0
3.136659480E0,-3.732416391E0,-5.372706413E0,1.862278700E0,6.801837125E0
3.153468420E0,-2.531680584E0,-7.154221058E0,1.563720942E0,7.748387491E0
3.170276892E0,-1.543686390E0,-8.157587051E0,1.505130291E0,8.437689931E0
3.187085913E0,-1.450649738E0,-7.660459995E0,1.881229401E0,8.020352614E0
3.203891944E0,-2.037825584E0,-5.873346329E0,2.504973412E0,6.702523555E0
3.220703438E0,-1.968175888E0,-4.427609921E0,2.899080515E0,5.646424866E0
3.237509194E0,-1.415686131E0,-4.247807026E0,2.494731188E0,5.125594156E0
3.254316496E0,-2.955684662E-1,-5.264302731E0,1.518940210E0,5.487023175E0
3.271124643E0,8.213152885E-1,-6.129126072E0,8.785659075E-1,6.246008586E0
3.287922179E0,1.291231632E0,-4.755834103E0,1.222115040E0,5.077282965E0
3.304769734E0,1.163534164E0,-2.028399944E0,1.651965857E0,2.863076890E0
3.321554363E0,1.220942497E0,-2.338480949E-1,2.125822544E0,2.462621977E0
3.338357728E0,1.197389603E0,1.069666862E0,2.510457039E0,2.979987181E0
3.355167745E0,1.128220081E0,2.051784992E0,2.208378792E0,3.218639323E0
3.371973767E0,1.370689869E0,2.420134068E0,1.730095625E0,3.275525987E0
3.388783002E0,1.481457710E0,2.673963070E0,7.620332241E-1,3.150474580E0
3.405591269E0,1.105929852E0,3.117423058E0,-4.598025084E-1,3.339584660E0
3.422389224E0,1.278118134E0,3.449098110E0,-1.348226309E0,3.917598488E0
3.439213422E0,1.507318020E0,3.974894047E0,-1.655479431E0,4.562061206E0
3.456014123E0,1.741302729E0,4.495966911E0,-1.701948762E0,5.112972056E0
3.472826592E0,1.826186419E0,4.734481812E0,-2.057182312E0,5.475607174E0
3.489633041E0,2.068764687E0,4.781898975E0,-1.964727163E0,5.568347867E0
3.506441248E0,2.437926054E0,4.571743488E0,-1.658162475E0,5.440020658E0
3.523246790E0,2.483111858E0,4.372375965E0,-1.435811162E0,5.229251359E0
3.540057999E0,2.793077469E0,3.543565273E0,-1.269370198E0,4.687156632E0
3.556865006E0,3.325062513E0,2.935041904E0,-9.995735884E-1,4.546389673E0
3.573672074E0,3.597985983E0,2.648962975E0,-6.347969770E-1,4.512812336E0
3.590480058E0,3.538830996E0,2.083738327E0,-2.761913538E-1,4.116014079E0
3.607289812E0,3.724261999E0,1.288179874E0,-1.268464327E-1,3.942794040E0
3.624096636E0,3.919178486E0,5.625944138E-1,-4.560539722E-1,3.985531044E0
3.640909340E0,3.998595238E0,3.653631210E-1,-7.516951561E-1,4.085009142E0
3.657713214E0,3.929093599E0,6.913881302E-1,-1.091107249E0,4.135977404E0
3.674520557E0,4.200087070E0,5.657434464E-1,-1.686702609E0,4.561333439E0
3.691330738E0,4.580506802E0,2.088088989E-1,-1.940832257E0,4.979103691E0
3.708143299E0,4.572554588E0,2.117862701E-1,-2.002409458E0,4.996273864E0
3.724933674E0,4.168225765E0,3.977022171E-1,-1.922377229E0,4.607364463E0
3.741755636E0,3.776226997E0,-7.196044922E-2,-1.776156664E0,4.173703528E0
3.758561769E0,3.593376160E0,-1.008385658E0,-1.892281294E0,4.184485913E0
3.775358277E0,3.616672039E0,-2.166769981E0,-2.279821634E0,4.792994416E0
3.792178784E0,3.550887585E0,-2.661870956E0,-2.434006691E0,5.061496636E0
3.808997123E0,3.447216034E0,-1.951363564E0,-2.222419500E0,4.542055325E0
3.825796205E0,3.290507793E0,-4.765768051E-1,-1.602741122E0,3.690981725E0
3.842605605E0,3.384473324E0,2.573785782E-1,-7.822464108E-1,3.483218750E0
3.859413059E0,3.274664879E0,4.625582695E-1,3.484950066E-1,3.325483272E0
3.876198541E0,2.913764477E0,9.086303711E-1,1.240564823E0,3.294637106E0
3.893027541E0,2.451727390E0,7.606663704E-1,1.910427570E0,3.199892815E0
3.909823338E0,1.887068748E0,9.397602081E-2,2.368686438E0,3.029939833E0
3.926641891E0,1.163617611E0,-4.586434364E-1,2.577483416E0,2.864922425E0
3.943457301E0,1.340975761E-1,-6.122465134E-1,2.554489136E0,2.630255253E0
3.960261532E0,-8.498787880E-1,-6.455349922E-1,2.396680832E0,2.623564063E0
3.977067776E0,-1.571882248E0,-9.514942169E-1,2.407925606E0,3.028904219E0
3.993872392E0,-2.089832306E0,-1.260358810E0,2.408383846E0,3.428733899E0
4.010690478E0,-2.401956558E0,-1.761485100E0,2.502018452E0,3.890028457E0
4.027492632E0,-2.685617447E0,-2.316386223E0,2.650456429E0,4.427539439E0
4.044302010E0,-3.206836224E0,-2.365426540E0,2.606712818E0,4.761721642E0
4.061110849E0,-3.684500217E0,-2.447427750E0,2.609060764E0,5.135430120E0
4.077924264E0,-4.273313999E0,-2.814082623E0,2.900617599E0,5.881654189E0
4.094727467E0,-4.592915535E0,-3.734891415E0,2.950306416E0,6.614272064E0
4.111533579E0,-4.776842117E0,-4.590389729E0,2.783655167E0,7.186002683E0
4.128342844E0,-5.006457329E0,-4.588684082E0,2.752707005E0,7.327894134E0
4.145152577E0,-5.268560410E0,-4.401234627E0,3.029925823E0,7.503935336E0
4.161959291E0,-5.371156693E0,-4.220007420E0,3.189363956E0,7.538556180E0
4.178763011E0,-4.941288948E0,-4.513152122E0,2.958148956E0,7.316797373E0
4.195580578E0,-4.155625343E0,-5.274262428E0,2.477996349E0,7.157341131E0
4.212382896E0,-3.282791615E0,-6.409201622E0,2.170476913E0,7.521007662E0
4.229190341E0,-2.983743668E0,-6.396751881E0,2.211921692E0,7.396874912E0
4.246000694E0,-2.869103432E0,-5.772680283E0,2.464326859E0,6.901340378E0
4.262807101E0,-2.659436226E0,-5.431030750E0,2.590775728E0,6.578815617E0
4.279617385E0,-2.155298710E0,-5.405373096E0,2.589654446E0,6.369433333E0
4.296423821E0,-1.266805172E0,-5.723386765E0,2.296298027E0,6.295628327E0
4.313217035E0,-4.196004868E-1,-5.771971226E0,2.225099325E0,6.200224464E0
4.330031174E0,2.089061737E-1,-5.036817551E0,2.393558025E0,5.580528008E0
4.346849462E0,7.600054741E-1,-3.923929214E0,2.652546406E0,4.796960625E0
4.363633418E0,1.025480747E0,-2.815211296E0,2.830073833E0,4.121449176E0
4.380467729E0,1.424018383E0,-1.948087215E0,2.680508614E0,3.606660309E0
4.397262722E0,1.863767147E0,-1.284893990E0,2.381757736E0,3.285932205E0
4.414079830E0,2.152391434E0,-4.317421913E-1,2.121734619E0,3.053022764E0
4.430890236E0,2.303558350E0,4.099030495E-1,1.723624706E0,2.906077031E0
4.447698046E0,2.105857849E0,1.112508297E0,1.021402001E0,2.591442463E0
4.464505776E0,2.432711124E0,1.676538944E0,6.440850496E-1,3.023857106E0
4.481311604E0,2.910972595E0,2.280256271E0,3.719160557E-1,3.716403055E0
4.498123870E0,2.831187725E0,3.395549774E0,-1.081762314E0,4.551438444E0
4.514931792E0,2.512336254E0,4.161963940E0,-2.680187941E0,5.551322787E0
4.531733979E0,2.510766029E0,4.260321617E0,-3.675436258E0,6.161421753E0
4.548545746E0,2.891777515E0,3.874912262E0,-3.590573549E0,6.022419833E0
4.565359376E0,3.357527494E0,3.564602375E0,-3.267389774E0,5.886868175E0
4.582164115E0,3.784196377E0,3.528734207E0,-2.293797970E0,5.659824772E0
4.598972922E0,4.044580936E0,3.663194656E0,-1.677461624E0,5.708897226E0
4.615778515E0,3.997720480E0,4.046295166E0,-1.486505389E0,5.879113188E0
4.632588453E0,3.665084362E0,4.530398846E0,-1.901263118E0,6.129613244E0
4.649396722E0,2.789655447E0,5.011554718E0,-2.891830683E0,6.423437001E0
4.666204603E0,2.275081873E0,4.838400364E0,-3.522836208E0,6.402850190E0
4.683011478E0,2.279296398E0,3.675017357E0,-3.326066017E0,5.455608105E0
4.699821425E0,2.318036556E0,2.393485069E0,-2.597287893E0,4.224685628E0
4.716629266E0,2.250711679E0,1.285481930E0,-1.559653282E0,3.025009953E0
4.733435703E0,2.212686062E0,-3.048896790E-2,-4.488415718E-1,2.257956586E0
4.750244238E0,2.342939377E0,-1.263586044E0,8.366982937E-1,2.790354574E0
4.767054510E0,2.450259686E0,-2.184916496E0,1.760339260E0,3.725107640E0
4.783841273E0,2.451850414E0,-3.084171295E0,2.542800426E0,4.689298139E0
4.800668372E0,2.169157505E0,-3.696703911E0,3.187533855E0,5.341463860E0
4.817481584E0,2.253762245E0,-4.539663315E0,3.679143667E0,6.262913491E0
4.834282996E0,2.435832500E0,-5.244515419E0,3.766450882E0,6.901041530E0
4.851081744E0,2.333161354E0,-5.205655098E0,3.096806288E0,6.490970350E0
4.867901548E0,2.220917702E0,-3.972590446E0,1.683709383E0,4.852713424E0
4.884712848E0,2.434490681E0,-1.855697632E0,4.578063190E-1,3.095148656E0
4.901517649E0,2.961394787E0,-6.284809113E-2,-1.462988555E-1,2.965672322E0
4.918314076E0,3.433918953E0,1.105341434E0,-2.408322096E-1,3.615463900E0
4.935135131E0,3.568595409E0,1.950294018E0,1.760465652E-1,4.070566588E0
4.951934907E0,3.292159557E0,2.254556656E0,9.438663125E-1,4.100271196E0
4.968748780E0,2.671119213E0,2.532697201E0,1.686558843E0,4.048939823E0
4.985562694E0,2.045698166E0,2.901919842E0,2.229247332E0,4.192321960E0
5.002366854E0,1.502695084E0,3.180850029E0,2.550959587E0,4.345491254E0
5.019176220E0,9.965076447E-1,3.343461514E0,2.724316835E0,4.426473156E0
5.035986788E0,6.229443550E-1,3.052951336E0,2.621210098E0,4.071770365E0
5.052790346E0,3.154540062E-1,2.133705616E0,2.398450136E0,3.225643183E0
5.069601047E0,9.736442566E-2,9.115791321E-1,2.166640759E0,2.352613126E0
5.086410210E0,-1.689181328E-1,-4.183244705E-2,1.998361230E0,2.005923950E0
5.103215783E0,-3.747901917E-1,-7.437481880E-1,2.038481236E0,2.202052407E0
5.120023330E0,-5.278034210E-1,-1.106161118E0,2.468722105E0,2.756221635E0
5.136832727E0,-9.789218903E-1,-1.227128029E0,3.000913143E0,3.386681408E0
5.153639857E0,-1.679172993E0,-1.637674332E0,3.362644434E0,4.099875211E0
5.170453894E0,-2.886868238E0,-2.563088417E0,3.730763197E0,5.368614765E0
5.187255906E0,-4.127902985E0,-4.455738544E0,3.324717522E0,6.924372580E0
5.204065344E0,-5.141704559E0,-6.261638165E0,3.563863754E0,8.851348097E0
5.220874743E0,-5.667679310E0,-5.788431644E0,4.890376091E0,9.462785424E0
5.237670468E0,-5.206744671E0,-5.145467758E0,6.025289536E0,9.481041214E0
5.254488584E0,-4.311314583E0,-4.702929020E0,7.130283833E0,9.567963332E0
5.271310921E0,-3.599326134E0,-4.248698235E0,7.931365967E0,9.690879805E0
5.288107074E0,-3.046106577E0,-3.680893421E0,8.124711990E0,9.425427660E0
5.304903685E0,-2.434501648E0,-3.233175755E0,7.972985268E0,8.941404689E0
5.321720276E0,-1.516395569E0,-3.512860775E0,7.203079224E0,8.156224411E0
5.338541127E0,-5.938000679E-1,-4.518939972E0,6.171583176E0,7.672148062E0
5.355340383E0,7.749891281E-2,-5.390632629E0,5.290645599E0,7.553532755E0
5.372147329E0,3.155546188E-1,-5.279819965E0,4.734014034E0,7.098377453E0
5.388960521E0,4.017729759E-1,-4.243802071E0,4.211970329E0,5.992659810E0
5.405764181E0,3.740854263E-1,-2.756248474E0,3.510757446E0,4.479091806E0
5.422576672E0,2.170820236E-1,-1.583170414E0,2.644500732E0,3.089811853E0
5.439377677E0,1.781353951E-1,-1.331246376E0,1.807484269E0,2.251876665E0
5.456187737E0,5.514297485E-1,-1.475369453E0,1.143190861E0,1.946195041E0
5.472996248E0,7.658648491E-1,-1.219588280E0,4.044674337E-1,1.495840381E0
5.489804691E0,5.792946815E-1,-4.319067001E-1,-6.686374545E-1,9.844804575E-1
5.506612461E0,4.987387657E-1,8.687553406E-1,-1.568922400E0,1.861449354E0
5.523420404E0,1.651201248E-1,2.183806896E0,-2.057646513E0,3.005026853E0
5.540229853E0,8.954410553E-1,2.938323498E0,-1.611672163E0,3.468868234E0
5.557038600E0,1.176965237E0,3.376097679E0,-1.376320362E0,3.831127830E0
5.573844945E0,1.782594204E0,3.262979984E0,-1.836328030E0,4.146900180E0
5.590655351E0,2.612225294E0,2.551939487E0,-2.604055405E0,4.485222479E0
5.607463131E0,3.606965303E0,2.272252083E0,-3.715683460E0,5.655053652E0
5.624257656E0,4.083705902E0,2.817882061E0,-4.425955772E0,6.648774150E0
5.641077553E0,4.088648796E0,3.390434265E0,-5.126177788E0,7.381720138E0
5.657887092E0,3.996021748E0,3.331025124E0,-5.273375511E0,7.407591205E0
5.674697059E0,4.063317776E0,2.945104122E0,-4.801178932E0,6.945178815E0
5.691490162E0,4.043649673E0,2.751719475E0,-3.874027729E0,6.239483440E0
5.708310546E0,3.941310644E0,2.463394165E0,-2.704611063E0,5.377467937E0
5.725120910E0,4.065028191E0,1.831002712E0,-1.696267486E0,4.770151833E0
5.741929616E0,4.077738762E0,1.219734192E0,-1.116429567E0,4.400240890E0
5.758720062E0,3.772029638E0,8.359689713E-1,-9.363421202E-1,3.975397877E0
5.775543182E0,3.661283016E0,1.392860413E-1,-3.958038092E-1,3.685248239E0
5.792354371E0,3.339811087E0,-4.675540924E-1,-1.651896238E-1,3.376423039E0
5.809159140E0,3.350507736E0,-1.182986259E0,-1.707153916E-1,3.557316731E0
5.825968100E0,3.724167109E0,-2.021796227E0,1.336073875E-1,4.239685315E0
5.842771181E0,4.134814262E0,-2.675503731E0,3.996776938E-1,4.941128561E0
5.859590833E0,4.611275196E0,-3.411684990E0,4.544978738E-1,5.754130840E0
5.876391014E0,4.586789608E0,-4.554070473E0,7.027170062E-1,6.501692700E0
5.893202995E0,3.751006603E0,-3.683085442E0,4.218571782E-1,5.273815733E0
5.910010604E0,3.004222393E0,-1.655959129E0,-6.487447023E-2,3.431000076E0
5.926818181E0,2.659101963E0,9.037303925E-2,-2.676868141E-1,2.674069327E0
5.943622339E0,2.660828114E0,1.380532265E0,1.659753919E-2,2.997690955E0
5.960435887E0,2.824744701E0,1.837495327E0,3.172932565E-1,3.384707774E0
5.977243759E0,2.576293468E0,1.576936245E0,6.384187341E-1,3.087328042E0
5.994049281E0,1.937703609E0,8.014316559E-1,8.270804882E-1,2.254118478E0
6.010858791E0,1.147641659E0,2.637739182E-1,1.028001428E0,1.563152261E0
6.027666103E0,4.655523300E-1,3.098697662E-1,1.041709065E0,1.182334987E0
6.044474454E0,-1.297202110E-1,6.517052650E-1,1.280799747E0,1.442912013E0
6.061283333E0,-6.385021210E-1,1.088181973E0,1.581189513E0,2.022865601E0
6.078089953E0,-1.040990353E0,1.122859955E0,1.762752295E0,2.334902791E0
6.094899269E0,-1.539237499E0,7.545599937E-1,1.835221529E0,2.511304626E0
6.111711099E0,-2.047448158E0,3.109407425E-1,1.745529652E0,2.708431626E0
6.128514057E0,-2.581823826E0,-7.638311386E-2,1.548232555E0,3.011423699E0
6.145311461E0,-2.789340496E0,-7.991113663E-1,1.270893574E0,3.167675781E0
6.162133749E0,-3.137528419E0,-1.176081181E0,1.230457783E0,3.569492664E0
6.178931682E0,-3.534466982E0,-1.214684963E0,1.365241766E0,3.978919638E0
6.195751373E0,-3.704468250E0,-1.727863789E0,1.534380555E0,4.366110624E0
6.212546998E0,-3.622401714E0,-2.684265614E0,1.837128878E0,4.868482164E0
6.229352297E0,-3.500441074E0,-3.400724411E0,2.145323277E0,5.331081147E0
6.246161379E0,-3.584572315E0,-3.933732510E0,2.447834969E0,5.857926781E0
6.262983024E0,-3.751581669E0,-4.526991844E0,2.545774460E0,6.406948398E0
6.279788496E0,-3.660262585E0,-5.710467815E0,2.630301714E0,7.274988108E0
6.296601983E0,-3.450846672E0,-7.163169861E0,2.956796408E0,8.483041330E0
6.313405836E0,-3.762786865E0,-7.832044125E0,3.043694973E0,9.206712728E0
6.330211349E0,-3.889210701E0,-7.919652462E0,3.009985685E0,9.322385361E0
6.347023350E0,-3.577941418E0,-7.938216686E0,3.103363276E0,9.243798600E0
6.363826594E0,-2.807929039E0,-8.171658516E0,2.880267143E0,9.108040800E0
6.380644567E0,-2.162568092E0,-8.358174324E0,2.685229778E0,9.041362605E0
6.397446122E0,-1.591247559E0,-7.645891190E0,2.609174013E0,8.234045780E0
6.414253210E0,-9.862289429E-1,-6.112462044E0,2.860314369E0,6.820281377E0
6.431076565E0,-1.231579781E-1,-4.556527138E0,2.874299049E0,5.388757043E0
6.447871650E0,6.521015167E-1,-3.241182327E0,2.671824932E0,4.250782014E0
6.464681333E0,1.342249870E0,-2.024767876E0,2.447111607E0,3.448140786E0
6.481477435E0,1.901968956E0,-8.052182198E-1,2.361732483E0,3.137457986E0
6.498296110E0,2.178582191E0,5.743513107E-1,2.219508886E0,3.162644382E0
6.515105314E0,2.216313839E0,1.819435120E0,2.019931555E0,3.507494073E0
6.531913726E0,2.158607960E0,3.263869286E0,1.951555967E0,4.372756766E0
6.548722238E0,1.273004055E0,4.989825249E0,1.896131754E0,5.487641658E0
6.565528289E0,3.542218208E-1,5.915390968E0,1.951796412E0,6.239137171E0
6.582333191E0,-3.274946213E-1,5.149592400E0,1.211047053E0,5.300206560E0
6.599146567E0,-1.642608643E-2,2.839428902E0,-3.219839633E-1,2.857673875E0
6.615964641E0,1.451754570E-1,1.461141109E0,-2.129141808E0,2.586359235E0
6.632749016E0,7.999968529E-1,1.475525379E0,-3.505358696E0,3.886477801E0
6.649570060E0,1.990466595E0,1.906155586E0,-3.523239851E0,4.473097968E0
6.666376823E0,3.354103565E0,2.392681599E0,-2.924060345E0,5.052233650E0
6.683188693E0,4.074029922E0,3.350403786E0,-2.371376514E0,5.783282105E0
6.699996321E0,4.489068985E0,3.601377964E0,-1.699561357E0,6.000847640E0
6.716799564E0,4.795104027E0,3.465380192E0,-1.225885391E0,6.041910087E0
6.733603051E0,4.899898529E0,2.995082855E0,-1.347220659E0,5.898688872E0
6.750417821E0,4.941252708E0,2.611317158E0,-1.418647528E0,5.766065941E0
6.767228887E0,5.103839874E0,2.207739353E0,-1.533100128E0,5.768335160E0
6.784032953E0,5.219132423E0,1.511507511E0,-1.731598735E0,5.702844237E0
6.800845170E0,5.325847626E0,6.636667252E-1,-1.771380186E0,5.651804510E0
6.817657721E0,5.214062214E0,2.623844147E-2,-1.320168734E0,5.378659565E0
6.834455084E0,4.729319572E0,2.224245071E-1,-7.959349155E-1,4.800984136E0
6.851262082E0,4.319013596E0,4.900121689E-1,-7.275679111E-1,4.407192466E0
6.868065284E0,4.519443512E0,-5.129938126E-1,-1.205443501E0,4.705488959E0
6.884885129E0,5.188448906E0,-2.498716354E0,-1.874801159E0,6.056274833E0
6.901701679E0,5.878032684E0,-4.563780785E0,-2.022409678E0,7.711647307E0
6.918499236E0,5.282662392E0,-3.824600220E0,-1.601541042E0,6.715580578E0
6.935306599E0,3.724000931E0,-8.570775986E-1,-1.171033502E0,3.996759238E0
6.952119527E0,2.713868141E0,1.037343979E0,-4.571788907E-1,2.941118045E0
6.968929087E0,2.326101780E0,1.466766834E0,-2.179408222E-1,2.758559885E0
6.985729207E0,2.506891727E0,6.637868881E-1,-1.901603341E-1,2.600246165E0
7.002543519E0,2.612575054E0,-5.257282257E-1,-1.169416755E-1,2.667510813E0
7.019349661E0,2.344738483E0,-7.928600311E-1,4.377186894E-1,2.513567830E0
7.036157380E0,1.624529362E0,-3.207111359E-1,1.209360838E0,2.050488946E0
7.052967337E0,9.003801346E-1,1.420831680E-2,2.153151035E0,2.333869243E0
7.069774752E0,2.220687866E-1,1.581172943E-1,2.842918634E0,2.855959031E0
7.086583255E0,-3.377695084E-1,-8.011722565E-2,3.193379402E0,3.212192245E0
7.103389427E0,-6.848759651E-1,-3.404383659E-1,3.089951515E0,3.183198664E0
7.120197829E0,-9.339604378E-1,-7.545881271E-1,2.844313622E0,3.087362194E0
7.137008375E0,-1.334883213E0,-1.025569439E0,2.614543438E0,3.109588921E0
7.153803074E0,-1.698289871E0,-1.551859856E0,2.478990078E0,3.381988957E0
7.170623112E0,-2.214674473E0,-1.817009926E0,2.338150740E0,3.697736737E0
7.187420059E0,-2.751205444E0,-2.194631100E0,2.167503834E0,4.133232383E0
7.204238134E0,-3.188528538E0,-2.778218269E0,2.063642502E0,4.705723256E0
7.221053137E0,-3.534763336E0,-3.025596142E0,1.874045134E0,5.016057119E0
7.237854620E0,-3.811226368E0,-3.273482800E0,1.868659616E0,5.360319470E0
7.254656877E0,-4.214790344E0,-3.221580982E0,1.994250298E0,5.667457624E0
7.271469266E0,-4.554903030E0,-3.139544010E0,2.229736090E0,5.964528585E0
7.288285032E0,-4.722764969E0,-3.508508682E0,2.405913830E0,6.356301085E0
7.305089343E0,-4.783062935E0,-4.228924274E0,2.454895258E0,6.840175603E0
7.321897389E0,-4.336905479E0,-5.757353306E0,2.580625057E0,7.656075490E0
7.338703693E0,-4.076924324E0,-7.143093109E0,3.204187632E0,8.826772314E0
7.355515197E0,-4.367779732E0,-7.162942886E0,3.471408367E0,9.079423254E0
7.372320608E0,-4.436837196E0,-6.786962509E0,3.351762533E0,8.773978373E0
7.389132253E0,-3.848189831E0,-6.570399284E0,2.900676727E0,8.148167721E0
7.405931804E0,-2.816512108E0,-7.043694019E0,2.486274719E0,7.982977381E0
7.422746268E0,-1.808246136E0,-7.692234516E0,1.852001190E0,8.116041791E0
7.439547792E0,-1.107208252E0,-7.917519569E0,1.217470407E0,8.086733607E0
7.456366700E0,-7.382488251E-1,-7.268892288E0,9.425483346E-1,7.366831326E0
7.473170045E0,-5.136251450E-1,-5.137980938E0,1.010426283E0,5.261522611E0
7.489962965E0,4.744529724E-3,-2.819516182E0,1.325314283E0,3.115469782E0
7.506792077E0,6.545262337E-1,-1.163998127E0,1.454900742E0,1.974849968E0
7.523594760E0,1.164363384E0,-7.234144211E-2,1.321471453E0,1.762742799E0
7.540404036E0,1.409808636E0,4.724798203E-1,1.016704321E0,1.801245471E0
7.557210219E0,1.471321106E0,5.988063812E-1,4.414684772E-1,1.648711405E0
7.574019434E0,1.314176559E0,3.560819626E-1,1.573640704E-1,1.370626807E0
7.590828659E0,1.132589340E0,5.183682442E-1,1.169013381E-1,1.251051627E0
7.607633082E0,9.839043617E-1,1.394074917E0,3.038866818E-2,1.706586106E0
7.624442429E0,1.700335503E0,2.050241947E0,5.587584376E-1,2.721551737E0
7.641253292E0,1.606582165E0,3.020192623E0,6.266592741E-1,3.477840074E0
7.658061235E0,1.608141422E0,3.698612690E0,-1.634469628E-2,4.033128043E0
7.674869077E0,1.527740955E0,3.754741669E0,-7.288859487E-1,4.118659023E0
7.691683907E0,1.698247433E0,3.324499130E0,-9.718855619E-1,3.857577006E0
7.708480111E0,2.061539173E0,2.807301521E0,-9.666756392E-1,3.614601968E0
7.725292641E0,2.261178493E0,2.850205421E0,-9.285038710E-1,3.754826036E0
7.742102070E0,2.475121975E0,3.105947495E0,-8.991477489E-1,4.072051731E0
7.758912668E0,2.581861019E0,3.397912502E0,-1.234531164E0,4.442508626E0
7.775720285E0,2.889283180E0,3.409860611E0,-1.228092194E0,4.635009937E0
7.792524445E0,3.014820099E0,3.258099079E0,-1.734171271E0,4.765679368E0
7.809332855E0,3.361674070E0,2.679592133E0,-1.866996050E0,4.686868976E0
7.826142884E0,3.883795738E0,1.816888809E0,-1.468472242E0,4.532258268E0
7.842940511E0,4.395733833E0,9.814043045E-1,-1.098783374E0,4.636049530E0
7.859756197E0,5.090165138E0,1.918420792E-1,-6.823360920E-1,5.139276901E0
7.876568738E0,5.598771095E0,-2.031669617E-1,-7.048946619E-2,5.602899549E0
7.893374686E0,5.738749027E0,-3.163957596E-1,-1.111353636E-1,5.748538749E0
7.910185093E0,5.970808983E0,-1.109160423E0,-2.897449732E-1,6.079864218E0
7.926994358E0,5.970617294E0,-1.985295296E0,-4.044298232E-1,6.305016397E0
7.943797804E0,5.529439926E0,-2.914420128E0,-4.328641295E-1,6.265454647E0
7.960610987E0,4.776319027E0,-3.645510674E0,-6.986275315E-1,6.049053806E0
7.977416824E0,3.449860573E0,-2.408554077E0,-7.241981626E-1,4.269324735E0
7.994223109E0,2.065335274E0,-1.416034698E-1,-7.073637247E-1,2.187698511E0
8.011031246E0,1.238226891E0,1.407764912E0,-7.789430618E-1,2.030211854E0
8.027841101E0,9.069433212E-1,1.596350193E0,-9.481431246E-1,2.066362870E0
8.044651435E0,1.021442890E0,7.544784546E-1,-1.101724148E0,1.681183932E0
8.061456021E0,1.139751911E0,-2.239751816E-1,-9.122570157E-1,1.476960448E0
8.078264849E0,4.817881584E-1,-9.698295593E-1,-3.271105886E-1,1.131234079E0
8.095074104E0,-6.771674156E-1,-9.087724686E-1,3.210006952E-1,1.177906853E0
8.111883370E0,-1.912641287E0,-6.179590225E-1,1.067948103E0,2.276089453E0
8.128677193E0,-2.832433462E0,-1.928529739E-1,1.241079330E0,3.098410801E0
8.145497119E0,-3.350878954E0,2.693653107E-3,1.171319485E0,3.549702291E0
8.162317453E0,-3.652556419E0,2.929372787E-1,8.860250115E-1,3.769883416E0
8.179114440E0,-3.584610462E0,4.345636368E-1,6.636731625E-1,3.671340326E0
8.195912210E0,-3.297389746E0,1.126933098E-1,6.855633259E-1,3.369788716E0
8.212728994E0,-3.027431011E0,2.935643196E-1,7.430965900E-1,3.131087843E0
8.229540091E0,-2.869133472E0,6.322007179E-1,7.193375230E-1,3.024739840E0
8.246344738E0,-2.701277256E0,6.575231552E-1,8.149007559E-1,2.897119044E0
8.263157960E0,-2.693101883E0,4.304895401E-1,8.780152798E-1,2.865140455E0
8.279964266E0,-2.465559483E0,1.334285736E-2,8.325631618E-1,2.602368731E0
8.296773277E0,-2.154473305E0,-4.418501854E-1,9.456124306E-1,2.393986148E0
8.313575137E0,-1.874856472E0,-9.074716568E-1,1.362763405E0,2.489119462E0
8.330390384E0,-1.826228619E0,-1.045552731E0,1.611243725E0,2.650358055E0
8.347199019E0,-1.789073467E0,-1.511462688E0,1.616287708E0,2.845643914E0
8.364003757E0,-1.306375504E0,-2.583017826E0,1.299083471E0,3.172730041E0
8.380815892E0,-6.920790672E-1,-3.633728981E0,1.368498087E0,3.944077428E0
8.397618270E0,-5.317721367E-1,-3.905152321E0,1.717850208E0,4.299302919E0
8.414427628E0,-8.686609268E-1,-3.480216026E0,1.951962113E0,4.083703159E0
8.431237809E0,-7.208213806E-1,-3.899149895E0,1.956629276E0,4.421691021E0
8.448044073E0,-1.437892914E-1,-5.031652927E0,1.446872950E0,5.237523067E0
8.464853502E0,7.132701874E-1,-6.323479652E0,1.045611143E0,6.448910911E0
8.481664456E0,1.205468178E0,-6.873295784E0,1.078433275E0,7.061045729E0
8.498467252E0,7.853088379E-1,-5.022785187E0,1.535457850E0,5.310622545E0
8.515280230E0,2.019257545E-1,-2.186920166E0,1.667346954E0,2.757433533E0
8.532086059E0,3.475036621E-1,-4.151983261E-1,1.616021395E0,1.704310298E0
8.548895262E0,5.501446724E-1,7.367324829E-1,1.201041937E0,1.512592360E0
8.565704670E0,5.162444115E-1,1.299059391E0,2.312351763E-1,1.416874483E0
8.582508840E0,1.470713615E-1,1.149816513E0,-3.661070168E-1,1.215624262E0
8.599319845E0,-3.726406097E-1,7.558608055E-1,-6.174702048E-1,1.044727733E0
8.616110688E0,-7.141733170E-1,4.560470581E-1,-4.828034639E-1,9.752546491E-1
8.632932272E0,-1.063779831E0,1.153580666E0,-2.172074318E-1,1.584157489E0
8.649748363E0,-1.336550236E0,2.437229633E0,-1.911572218E-1,2.786215337E0
8.666549765E0,-1.364241600E0,3.485910416E0,-2.028312385E-1,3.748848767E0
8.683348085E0,-1.426227570E0,4.039942741E0,-6.733899117E-1,4.336901706E0
8.700166994E0,-1.259343624E0,3.980800390E0,-1.137263536E0,4.327364840E0
8.716975588E0,-9.351859093E-1,3.749517918E0,-1.288327217E0,4.073480615E0
8.733780480E0,-6.026163101E-1,3.447700500E0,-1.474881649E0,3.798033838E0
8.750601068E0,-3.497014046E-1,3.083765030E0,-1.573520660E0,3.479635771E0
8.767395633E0,-1.129722595E-1,2.795791149E0,-1.606124878E0,3.226274633E0
8.784212854E0,2.625217438E-1,2.328853130E0,-1.454128027E0,2.758072314E0
8.801018224E0,4.990205765E-1,1.629800797E0,-1.224968672E0,2.099004626E0
8.817825374E0,5.110416412E-1,1.386453629E0,-1.048865676E0,1.812053098E0
8.834632909E0,6.063375473E-1,9.794349670E-1,-7.524992824E-1,1.375933591E0
8.851442562E0,1.190305710E0,1.932497025E-1,-3.202146888E-1,1.247682082E0
8.868251675E0,2.014745235E0,-6.032133102E-1,-1.050243974E-1,2.105729039E0
8.885058396E0,2.589013577E0,-1.096009254E0,-2.637168765E-1,2.823787204E0
8.901867459E0,3.066585541E0,-1.125849724E0,-4.218987525E-1,3.293855345E0
8.918675169E0,3.436188698E0,-4.903755188E-1,-1.037498116E0,3.622742505E0
8.935484109E0,4.040208340E0,-3.415966034E-1,-9.388679266E-1,4.161903969E0
8.952289976E0,4.372367859E0,-9.765243530E-1,-3.230697215E-1,4.491722893E0
8.969098011E0,4.258577824E0,-1.668383598E0,9.024649858E-2,4.574618382E0
8.985899759E0,3.564415932E0,-1.615880966E0,1.476495862E-1,3.916367275E0
9.002716675E0,3.102477551E0,-2.132115364E0,-5.606269836E-2,3.764893877E0
9.019522034E0,2.518463135E0,-1.980184555E0,-7.444468737E-1,3.289071082E0
9.036331635E0,1.675101757E0,-1.289973259E0,-1.658130288E0,2.686892807E0
9.053145060E0,1.136234760E0,-6.394715309E-1,-1.639991522E0,2.095119438E0
9.069931306E0,9.252052307E-1,-4.217052460E-1,-1.026756525E0,1.445015223E0
9.086757305E0,9.357342720E-1,-8.406448364E-1,-2.387227565E-1,1.280340159E0
9.103550396E0,7.147974968E-1,-1.074615002E0,6.410968304E-1,1.441089175E0
9.120373162E0,1.635718346E-1,-7.010779381E-1,1.464160919E0,1.631573847E0
9.137171878E0,-4.589791298E-1,-1.117129326E-1,1.980466843E0,2.036023216E0
9.153987775E0,-8.934216499E-1,4.026327133E-1,2.278066158E0,2.479899346E0
9.170785720E0,-1.187854767E0,1.059962273E0,2.542115211E0,2.999478074E0
9.187611058E0,-1.359085560E0,1.535377502E0,2.802585840E0,3.472604934E0
9.204415816E0,-1.490921497E0,1.579164028E0,2.569561958E0,3.364409992E0
9.221223395E0,-1.706770897E0,1.881485939E0,1.849253297E0,3.142100251E0
9.238027604E0,-1.765802383E0,1.757077217E0,9.117013216E-1,2.652654841E0
9.254839361E0,-1.770117283E0,1.268690109E0,6.040653586E-2,2.178655259E0
9.271649401E0,-1.861217022E0,6.273131371E-1,-2.796325386E-1,1.983896401E0
9.288453386E0,-1.884837151E0,-3.527975082E-1,-1.255875826E-1,1.921678799E0
9.305263964E0,-1.974121571E0,-7.660651207E-1,3.487938643E-2,2.117835762E0
9.322070412E0,-2.221007347E0,-1.345310211E-1,8.921658993E-2,2.226865921E0
9.338879738E0,-2.592566013E0,1.430692673E-1,4.098792672E-1,2.628662847E0
9.355686491E0,-2.418396473E0,-9.370336533E-1,9.899585247E-1,2.776092839E0
9.372498381E0,-2.172315598E0,-2.063628197E0,1.502959967E0,3.352074738E0
9.389304402E0,-1.902534962E0,-3.033591270E0,1.688217640E0,3.958837465E0
9.406111572E0,-1.629301548E0,-3.822048187E0,1.797461987E0,4.526979730E0
9.422922932E0,-1.528421879E0,-4.181454659E0,1.934721947E0,4.854254372E0
9.439728618E0,-1.464960098E0,-4.271236897E0,2.131036997E0,4.993084357E0
9.456537649E0,-1.215876579E0,-4.922551632E0,2.320053577E0,5.576066627E0
9.473344158E0,-1.114477158E0,-5.205734253E0,2.343243122E0,5.816572597E0
9.490154543E0,-8.665356636E-1,-5.698028088E0,1.972956657E0,6.091877060E0
9.506964845E0,-6.466255188E-1,-6.415185928E0,1.746596456E0,6.680069927E0
9.523761843E0,-9.582886696E-1,-6.133319855E0,1.694215536E0,6.434772404E0
9.540576510E0,-1.497138023E0,-4.512068272E0,1.810251236E0,5.086962933E0
9.557386701E0,-1.281517506E0,-2.581434727E0,1.568344116E0,3.281127189E0
9.574195997E0,-7.153859138E-1,-1.299979210E0,1.334183812E0,1.995437144E0
9.591005172E0,-2.928447723E-1,-4.268341064E-1,7.955027819E-1,9.490890849E-1
9.607807255E0,1.926994324E-2,-2.087140083E-1,-2.908945084E-2,2.116106428E-1
9.624625768E0,5.220937729E-2,-1.636033058E-1,-6.257031560E-1,6.488422768E-1
9.641424770E0,-1.795434952E-2,-3.630542755E-2,-3.962965012E-1,3.983608409E-1
9.658238745E0,-2.380204201E-1,3.100323677E-1,2.328242511E-1,4.549515593E-1
9.675037187E0,-8.827352524E-2,1.186000347E0,7.252674103E-1,1.392983078E0
9.691858955E0,2.070527077E-1,2.310475349E0,1.257801414E0,2.638793580E0
9.708664619E0,3.701868057E-1,3.499605656E0,8.498211503E-1,3.620286453E0
9.725467394E0,5.423903465E-1,4.499255180E0,5.662438273E-2,4.532183887E0
9.742273222E0,3.554477692E-1,4.980854034E0,-9.449625611E-1,5.082145637E0
9.759086638E0,3.205418587E-1,4.872570038E0,-1.717244625E0,5.176254916E0
9.775893380E0,5.804324150E-1,4.248889923E0,-1.858420491E0,4.673723793E0
9.792699625E0,6.602540016E-1,3.685485840E0,-1.748953700E0,4.132502906E0
9.809512349E0,7.829236984E-1,2.950115681E0,-1.401856661E0,3.358772714E0
9.826315074E0,8.267998695E-1,2.324396610E0,-1.068695903E0,2.688592301E0
9.843125356E0,1.119317532E0,1.897441387E0,-6.844369769E-1,2.306861402E0
9.859928783E0,1.167523861E0,1.773492813E0,-2.602767944E-1,2.139189738E0
9.876739717E0,1.283199310E0,1.786969185E0,-2.384324670E-1,2.212850962E0
9.893551332E0,1.885720730E0,1.069973946E0,-1.163171530E-1,2.171247705E0
9.910358065E0,2.398415089E0,3.382482529E-1,-2.623243034E-1,2.436312964E0
9.927167493E0,2.986250401E0,-5.851335526E-1,-5.626893044E-1,3.094623076E0
9.943977796E0,3.437731266E0,-1.088073730E0,-6.360701919E-1,3.661486855E0
9.960785159E0,3.591474533E0,-1.045297623E0,-8.635448217E-1,3.838886049E0
9.977590031E0,3.900155067E0,-8.608016968E-1,-6.662110090E-1,4.049200689E0
9.994398156E0,4.146707535E0,-8.030366898E-1,-3.977096081E-1,4.242431406E0
1.001120309E1,4.315901756E0,-1.201655388E0,-2.008883953E-1,4.484566845E0
1.002801821E1,4.383903980E0,-2.217556953E0,-2.969893217E-1,4.921826450E0
1.004482713E1,4.195582867E0,-2.794942856E0,-6.975023746E-1,5.089315349E0
1.006163312E1,3.298724651E0,-1.535861969E0,-1.174806118E0,3.823692682E0
1.007844154E1,2.129130363E0,5.968756676E-1,-1.567264795E0,2.710309135E0
1.009524787E1,1.445264816E0,1.718299389E0,-1.612195969E0,2.764148878E0
1.011204692E1,1.429707527E0,1.263404846E0,-1.376218438E0,2.352494975E0
1.012886466E1,1.722662449E0,-2.639732361E-1,-7.521217465E-1,1.898139854E0
1.014567302E1,1.484175205E0,-9.969997406E-1,-9.536078572E-2,1.790496636E0
1.016247643E1,1.242194176E0,-1.279108524E0,7.686645985E-1,1.941651424E0
1.017929120E1,1.059349060E0,-1.000173092E0,1.548630118E0,2.126222446E0
1.019609828E1,7.238698006E-1,-3.609118462E-1,2.279757023E0,2.418995025E0
1.021290825E1,4.616479874E-1,4.932994843E-1,2.819710732E0,2.899522694E0
1.022970919E1,2.101850510E-1,1.381048679E0,3.156382799E0,3.451698942E0
1.024652540E1,-1.575989723E-1,2.008110523E0,2.808544636E0,3.456192744E0
1.026332472E1,-4.810538292E-1,2.297115803E0,2.331159115E0,3.307938424E0
1.028014837E1,-8.014369011E-1,2.122995853E0,1.918338060E0,2.971436254E0
1.029693583E1,-1.105851650E0,1.906668186E0,1.364853859E0,2.592511813E0
1.031375426E1,-1.211123466E0,1.507672310E0,9.709948301E-1,2.163960907E0
1.033056329E1,-1.354950428E0,1.090535641E0,8.675106764E-1,1.943639221E0
1.034737146E1,-1.410470009E0,6.043767929E-1,1.082914352E0,1.878137495E0
1.036417954E1,-1.388884068E0,5.677938461E-2,1.505063891E0,2.048765523E0
1.038098643E1,-1.466473579E0,-3.103728294E-1,2.037260294E0,2.529289536E0
1.039779608E1,-1.547488213E0,-8.112978935E-1,2.578827858E0,3.115008373E0
1.041460769E1,-1.587757587E0,-1.395196438E0,2.865478277E0,3.560689963E0
1.043141064E1,-1.507329941E0,-2.135740280E0,2.659026384E0,3.728786855E0
1.044821915E1,-1.321877480E0,-2.726222992E0,2.179041386E0,3.732006596E0
1.046503255E1,-9.757766724E-1,-3.163831234E0,2.236660242E0,3.995574706E0
1.048183927E1,-4.126329422E-1,-3.915920258E0,3.260939837E0,5.112575283E0
1.049864938E1,2.862119675E-2,-4.580785275E0,4.864811897E0,6.682125987E0
1.051545948E1,1.098780632E-1,-4.185818195E0,6.134553909E0,7.427374962E0
1.053224301E1,3.276305199E-1,-4.172650337E0,6.832639694E0,8.012697285E0
1.054906965E1,8.374838829E-1,-5.365479946E0,6.787020683E0,8.692146114E0
1.056587650E1,1.257065296E0,-6.563336372E0,6.319411278E0,9.197421182E0
1.058268060E1,8.610391617E-1,-6.675858498E0,5.562418461E0,8.732065864E0
1.059948581E1,-6.863164902E-2,-4.978936672E0,4.669209480E0,6.826129054E0
1.061629993E1,-5.159673691E-1,-2.648675442E0,3.765856743E0,4.632858829E0
1.063311231E1,-8.448786736E-1,-9.307637215E-1,2.494148016E0,2.793011888E0
1.064992632E1,-9.127898216E-1,-2.980937958E-1,1.112658024E0,1.469711893E0
1.066671196E1,-7.678289413E-1,-3.903436661E-1,-1.115344763E-1,8.685444146E-1
1.068353327E1,-8.354315758E-1,-4.492163658E-1,-1.119416595E0,1.467254161E0
1.070034508E1,-1.250901222E0,-2.650685310E-1,-1.683112741E0,2.113736902E0
1.071714849E1,-1.522387981E0,1.795434952E-1,-1.740740061E0,2.319499298E0
1.073396999E1,-1.548802376E0,6.882023811E-1,-1.403839350E0,2.200721754E0
1.075076707E1,-1.347996712E0,9.987959862E-1,-1.105237722E0,2.009039318E0
1.076757011E1,-1.055091858E0,1.319411755E0,-9.767538309E-1,1.951439021E0
1.078438855E1,-2.161488533E-1,1.694603920E0,-5.240195990E-1,1.786896559E0
1.080119340E1,1.114234924E-1,2.053679466E0,-4.406168163E-1,2.103368185E0
1.081799944E1,7.848501205E-1,2.273227215E0,-6.606625319E-1,2.493998128E0
1.083480942E1,1.062354088E0,2.613725662E0,-1.335617781E0,3.121543352E0
1.085161843E1,1.140670776E0,2.885658741E0,-2.008579016E0,3.696288118E0
1.086842578E1,1.223879814E0,3.105636120E0,-2.308793545E0,4.058741817E0
1.088523221E1,1.372069359E0,3.531088829E0,-2.517707825E0,4.548627852E0
1.090204066E1,1.611243248E0,3.990782738E0,-2.731516123E0,5.097414246E0
1.091884981E1,1.976482391E0,4.230495930E0,-2.887736082E0,5.490227512E0
1.093566575E1,1.864983082E0,3.681596279E0,-2.583741188E0,4.869089400E0
1.095245372E1,1.988213539E0,2.302444935E0,-1.997748494E0,3.639401709E0
1.096927454E1,2.387675285E0,6.355047226E-1,-1.187497854E0,2.741351979E0
1.098608198E1,2.696237087E0,-4.958629608E-1,-4.015494585E-1,2.770706855E0
1.100288944E1,3.247844696E0,-1.330881119E0,9.319611639E-2,3.511185731E0
1.101970216E1,3.568428040E0,-1.303849220E0,5.879942179E-1,3.844403551E0
1.103650380E1,3.709353447E0,-6.423311234E-1,6.639993787E-1,3.822667582E0
1.105330312E1,3.881034374E0,-4.336194992E-1,7.818481922E-1,3.982680037E0
1.107012243E1,4.238789558E0,-9.775276184E-1,8.272848725E-1,4.428012808E0
1.108692106E1,4.808539391E0,-2.403434753E0,6.440982819E-1,5.414186207E0
1.110373404E1,4.861345291E0,-3.359769344E0,4.273867011E-1,5.924811177E0
1.112055604E1,3.853040695E0,-1.719090462E0,1.376271248E-4,4.219146197E0
1.113735083E1,2.570888519E0,9.719953537E-1,-3.378550708E-1,2.769185583E0
1.115416479E1,1.814201832E0,2.666898727E0,-4.979109466E-1,3.263677744E0
1.117097164E1,1.740776539E0,2.765819550E0,-5.669372678E-1,3.316847691E0
1.118778389E1,1.984055519E0,1.625925541E0,-5.716360807E-1,2.628093982E0
1.120458510E1,2.030471802E0,1.869096756E-1,-4.990076125E-1,2.099228325E0
1.122140247E1,2.277950287E0,-1.278681755E0,1.323930323E-1,2.615647617E0
1.123821326E1,2.195857525E0,-1.760749817E0,1.224355102E0,3.069377071E0
1.125501446E1,1.563698769E0,-8.982591629E-1,2.095963001E0,2.764974551E0
1.127182376E1,9.912376404E-1,1.950340271E-1,2.687548637E0,2.871150990E0
1.128863086E1,4.562125206E-1,1.258327961E0,3.106641769E0,3.382712256E0
1.130543931E1,8.378028870E-3,2.003988743E0,3.184297085E0,3.762417972E0
1.132224461E1,-3.444352150E-1,2.319655418E0,2.985289574E0,3.796233754E0
1.133905358E1,-5.912170410E-1,2.216878891E0,2.530729055E0,3.415944841E0
1.135586401E1,-8.502626419E-1,1.674774170E0,2.014133692E0,2.754006102E0
1.137267591E1,-1.002606869E0,1.035497665E0,1.766143203E0,2.279635445E0
1.138947790E1,-1.051131725E0,5.100593567E-1,1.767841339E0,2.119033141E0
1.140628662E1,-1.035330296E0,-3.909254074E-2,2.140405655E0,2.377976748E0
1.142309486E1,-1.112143040E0,-3.884277344E-1,2.582607985E0,2.838591596E0
1.143990682E1,-1.288691998E0,-4.729790688E-1,3.054477692E0,3.348771451E0
1.145671152E1,-1.497406006E0,-4.202413559E-1,3.445855141E0,3.780574717E0
1.147352849E1,-1.614755630E0,-6.859631538E-1,3.842380524E0,4.223963693E0
1.149032870E1,-1.693401814E0,-1.169298172E0,4.273675442E0,4.743328968E0
1.150713466E1,-1.574688911E0,-1.802315235E0,4.499948502E0,5.096814877E0
1.152393225E1,-1.245107174E0,-2.828997612E0,4.632038116E0,5.568599148E0
1.154074283E1,-9.226493835E-1,-3.879657745E0,4.763308525E0,6.212256773E0
1.155755966E1,-5.109033585E-1,-4.531826496E0,4.769200325E0,6.598768474E0
1.157435690E1,-1.990070343E-1,-4.454814911E0,4.783661366E0,6.539755022E0
1.159117921E1,-1.906428337E-1,-3.939636230E0,4.620998383E0,6.075418041E0
1.160799251E1,1.688265800E-1,-4.091303825E0,4.372334003E0,5.990373448E0
1.162479379E1,6.910147667E-1,-5.122515678E0,4.007533073E0,6.540488485E0
1.164160834E1,6.648159027E-1,-5.990394115E0,3.791441441E0,7.120521753E0
1.165841133E1,9.675502777E-2,-5.658374310E0,3.533266068E0,6.671621277E0
1.167521726E1,-6.252784729E-1,-4.009777069E0,3.399320841E0,5.293832968E0
1.169202379E1,-8.993706703E-1,-1.991051197E0,3.345107079E0,3.995359038E0
1.170883678E1,-8.723006248E-1,-7.716684341E-1,2.701361418E0,2.941722975E0
1.172564239E1,-8.801674843E-1,-3.754010201E-1,1.814476609E0,2.051327885E0
1.174245054E1,-1.054991245E0,-5.334653854E-1,9.170789123E-1,1.496203722E0
1.175925961E1,-1.010793209E0,-7.532763481E-1,3.646697998E-1,1.312292738E0
1.177606631E1,-9.694037437E-1,-7.992949486E-1,2.525001764E-1,1.281550769E0
1.179287528E1,-1.040013790E0,-6.499366760E-1,5.951632261E-1,1.363182171E0
1.180968400E1,-1.074963093E0,-1.476063728E-1,7.409079075E-1,1.313878921E0
1.182649336E1,-9.614629745E-1,7.941989899E-1,4.651049078E-1,1.330971698E0
1.184329888E1,-5.715560913E-1,1.677548409E0,2.398065031E-1,1.788393745E0
1.186010926E1,7.581186295E-2,1.989270687E0,1.104966402E-1,1.993779028E0
1.187692426E1,8.096027374E-1,1.879555225E0,1.169285923E-1,2.049843100E0
1.189372447E1,8.021554947E-1,2.395333290E0,-3.819017708E-1,2.554784525E0
1.191053539E1,1.316380501E0,2.516302586E0,-1.098088264E0,3.044738767E0
1.192733810E1,1.503527164E0,2.575708866E0,-2.240798473E0,3.730421946E0
1.194415187E1,1.619038582E0,2.869372368E0,-3.015097618E0,4.466027022E0
1.196096508E1,1.867672920E0,2.967727184E0,-3.194465160E0,4.743439094E0
1.197776472E1,2.010815144E0,3.200458527E0,-3.106073618E0,4.892239328E0
1.199456330E1,2.073878765E0,3.243795395E0,-3.024364948E0,4.895913095E0
1.201138300E1,1.887947559E0,3.144721508E0,-3.153403759E0,4.837103949E0
1.202819255E1,1.929209709E0,2.729575157E0,-2.890745163E0,4.419144514E0
1.204499748E1,2.337119579E0,1.944653034E0,-2.351511955E0,3.843619626E0
1.206178566E1,2.287829876E0,1.363663673E0,-1.826263189E0,3.229393347E0
1.207861538E1,2.304845333E0,7.280840874E-1,-1.388846278E0,2.787707379E0
1.209541151E1,2.548577785E0,2.672100067E-2,-6.109709144E-1,2.620925065E0
1.211222737E1,2.822289467E0,-7.068586349E-1,2.882212400E-1,2.923702866E0
1.212904329E1,3.162931919E0,-1.298438072E0,1.342608094E0,3.673237842E0
1.214584882E1,3.268113613E0,-1.601749420E0,2.226512671E0,4.266559090E0
1.216264481E1,3.462284565E0,-1.877600670E0,2.955955505E0,4.924476788E0
1.217946296E1,3.560134888E0,-2.211088181E0,3.278171778E0,5.320703108E0
1.219627488E1,3.428661346E0,-2.328865051E0,3.153673172E0,5.208165275E0
1.221307653E1,3.058929920E0,-1.801483154E0,2.474718332E0,4.327427023E0
1.222988974E1,2.568667412E0,-9.056673050E-1,1.430275202E0,3.076357049E0
1.224669953E1,2.211431980E0,-3.633785248E-2,4.494659007E-1,2.256938510E0
1.226350408E1,2.177093983E0,3.816680908E-1,-3.351260126E-1,2.235557690E0
1.228031362E1,2.381911755E0,2.622756958E-1,-6.176878214E-1,2.474637426E0
1.229712126E1,2.582451344E0,4.529285431E-2,-4.981057048E-1,2.630440206E0
1.231393184E1,2.583212852E0,-4.829597473E-2,1.683756560E-1,2.589144937E0
1.233073507E1,2.223898888E0,5.667920113E-1,1.154936194E0,2.569213315E0
1.234754900E1,1.745195866E0,1.325078964E0,1.911547542E0,2.907844025E0
1.236435390E1,1.278629303E0,1.918971062E0,2.386405468E0,3.318474633E0
1.238116173E1,8.054299355E-1,2.348972797E0,2.626510382E0,3.614546634E0
1.239797264E1,3.416843414E-1,2.465028286E0,2.819009066E0,3.760309130E0
1.241477807E1,-1.669635773E-1,2.060656548E0,2.695068359E0,3.396700709E0
1.243158700E1,-6.508803368E-1,1.557905197E0,2.398198605E0,2.932928632E0
1.244839597E1,-1.076913357E0,1.083638668E0,2.094267845E0,2.592291062E0
1.246520458E1,-1.361220360E0,5.898017883E-1,1.838715315E0,2.362553920E0
1.248201065E1,-1.486573696E0,9.188318253E-2,1.734778047E0,2.286438004E0
1.249882085E1,-1.583382130E0,-5.505752563E-1,1.862674356E0,2.505950486E0
1.251563591E1,-1.770428658E0,-8.328075409E-1,2.055833578E0,2.838034132E0
1.253243602E1,-1.997900009E0,-7.374048233E-1,2.222167492E0,3.077888673E0
1.254922740E1,-2.063624859E0,-5.421090126E-1,2.489748716E0,3.278914212E0
1.256605406E1,-1.994112492E0,-3.537201881E-1,2.822495937E0,3.473915070E0
1.258286004E1,-1.794280052E0,-5.962266922E-1,3.166859150E0,3.688349773E0
1.259966538E1,-1.518082142E0,-1.402560234E0,3.497236729E0,4.062316253E0
1.261648077E1,-1.319131851E0,-2.313264847E0,3.635665894E0,4.506591792E0
1.263328203E1,-1.055085659E0,-3.126650333E0,3.606009007E0,4.887990283E0
1.265009699E1,-7.968087196E-1,-3.725881577E0,3.454276800E0,5.142871364E0
1.266689988E1,-3.319535255E-1,-4.322592735E0,3.329392910E0,5.466247181E0
1.268371330E1,-1.185727119E-1,-4.553312778E0,3.531282902E0,5.763390988E0
1.270051545E1,-1.388993263E-1,-4.264839649E0,3.594373226E0,5.579217610E0
1.271732996E1,1.359648705E-1,-4.780289173E0,3.537274122E0,5.948273635E0
1.273413545E1,3.282623291E-1,-5.538358212E0,3.408354044E0,6.511378128E0
1.275093426E1,-9.916782379E-3,-5.616211891E0,3.387371540E0,6.558675194E0
1.276775320E1,-7.702612877E-1,-4.621527672E0,3.329977512E0,5.748092789E0
1.278455682E1,-1.422633171E0,-2.779853821E0,3.236347675E0,4.497267913E0
1.280136628E1,-1.605945110E0,-1.210176945E0,2.778502464E0,3.429819803E0
1.281817510E1,-1.474536419E0,-6.923398972E-1,2.120846748E0,2.674244401E0
1.283498671E1,-1.595687866E0,-8.059916496E-1,1.261417150E0,2.187924938E0
1.285179045E1,-1.525651455E0,-1.268900394E0,6.296142340E-1,2.081858462E0
1.286860057E1,-1.470901966E0,-1.658314228E0,1.126596928E-1,2.219515911E0
1.288541011E1,-1.595415592E0,-1.230818748E0,-6.932246685E-2,2.016202199E0
1.290221585E1,-1.690603256E0,-3.625917435E-1,-6.131535769E-2,1.730136329E0
1.291902506E1,-1.572531223E0,6.359372139E-1,9.186428785E-2,1.698737659E0
1.293582049E1,-1.335393429E0,1.553432941E0,8.462071419E-3,2.048536336E0
1.295264385E1,-9.189162254E-1,2.115150452E0,-4.560546577E-1,2.350798654E0
1.296945036E1,-1.671266556E-1,2.315320492E0,-7.461709380E-1,2.438321424E0
1.298625452E1,4.058914185E-1,2.231671333E0,-9.629223347E-1,2.464208637E0
1.300306060E1,9.618492126E-1,2.291741848E0,-8.618222475E-1,2.630584002E0
1.301987448E1,1.394568443E0,2.628419399E0,-1.106662869E0,3.174604288E0
1.303667294E1,1.751196861E0,2.986262321E0,-1.517909288E0,3.780013453E0
1.305348597E1,2.186120033E0,3.053459644E0,-1.535539389E0,4.057168694E0
1.307030254E1,2.375502586E0,3.178678989E0,-1.619916201E0,4.286156921E0
1.308710451E1,2.599522591E0,3.040514469E0,-1.638329744E0,4.322773449E0
1.310392488E1,2.758793354E0,2.772983551E0,-1.788127899E0,4.300904548E0
1.312072050E1,2.744948864E0,2.642372131E0,-2.101603031E0,4.351276830E0
1.313753329E1,2.900728703E0,2.274100304E0,-2.260633945E0,4.323913162E0
1.315433513E1,3.103218079E0,1.856294155E0,-2.132470131E0,4.198001821E0
1.317114755E1,3.383565903E0,1.449172497E0,-1.772826672E0,4.085527328E0
1.318795800E1,3.680099487E0,7.362623215E-1,-1.265249014E0,3.960564292E0
1.320476489E1,4.019928455E0,9.657192230E-2,-6.957285404E-1,4.080831916E0
1.322157341E1,4.061248779E0,-1.490564346E-1,-3.464881778E-1,4.078726949E0
1.323838083E1,4.108418465E0,-4.324131012E-1,-1.706427336E-2,4.131146882E0
1.325518748E1,4.241468906E0,-1.034502029E0,3.465109468E-1,4.379534538E0
1.327199674E1,4.247960091E0,-1.867232323E0,6.381527781E-1,4.683904402E0
1.328880484E1,4.266860485E0,-2.807399750E0,8.227348924E-1,5.173440292E0
1.330561494E1,3.730581760E0,-2.616232872E0,7.895867825E-1,4.624430992E0
1.332242138E1,2.667936802E0,-7.312908173E-1,3.750600219E-1,2.791655971E0
1.333922595E1,1.921007633E0,1.134630203E0,-2.820223570E-3,2.231067901E0
1.335604313E1,1.553359985E0,1.923036098E0,-3.540077209E-1,2.497261810E0
1.337284510E1,1.582097054E0,1.393069744E0,-3.596140444E-1,2.138456607E0
1.338965302E1,1.714962959E0,4.098510742E-2,-3.153825104E-1,1.744202929E0
1.340646347E1,1.655339718E0,-1.285152912E0,-1.312873662E-1,2.099762835E0
1.342325819E1,1.168097019E0,-1.858869076E0,2.613982558E-1,2.210921513E0
1.344007787E1,3.695635796E-1,-1.280214310E0,7.194832563E-1,1.514325617E0
1.345688203E1,3.480434418E-3,-4.200100899E-1,1.419963479E0,1.480782520E0
1.347369455E1,-3.223681450E-1,4.761052132E-1,1.841390610E0,1.929071479E0
1.349051576E1,-5.811166763E-1,1.092881680E0,2.069658518E0,2.411549987E0
1.350731025E1,-9.156765938E-1,1.438450336E0,2.082475662E0,2.691525196E0
1.352410347E1,-1.268590450E0,1.418995857E0,1.925211430E0,2.707269847E0
1.354093394E1,-1.536227226E0,7.707600594E-1,1.481249571E0,2.268956908E0
1.355773127E1,-1.656752586E0,-2.340712547E-1,1.420260906E0,2.194711718E0
1.357454091E1,-2.051720142E0,-4.071159363E-1,1.308960438E0,2.467524337E0
1.359135850E1,-2.252464771E0,-5.739932060E-1,1.316650987E0,2.671448215E0
1.360815456E1,-2.495967865E0,-6.394519806E-1,1.568268061E0,3.016325435E0
1.362497733E1,-2.831557751E0,-4.712362289E-1,1.846272469E0,3.412990610E0
1.364177190E1,-3.008291245E0,-6.707844734E-1,2.110445023E0,3.735471351E0
1.365859083E1,-3.222693443E0,-9.642710686E-1,2.130468369E0,3.981766843E0
1.367537403E1,-3.310396194E0,-1.261824608E0,2.082427025E0,4.109431423E0
1.369219993E1,-3.241687298E0,-1.886104584E0,2.096793890E0,4.296797837E0
1.370900929E1,-3.035512447E0,-2.728981972E0,2.074921131E0,4.578971077E0
1.372581898E1,-2.717440605E0,-3.747134686E0,1.840195417E0,4.981146552E0
1.374261410E1,-2.362437248E0,-4.787387371E0,1.632570505E0,5.582604593E0
1.375943322E1,-2.110277176E0,-5.104881763E0,1.452436090E0,5.711624828E0
1.377624245E1,-1.415015697E0,-5.366463661E0,1.426772475E0,5.730347402E0
1.379304974E1,-5.006961823E-1,-5.940723896E0,1.193002343E0,6.079979578E0
1.380985929E1,3.176264763E-1,-6.407224655E0,5.331673026E-1,6.437210711E0
1.382666644E1,8.386969566E-1,-6.438066483E0,1.345066428E-1,6.493858996E0
1.384346042E1,8.473014832E-1,-5.379005432E0,5.331085324E-1,5.471363994E0
1.386028681E1,1.625261307E-1,-3.653005123E0,1.355277896E0,3.899697341E0
1.387709325E1,-4.294800758E-1,-1.736333370E0,1.943652868E0,2.641418782E0
1.389389929E1,-7.685303688E-1,-9.553241730E-2,1.997910857E0,2.142758307E0
1.391071113E1,-6.548686028E-1,3.444066048E-1,1.594391823E0,1.757712741E0
1.392750767E1,-5.583844185E-1,-5.208683014E-2,8.113919497E-1,9.863382243E-1
1.394431735E1,-4.089336395E-1,-6.369767189E-1,4.910826683E-4,7.569453766E-1
1.396113371E1,-5.137042999E-1,-8.604383469E-1,-4.302207828E-1,1.090566907E0
1.397795577E1,-8.067250252E-1,-6.775927544E-1,-2.468380630E-1,1.082065726E0
1.399477052E1,-1.359391689E0,2.979621887E-1,-1.767279953E-1,1.402839982E0
1.401155334E1,-1.290865421E0,1.270552635E0,1.433974504E-2,1.811309792E0
1.402836475E1,-1.268858433E0,2.184970379E0,5.224579573E-2,2.527217225E0
1.404517416E1,-1.088215828E0,2.696815491E0,-4.254121482E-1,2.939047971E0
1.406197789E1,-7.591605186E-1,2.968461037E0,-1.087060690E0,3.251120816E0
1.407879222E1,-4.756937027E-1,3.338674068E0,-1.958134294E0,3.899656260E0
1.409559452E1,7.284641266E-3,3.370323181E0,-2.172571659E0,4.009887657E0
1.411241080E1,3.830213547E-1,3.218945980E0,-1.926437616E0,3.770872640E0
1.412921156E1,5.125713348E-1,3.152543545E0,-1.536953688E0,3.544500926E0
1.414602489E1,7.251787186E-1,2.666261673E0,-1.086831808E0,2.969181514E0
1.416283074E1,1.131563187E0,1.905279636E0,-3.432392478E-1,2.242395799E0
1.417963615E1,1.425031662E0,1.362818241E0,1.184183359E-1,1.975351032E0
1.419644874E1,1.632492542E0,1.363172054E0,1.376801729E-2,2.126842615E0
1.421325403E1,1.883982658E0,1.374262333E0,-2.099565864E-1,2.341381939E0
1.423006461E1,2.292527676E0,8.429913521E-1,-5.329427123E-1,2.500069099E0
1.424687353E1,2.826644897E0,-4.244136810E-2,-9.157225490E-1,2.971577095E0
1.426368123E1,3.397285461E0,-5.573110580E-1,-1.277338505E0,3.672020939E0
1.428048559E1,3.882638454E0,-6.460351944E-1,-1.202195048E0,4.115521325E0
1.429729732E1,4.183214664E0,-2.770557404E-1,-1.269418120E0,4.380350120E0
1.431410434E1,4.408863544E0,-1.084709167E-1,-1.143223166E0,4.555963444E0
1.433091977E1,4.672858238E0,-2.241106033E-1,-1.072889090E0,4.799679226E0
1.434772096E1,4.945494175E0,-8.038654327E-1,-8.791541457E-1,5.086946459E0
1.436452860E1,5.080131531E0,-1.493999481E0,-8.161665201E-1,5.357788593E0
1.438133833E1,4.758549213E0,-8.960771561E-1,-7.511472702E-1,4.900098683E0
1.439814448E1,3.997397900E0,7.454552650E-1,-8.141818643E-1,4.147021296E0
1.441495930E1,3.458836555E0,2.036477566E0,-8.848673105E-1,4.110204539E0
1.443176144E1,3.352705479E0,2.303924084E0,-7.751097679E-1,4.141194920E0
1.444857701E1,3.279960155E0,1.733107567E0,-7.131472826E-1,3.777615585E0
1.446537750E1,3.255257130E0,4.477548599E-1,-6.423101425E-1,3.348095834E0
1.448218617E1,2.904937267E0,-6.416893005E-1,-1.745300591E-1,2.980081614E0
1.449898287E1,2.258876801E0,-7.448968887E-1,3.062934875E-1,2.398168358E0
1.451580094E1,1.400061607E0,-1.575164795E-1,8.899857402E-1,1.666450888E0
1.453261307E1,5.924859047E-1,7.145361900E-1,1.136383176E0,1.467299641E0
1.454941727E1,-1.075682640E-1,1.491964340E0,1.325167537E0,1.998398740E0
1.456623156E1,-5.330867767E-1,1.721656322E0,1.351837754E0,2.252941925E0
1.458303366E1,-7.817397118E-1,1.525628090E0,1.284091115E0,2.141856213E0
1.459984453E1,-1.066453934E0,9.636015892E-1,1.068699121E0,1.791080631E0
1.461665538E1,-1.368161678E0,1.834330559E-1,8.253474236E-1,1.608325972E0
1.463345992E1,-1.701210499E0,-1.897730827E-1,6.590600014E-1,1.834254909E0
1.465026914E1,-1.818662167E0,-5.601940155E-1,5.127742887E-1,1.970859427E0
1.466707616E1,-1.931851387E0,-8.197827339E-1,4.295477271E-1,2.142102883E0
1.468387260E1,-2.040896416E0,-9.562778473E-1,4.374936819E-1,2.295893339E0
1.470069411E1,-2.027658939E0,-1.204011440E0,6.507176161E-1,2.446319223E0
1.471750112E1,-2.212230682E0,-1.017859459E0,9.262673855E-1,2.605374011E0
1.473430846E1,-2.497668743E0,-1.013000965E0,1.181448579E0,2.942845706E0
1.475111955E1,-2.514813423E0,-1.489605904E0,1.022623897E0,3.096606519E0
1.476792971E1,-2.368439198E0,-2.494834900E0,8.602473140E-1,3.545945692E0
1.478475632E1,-2.286440372E0,-3.313315392E0,7.977749109E-1,4.103938751E0
1.480154533E1,-2.179391861E0,-4.073552608E0,1.024323583E0,4.732105085E0
1.481835133E1,-2.077425003E0,-4.722936630E0,1.305820823E0,5.322310878E0
1.483515818E1,-2.047593117E0,-5.102896214E0,1.698626518E0,5.754782306E0
1.485195479E1,-2.024178028E0,-4.821062565E0,2.012369633E0,5.602639778E0
1.486877626E1,-1.778430939E0,-4.914143085E0,2.007123947E0,5.598228774E0
1.488558484E1,-1.398639679E0,-5.937224388E0,1.662643433E0,6.322278827E0
1.490239127E1,-1.185136318E0,-6.630275249E0,1.379670143E0,6.875215464E0
1.491919362E1,-1.459708214E0,-6.206919193E0,1.212791204E0,6.490566728E0
1.493600084E1,-1.912181377E0,-4.693949223E0,1.111160636E0,5.188860654E0
1.495281310E1,-1.897341728E0,-2.972935677E0,1.149611473E0,3.709428353E0
1.496962418E1,-1.755064487E0,-1.989423752E0,9.323550463E-1,2.812000027E0
1.498643222E1,-1.586965084E0,-1.642288208E0,4.743517935E-1,2.332504740E0
1.500323683E1,-1.455893517E0,-1.686082363E0,-1.655183434E-1,2.233807509E0
1.502005268E1,-1.458847046E0,-1.353276730E0,-4.651302397E-1,2.043511378E0
1.503685824E1,-1.535390377E0,-6.264843941E-1,-4.021641314E-1,1.706353508E0
1.505366450E1,-1.571357250E0,2.683429718E-1,-5.993944407E-2,1.595231737E0
1.507047131E1,-1.594490051E0,1.116701126E0,2.219155580E-1,1.959251501E0
1.508728564E1,-1.516824245E0,1.869247913E0,2.070509940E-1,2.416136103E0
1.510408887E1,-1.225470543E0,2.249530315E0,1.092396080E-1,2.564000387E0
1.512090040E1,-4.838924408E-1,2.329582214E0,3.191744685E-1,2.400620238E0
1.513770619E1,-3.127913475E-1,2.533836365E0,1.039523929E-1,2.555185169E0
1.515451298E1,-2.910599709E-1,2.575532913E0,-6.832993031E-1,2.680481977E0
1.517132160E1,9.148693085E-2,1.964228630E0,-5.545198917E-1,2.043050729E0
1.518813412E1,3.168306351E-1,1.729849815E0,-4.997867942E-1,1.828263896E0
1.520493183E1,1.403613091E-1,1.775064468E0,-7.659022808E-1,1.938339874E0
1.522174281E1,2.672715187E-1,1.449090481E0,-5.204280019E-1,1.562735611E0
1.523855778E1,4.684081078E-1,1.470098495E0,-1.428529173E-1,1.549516924E0
1.525536513E1,8.366789818E-1,1.453945160E0,-1.310493499E-1,1.682605770E0
1.527217085E1,1.236712933E0,1.684741497E0,-2.199145854E-1,2.101469775E0
1.528898271E1,1.902171612E0,1.624829292E0,-4.015583992E-1,2.533688264E0
1.530578724E1,2.624856472E0,1.215904236E0,-6.076147556E-1,2.955924610E0
1.532259832E1,3.215976715E0,6.933789253E-1,-8.099387884E-1,3.388108825E0
1.533939362E1,3.895470142E0,1.913356781E-2,-8.583313227E-1,3.988958057E0
1.535621333E1,4.681753635E0,-3.765659332E-1,-7.174025774E-1,4.751345648E0
1.537301747E1,5.280184746E0,-1.810102463E-1,-4.708852768E-1,5.304229313E0
1.538981329E1,5.490163803E0,6.160411835E-1,-1.903156787E-1,5.527895204E0
1.540662978E1,5.655018806E0,8.694667816E-1,3.912737966E-2,5.721603022E0
1.542344452E1,5.794408798E0,4.727449417E-1,1.035906971E-1,5.814584433E0
1.544024172E1,5.640493870E0,-3.249168396E-2,-2.087770253E-1,5.644449898E0
1.545706576E1,4.974953651E0,5.905628204E-2,-7.860425711E-1,5.037014433E0
1.554110240E1,3.596661091E0,1.762275696E0,-1.113621354E0,4.157131120E0
1.555790991E1,3.327142715E0,5.266571045E-1,-7.343627214E-1,3.447685450E0
1.557472374E1,2.728036404E0,-2.959642410E-1,-4.005486369E-1,2.773123990E0
1.559152785E1,2.061350346E0,-6.934804916E-1,2.628594637E-3,2.174876399E0
1.560833578E1,1.354198456E0,-5.462107658E-1,5.193080902E-1,1.549800165E0
1.562514121E1,6.906132698E-1,4.196166992E-5,1.040829062E0,1.249108413E0
1.564196333E1,2.302889824E-1,5.803666115E-1,1.454065204E0,1.582455066E0
1.565876364E1,-7.970094681E-2,8.109083176E-1,1.577048302E0,1.775107289E0
1.567556875E1,-4.033327103E-1,7.871298790E-1,1.509085059E0,1.749167927E0
1.569237366E1,-7.479038239E-1,4.353961945E-1,1.305297613E0,1.566119994E0
1.570918913E1,-9.465579987E-1,-1.018886566E-1,1.056640625E0,1.422266766E0
1.572599531E1,-1.125363350E0,-4.155573845E-1,8.606290817E-1,1.476418987E0
1.574279970E1,-1.377114773E0,-5.855808258E-1,8.190795183E-1,1.705942924E0
1.575960894E1,-1.709331512E0,-1.030389786E0,1.127331853E0,2.292246592E0
1.577641883E1,-2.115068436E0,-1.429602146E0,1.544589758E0,2.983795285E0
1.579322554E1,-2.570765972E0,-1.778464317E0,1.845588326E0,3.630147281E0
1.581003277E1,-2.973817825E0,-2.373900890E0,2.004078388E0,4.300619500E0
1.582683257E1,-3.303860188E0,-2.920291901E0,2.191274643E0,4.923949785E0
1.584365275E1,-3.565343857E0,-3.472626686E0,2.259566307E0,5.465935676E0
1.586044775E1,-3.787091732E0,-4.160328865E0,2.050440311E0,5.987879885E0
1.587726587E1,-4.001688957E0,-4.770069122E0,1.662629962E0,6.444486972E0
1.589408093E1,-4.024116993E0,-5.254066467E0,1.436275244E0,6.772120686E0
1.591088397E1,-3.838994026E0,-5.718986511E0,1.522068977E0,7.054174354E0
1.592769312E1,-3.679633617E0,-5.739995480E0,1.826680183E0,7.058612623E0
1.594449517E1,-3.374064445E0,-5.461354256E0,2.078992128E0,6.747807752E0
1.596131194E1,-2.640902996E0,-5.754982471E0,2.034152985E0,6.650712010E0
1.597811407E1,-1.796800137E0,-6.818928242E0,1.813810349E0,7.281221125E0
1.599493167E1,-1.211006641E0,-7.144200802E0,1.702387810E0,7.443404224E0
1.601173188E1,-1.072005272E0,-5.675522804E0,1.834079027E0,6.060082531E0
1.609577495E1,2.528486252E-1,-8.809881210E-1,-2.310562134E-1,9.452298506E-1
1.611258032E1,7.076644897E-2,-9.770007133E-1,-7.751270533E-1,1.249143800E0
1.612939226E1,-4.496097565E-2,-6.095852852E-1,-8.132579327E-1,1.017351549E0
1.614619746E1,-9.641027451E-2,3.961877823E-1,-5.655999184E-1,6.972538759E-1
1.616300680E1,4.182357788E-1,1.218388557E0,8.083808422E-2,1.290707806E0
1.617981369E1,5.689678192E-1,2.179713726E0,2.868719697E-1,2.270940738E0
1.619662314E1,8.920316696E-1,2.918665409E0,7.181233168E-2,3.052783202E0
1.621343049E1,1.019157410E0,3.551255703E0,-3.338159323E-1,3.709653888E0
1.623023935E1,1.293388367E0,3.603998661E0,-4.733572900E-1,3.858202553E0
1.624704762E1,1.619454384E0,3.549243450E0,-7.365525961E-1,3.970172704E0
1.626385660E1,1.827121735E0,3.437171936E0,-9.823042154E-1,4.014653948E0
1.628065108E1,2.200811386E0,3.273202419E0,-6.680264473E-1,4.000460495E0
1.629747326E1,2.644013405E0,2.994861603E0,-2.850065827E-1,4.005150641E0
1.631427847E1,2.832896709E0,3.265006065E0,-4.730105400E-2,4.322939482E0
1.633108787E1,2.825028181E0,3.521267414E0,-2.640445828E-1,4.522148601E0
1.634788959E1,2.895044327E0,3.134577751E0,-8.187719584E-1,4.344795375E0
1.636470720E1,3.414912701E0,1.958372593E0,-9.730270505E-1,4.055075043E0
1.638150131E1,3.807537317E0,1.123763084E0,-1.269162297E0,4.167847985E0
1.639832285E1,4.231699944E0,4.486112595E-1,-1.338252425E0,4.460880634E0
1.641513021E1,4.548351288E0,1.813249588E-1,-1.276287317E0,4.727503305E0
1.643192445E1,4.783082008E0,-5.350399017E-2,-1.041893482E0,4.895536559E0
1.644875220E1,5.106800079E0,-1.401615143E-1,-8.338100314E-1,5.176320263E0
1.646555590E1,5.108703136E0,1.204090118E-1,-6.808381677E-1,5.155277556E0
1.648235782E1,4.984196186E0,1.855821609E-1,-7.014904022E-1,5.036739138E0
1.649916661E1,5.089989662E0,-8.765726089E-1,-1.037286162E0,5.268048679E0
1.651598065E1,5.122826576E0,-2.094708443E0,-1.519796968E0,5.739419693E0
1.653278746E1,4.925492287E0,-2.403092384E0,-1.831907511E0,5.778512992E0
1.654959575E1,4.335562706E0,-1.190753937E0,-1.754808664E0,4.826422315E0
1.656640548E1,3.790749550E0,7.432947159E-1,-1.352632403E0,4.092906498E0
1.658320899E1,3.616087437E0,1.589529991E0,-9.350277185E-1,4.059183511E0
1.660002047E1,3.612146854E0,1.370346546E0,-7.663515806E-1,3.938622767E0
1.661682863E1,3.422761440E0,5.568914413E-1,-7.369269133E-1,3.545205950E0
1.663363811E1,3.095527172E0,-1.058969498E-1,-5.549352169E-1,3.146657867E0
1.665044353E1,2.614009857E0,-3.627595901E-1,9.318900108E-2,2.640705634E0
1.666725361E1,1.877207756E0,1.922607422E-3,8.464974165E-1,2.059240280E0
1.668405622E1,1.080614567E0,7.476458549E-1,1.432614565E0,1.943987309E0
1.670087221E1,3.831710815E-1,1.245874882E0,1.822742701E0,2.240851457E0
1.671767686E1,-1.712398529E-1,1.497941494E0,1.967235208E0,2.478541137E0
1.673448429E1,-7.055759430E-1,1.417070389E0,1.811176181E0,2.405469820E0
1.675129376E1,-1.127581596E0,8.270397186E-1,1.509756207E0,2.057862668E0
1.676808884E1,-1.514031887E0,-9.361934662E-2,1.172970772E0,1.917529027E0
1.678491214E1,-1.880228519E0,-1.126253128E0,9.347785711E-1,2.382753947E0
1.680172089E1,-2.278957844E0,-1.949401855E0,7.802690268E-1,3.098812063E0
1.681852507E1,-2.602350712E0,-2.411621094E0,9.157378078E-1,3.664249072E0
1.683533235E1,-2.686742306E0,-2.848064423E0,1.621652842E0,4.237901970E0
1.685214222E1,-2.943845272E0,-2.839648247E0,2.153775454E0,4.622615694E0
1.686893510E1,-3.247185707E0,-2.862068176E0,2.329756498E0,4.915629624E0
1.688575634E1,-3.709950447E0,-2.723714828E0,2.154459000E0,5.081736747E0
1.690256939E1,-3.853430748E0,-2.764137268E0,1.660924673E0,5.024744186E0
1.691937546E1,-4.017698288E0,-2.923927784E0,1.051916003E0,5.079151553E0
1.693618608E1,-4.080683231E0,-3.460900307E0,5.069847107E-1,5.374647901E0
1.695298870E1,-3.933413982E0,-4.468111038E0,1.069405973E-1,5.953754958E0
1.696980168E1,-3.867883682E0,-5.262924194E0,-1.477045566E-1,6.533047672E0
1.698660787E1,-3.920432091E0,-5.413234711E0,-2.482111901E-1,6.688385949E0
1.700341909E1,-3.852402687E0,-4.977707386E0,-1.997609586E-1,6.297498053E0
1.702020991E1,-3.342316628E0,-4.627359390E0,-1.263521314E-1,5.709597203E0
1.703703322E1,-2.526326180E0,-5.260282993E0,-1.380339712E-1,5.837118682E0
1.705384199E1,-1.806007385E0,-6.412520885E0,-1.441949606E-1,6.663548527E0
1.707065143E1,-1.530283928E0,-6.816123486E0,4.267224073E-1,6.998814206E0
1.708745603E1,-1.716206074E0,-5.725332737E0,1.112654448E0,6.079703789E0
1.710426502E1,-1.770614147E0,-4.373601913E0,1.546041965E0,4.965250640E0
1.712107450E1,-1.392695904E0,-3.361382008E0,2.051417589E0,4.176937276E0
1.713788230E1,-7.027521133E-1,-3.101866245E0,1.982286096E0,3.747651652E0
1.715469084E1,-2.106657028E-1,-3.013671875E0,1.523410678E0,3.383397450E0
1.717149932E1,8.097839355E-2,-2.676084042E0,7.488968968E-1,2.780077312E0
1.718830555E1,1.571531296E-1,-1.826897621E0,1.044058949E-1,1.836614444E0
1.720511731E1,1.950454712E-2,-4.117574692E-1,-3.780584037E-2,4.139491785E-1
1.722192980E1,-4.748964310E-2,8.621873856E-1,9.812030196E-2,8.690511767E-1
1.723873125E1,3.130102158E-2,1.771864414E0,2.810341716E-1,1.794286338E0
1.725554089E1,1.825385094E-1,2.373279572E0,3.057900965E-1,2.399850790E0
1.727234714E1,3.532938957E-1,2.671358109E0,1.878299117E-1,2.701157307E0
1.728915437E1,4.831929207E-1,2.896669865E0,-1.565277576E-3,2.936694426E0
1.730596271E1,6.724252701E-1,2.874972820E0,3.303557634E-2,2.952747163E0
1.732277851E1,9.024271965E-1,2.688730717E0,2.771093845E-1,2.849638104E0
1.733957774E1,1.247564316E0,2.209017277E0,8.000133634E-1,2.660111921E0
1.735639052E1,1.404205799E0,2.163410187E0,1.222672462E0,2.854306485E0
1.737319574E1,1.654744148E0,2.322036743E0,1.274757147E0,3.123305719E0
1.739000894E1,1.790558815E0,2.764818668E0,9.536507130E-1,3.429252516E0
1.740681084E1,1.983252048E0,3.110084534E0,3.455193639E-1,3.704766946E0
1.742362308E1,2.204578400E0,3.037500381E0,-3.535846472E-1,3.769827130E0
1.744042510E1,2.683553696E0,2.165028095E0,-7.603144050E-1,3.530847644E0
1.745724519E1,3.355539083E0,1.069993973E0,-8.172001243E-1,3.615569898E0
1.747404366E1,3.780229330E0,6.141843796E-1,-9.625607729E-1,3.948908644E0
1.749085502E1,4.510773182E0,-1.914873123E-1,-1.126797676E0,4.653323016E0
1.750766433E1,5.313361645E0,-6.317167282E-1,-1.269237757E0,5.499258357E0
1.752446959E1,6.117578983E0,-4.765739441E-1,-1.270922542E0,6.266349771E0
1.754127798E1,6.579797745E0,9.082031250E-2,-1.163368702E0,6.682470608E0
1.755808734E1,6.687747955E0,5.986785889E-1,-7.460884452E-1,6.755815031E0
1.757489732E1,6.560208797E0,5.842199326E-1,-4.549740553E-1,6.601867447E0
1.759170611E1,6.406657696E0,-2.798004150E-1,-7.503201365E-1,6.456510777E0
1.760850978E1,6.118644714E0,-8.538904190E-1,-1.176856279E0,6.289032731E0
1.762532053E1,5.502849102E0,-1.853466034E-1,-1.617604375E0,5.738671058E0
1.764212814E1,5.020242691E0,1.349144936E0,-1.812369585E0,5.505244068E0
1.765893077E1,4.826318741E0,2.212812901E0,-1.512154937E0,5.520553059E0
1.767574669E1,4.922780514E0,1.879504204E0,-8.563007712E-1,5.338497452E0
1.769255114E1,4.841260433E0,9.747333527E-1,-2.516853213E-1,4.944820845E0
1.770935057E1,4.313910484E0,5.410652161E-1,2.260836363E-1,4.353583472E0
1.772616965E1,3.396357536E0,8.019104004E-1,5.093842149E-1,3.526723278E0
1.774297730E1,2.585010052E0,1.066235065E0,8.617919087E-1,2.926058693E0
1.775978589E1,1.985724926E0,1.066746712E0,1.373496532E0,2.639610720E0
1.777658634E1,1.595624447E0,6.683969498E-1,2.043083191E0,2.677117999E0
1.779340113E1,9.056520462E-1,6.162600517E-1,2.412924290E0,2.649940699E0
1.781019767E1,-6.078720093E-3,8.729920387E-1,2.424488306E0,2.576877102E0
1.782701675E1,-7.379474640E-1,7.041487694E-1,2.095672131E0,2.330715261E0
1.784382827E1,-1.324168205E0,1.321706772E-1,1.617464781E0,2.094536426E0
1.786063158E1,-1.678192616E0,-8.147044182E-1,1.150115490E0,2.191538132E0
1.787744231E1,-2.152635574E0,-1.346290588E0,7.276828289E-1,2.641185447E0
1.789424338E1,-2.593243122E0,-1.551896095E0,6.151843667E-1,3.084111409E0
1.791106464E1,-2.959295750E0,-1.581049919E0,7.751021385E-1,3.443535030E0
1.792786946E1,-3.239108086E0,-1.575419426E0,1.091898561E0,3.763776033E0
1.794467337E1,-3.502115250E0,-1.584244251E0,1.606326461E0,4.165924359E0
1.796148093E1,-3.593301773E0,-1.840961933E0,2.101443291E0,4.551595586E0
1.797829269E1,-3.556350708E0,-2.446332932E0,2.544953823E0,5.010884666E0
1.799510236E1,-3.479531288E0,-3.243747234E0,2.879079580E0,5.560407659E0
1.801191180E1,-3.320096970E0,-4.794354916E0,2.870177746E0,6.499754091E0
1.802871841E1,-3.004182339E0,-6.134806156E0,2.694690228E0,7.343181430E0
1.804552331E1,-2.695141792E0,-6.490881920E0,2.371771812E0,7.417589832E0
1.806233268E1,-2.193677902E0,-6.504790306E0,2.416941643E0,7.277783081E0
1.807914596E1,-1.914700985E0,-6.008917809E0,2.800687551E0,6.900508956E0
1.809593730E1,-1.557807446E0,-5.553171635E0,2.967923641E0,6.486374178E0
1.811275348E1,-1.052074432E0,-5.304168224E0,2.516007662E0,5.964172677E0
1.812956938E1,-5.383162498E-1,-5.594740391E0,1.963769197E0,5.953763002E0
1.814637542E1,-5.955214500E-1,-5.472469330E0,1.922664881E0,5.830883862E0
1.816318433E1,-8.736076355E-1,-4.687603951E0,1.594925165E0,5.027982436E0
1.817998936E1,-1.074785233E0,-3.379112720E0,1.445395231E0,3.829194883E0
1.819678665E1,-9.978175163E-1,-2.021758080E0,1.261440516E0,2.583481702E0
1.821360914E1,-8.192911148E-1,-1.096012115E0,8.932442665E-1,1.634125395E0
1.823040322E1,-8.634872437E-1,-2.526302338E-1,3.151883781E-1,9.532974188E-1
1.824722206E1,-1.163420200E0,2.379298210E-1,-3.744709492E-1,1.245144833E0
1.826402402E1,-1.430402756E0,2.201018333E-1,-8.730169535E-1,1.690164330E0
1.828084205E1,-1.585498333E0,1.883263588E-1,-9.513891339E-1,1.858605140E0
1.829763517E1,-1.802730083E0,2.565002441E-1,-6.164485812E-1,1.922403959E0
1.831445454E1,-1.887227058E0,6.769075394E-1,-1.999737769E-1,2.014899327E0
1.833126552E1,-1.839317322E0,1.551681995E0,6.680843234E-2,2.407336410E0
1.834807303E1,-1.737408638E0,2.264402866E0,2.157985270E-1,2.862285472E0
1.836488132E1,-1.325293541E0,2.463938713E0,5.684986711E-1,2.854923412E0
1.838170298E1,-9.484362602E-1,2.513077736E0,8.809458613E-1,2.826863396E0
1.839850009E1,-7.198410034E-1,2.517168999E0,6.317046881E-1,2.693206574E0
1.841530354E1,-4.080042839E-1,2.346661568E0,2.800579965E-1,2.398274482E0
1.843211560E1,5.784082413E-2,2.073106766E0,-2.362315953E-1,2.087324266E0
1.844892385E1,6.962084770E-1,1.485778809E0,-4.589647651E-1,1.703788005E0
1.846572714E1,1.315379620E0,9.568047523E-1,-1.530933976E-1,1.633749205E0
1.848254400E1,1.759573460E0,1.030379772E0,-1.610307097E-1,2.045412458E0
1.849934490E1,2.322154999E0,1.126953602E0,-1.106990576E-1,2.583540698E0
1.851615630E1,3.052025795E0,1.064920902E0,1.469745040E-1,3.235818210E0
1.853296593E1,3.717947960E0,8.566045761E-1,2.725526690E-1,3.825074299E0
1.854977253E1,4.219284534E0,4.060087204E-1,4.268416166E-1,4.260211125E0
1.856657741E1,4.605318069E0,2.705221176E-1,2.288376093E-1,4.618928814E0
1.858338712E1,4.922613621E0,2.700166702E-1,-1.518211961E-1,4.932350711E0
1.860019720E1,5.004026413E0,4.525737762E-1,-6.294113398E-1,5.063720174E0
1.861700481E1,5.043704033E0,8.154268265E-1,-8.401197195E-1,5.177805754E0
1.863381098E1,5.208379745E0,8.049087524E-1,-6.623880863E-1,5.311671644E0
1.865060852E1,5.291833878E0,1.096649170E-1,-5.775207877E-1,5.324383762E0
1.866742918E1,5.613682747E0,-1.660119057E0,-7.294359207E-1,5.899280128E0
1.868423585E1,5.848625183E0,-3.369887352E0,-6.029174924E-1,6.776877364E0
1.870104439E1,5.139266968E0,-2.670345306E0,-4.281548262E-1,5.807419873E0
1.871785108E1,4.518810272E0,-4.951381683E-1,-3.204811811E-1,4.557139044E0
1.873466024E1,3.997745991E0,2.012036324E0,-1.031780601E0,4.592911319E0
1.875145488E1,3.269922495E0,3.269187927E0,-1.768927693E0,4.950665411E0
1.876827876E1,3.434152126E0,2.579723835E0,-2.018344164E0,4.745744310E0
1.878508505E1,3.292882919E0,1.176325321E0,-1.916929007E0,3.987660467E0
1.880189415E1,3.001312733E0,5.878829956E-2,-1.190750003E0,3.229430252E0
1.881869758E1,2.524877548E0,-1.292724609E-1,-2.644000053E-1,2.541972731E0
1.883550711E1,1.810479164E0,3.030872345E-1,4.970124960E-1,1.901767098E0
1.885232132E1,1.234874249E0,9.899516106E-1,9.565145373E-1,1.849280579E0
1.886912416E1,7.636103630E-1,1.444519520E0,1.192016959E0,2.022533525E0
1.888593348E1,4.644498825E-1,1.368264198E0,1.237070560E0,1.902157770E0
1.890274700E1,-2.084202766E-1,1.406132221E0,1.186412215E0,1.851545511E0
1.891955067E1,-6.779508591E-1,1.159705162E0,1.050805569E0,1.705498688E0
1.893636086E1,-9.660000801E-1,4.809837341E-1,1.003560424E0,1.473646848E0
1.895316860E1,-1.377603054E0,-1.323695183E-1,1.085970998E0,1.759160275E0
1.896997574E1,-1.638346195E0,-4.507904053E-1,1.135279536E0,2.043587500E0
1.898678937E1,-1.857478619E0,-6.730647087E-1,1.282500267E0,2.355429866E0
1.900359042E1,-2.006151676E0,-7.883462906E-1,1.414140582E0,2.577969745E0
1.902040120E1,-2.156355858E0,-1.107151031E0,1.631731033E0,2.922019876E0
1.903721377E1,-2.259045601E0,-1.526826859E0,1.694769144E0,3.210409590E0
1.905401641E1,-2.428330421E0,-1.866563797E0,1.729315281E0,3.517297313E0
1.907082436E1,-2.474487305E0,-2.223146915E0,1.948493719E0,3.855139090E0
1.908763406E1,-2.463576317E0,-2.877611160E0,2.140393734E0,4.350992944E0
1.910444282E1,-2.288183689E0,-3.877556324E0,2.239911079E0,5.028760213E0
1.912124791E1,-2.193121433E0,-4.757424355E0,2.093494654E0,5.641417196E0
1.913805717E1,-2.131865025E0,-5.284858704E0,2.074326515E0,6.064438184E0
1.915486770E1,-2.069065094E0,-5.369512081E0,2.068865061E0,6.114972853E0
1.917168882E1,-1.910939217E0,-5.496747017E0,2.242821455E0,6.236678967E0
1.918848316E1,-1.839906693E0,-5.595547676E0,2.307808399E0,6.326246125E0
1.920528718E1,-1.848570347E0,-6.140760422E0,2.259896040E0,6.799505938E0
1.922209597E1,-2.008163929E0,-6.778869152E0,2.107888699E0,7.377600159E0
1.923889567E1,-2.368568897E0,-6.589085579E0,1.900660515E0,7.255251738E0
1.925571816E1,-2.753709316E0,-5.475714684E0,1.938222885E0,6.428302594E0
1.927252374E1,-2.637033939E0,-4.196009159E0,1.746055245E0,5.254440958E0
1.928933297E1,-2.313393116E0,-3.305375576E0,1.312279463E0,4.242566770E0
1.930614588E1,-2.259804726E0,-3.234532833E0,5.868553519E-1,3.989150192E0
1.932293584E1,-2.501892567E0,-3.068274021E0,-2.148060203E-1,3.964834613E0
1.933975710E1,-2.744255066E0,-2.780175209E0,-8.293495774E-1,3.993511084E0
1.935656266E1,-3.207624435E0,-2.099773407E0,-1.041311383E0,3.972685776E0
1.937337503E1,-3.267784119E0,-1.026570320E0,-9.047988057E-1,3.542727840E0
1.939018019E1,-2.897250652E0,4.760742188E-3,-4.863672256E-1,2.937794595E0
1.940698915E1,-2.349875927E0,9.604692459E-1,-1.606096327E-1,2.543661436E0
1.942377677E1,-1.613950729E0,1.453956604E0,-9.356223047E-2,2.174300038E0
1.944061653E1,-1.041098118E0,1.841399193E0,-3.368461132E-1,2.141985430E0
1.945741324E1,-9.274530411E-2,1.954673767E0,-3.648097217E-1,1.990587190E0
1.947421825E1,4.317951202E-1,2.071796894E0,-4.510340989E-1,2.163844069E0
1.949103460E1,9.498052597E-1,2.168648720E0,-5.679966211E-1,2.434704800E0
1.950783877E1,1.496465683E0,2.114521980E0,-4.428581893E-1,2.628066993E0
1.952464628E1,1.903075218E0,1.923599720E0,-3.368368745E-1,2.726791200E0
1.954145760E1,2.442559242E0,1.863172531E0,-1.434998214E-1,3.075402369E0
1.955826293E1,3.019091129E0,1.803647041E0,3.301990032E-2,3.516979416E0
1.957507165E1,3.491350651E0,1.811405659E0,1.387892962E-1,3.935731482E0
1.959187858E1,4.016343117E0,1.583686352E0,1.893328130E-1,4.321448994E0
1.960868856E1,4.718232155E0,1.139702320E0,3.237333298E-1,4.864713693E0
1.962549758E1,5.471266270E0,5.893945694E-1,3.652726412E-1,5.515030794E0
1.964230310E1,6.240381241E0,3.841733932E-1,4.500881433E-1,6.268375114E0
1.965910044E1,7.077141762E0,-3.926229477E-1,8.460893035E-1,7.138344024E0
1.967592617E1,7.629133701E0,-8.023195267E-1,1.437257767E0,7.804684974E0
1.969271873E1,7.177517891E0,7.554311752E-1,1.455964565E0,7.362558805E0
1.970952636E1,6.953685760E0,1.660366535E0,1.003589392E0,7.219262729E0
1.972634195E1,6.858080864E0,1.033205986E0,2.703783512E-1,6.940741473E0
1.974315552E1,6.794962883E0,-1.645326614E-1,-6.765835881E-1,6.830545873E0
1.975996904E1,6.161777020E0,-7.834739685E-1,-1.637221098E0,6.423536442E0
1.977676638E1,4.915115356E0,1.122045517E-1,-2.280748367E0,5.419664376E0
1.979358038E1,3.986660480E0,1.501203537E0,-2.588172436E0,4.984547161E0
1.981038958E1,3.423130512E0,2.342199802E0,-2.533658028E0,4.860364741E0
1.982719523E1,3.310333490E0,2.153493881E0,-2.458287716E0,4.651776242E0
1.984399853E1,3.393759251E0,1.088414669E0,-2.468963623E0,4.335669466E0
1.986081526E1,3.157309532E0,2.878503799E-1,-2.106124878E0,3.806208524E0
1.987762088E1,2.558050632E0,2.149677277E-2,-1.337081552E0,2.886498263E0
1.989442671E1,1.881556034E0,1.203861237E-1,-5.889194608E-1,1.975239747E0
1.991123422E1,1.091743469E0,4.052734375E-1,-9.207481146E-2,1.168172989E0
1.992804452E1,5.442752838E-1,7.514414787E-1,2.269939780E-1,9.552100013E-1
1.994485301E1,4.332494736E-1,6.903300285E-1,4.281417131E-1,9.206334673E-1
1.996166293E1,1.559271812E-1,4.859843254E-1,3.408272862E-1,6.137241151E-1
1.997846742E1,3.134489059E-2,4.921555519E-1,7.384870052E-1,8.880104990E-1
1.999526467E1,-6.689453125E-2,-1.080737114E-1,1.079810500E0,1.087265157E0
2.001208413E1,-4.678063393E-1,-3.066902161E-1,1.113255620E0,1.245889134E0
2.002889189E1,-8.053960800E-1,-6.112327576E-1,8.877320886E-1,1.345487492E0
2.004570352E1,-1.016518593E0,-1.082612038E0,6.652324200E-1,1.627234785E0
2.006250794E1,-1.335051060E0,-1.214700699E0,5.727095604E-1,1.893635488E0
2.007930529E1,-1.593905449E0,-1.528821468E0,7.196944952E-1,2.322883946E0
2.009612562E1,-1.860953331E0,-1.882497787E0,9.028812647E-1,2.796808860E0
2.011293063E1,-2.118850231E0,-2.289987564E0,1.211476088E0,3.346825908E0
2.012973951E1,-2.470395565E0,-2.650390148E0,1.509636641E0,3.925101906E0
2.014654292E1,-2.607948780E0,-3.315701008E0,1.955854774E0,4.649799771E0
2.016335348E1,-2.684608936E0,-4.110838890E0,2.265222073E0,5.407157530E0
2.018015128E1,-2.827094555E0,-5.059581280E0,2.396953106E0,6.271938340E0
2.019696327E1,-3.162691593E0,-5.964428902E0,2.531336546E0,7.210041258E0
2.021378538E1,-3.850415707E0,-6.097538471E0,2.426773071E0,7.608870091E0
2.023058657E1,-4.050074577E0,-6.177121162E0,2.285182476E0,7.731881329E0
2.024740465E1,-3.943959236E0,-6.324112415E0,2.075068712E0,7.736609235E0
2.026420866E1,-3.623694420E0,-6.597606659E0,1.578652620E0,7.691015471E0
2.028101637E1,-3.190827847E0,-6.966310501E0,1.086302161E0,7.738922194E0
2.029782103E1,-2.733144760E0,-7.384665966E0,4.624645114E-1,7.887790891E0
2.031463670E1,-2.441392422E0,-7.485361099E0,-4.831124544E-1,7.888246027E0
2.033144193E1,-2.472069740E0,-6.447979927E0,-7.865976095E-1,6.950274077E0
2.034824898E1,-2.134850502E0,-4.035208702E0,4.300162792E-1,4.585347308E0
2.036505667E1,-1.338628769E0,-1.800804138E0,1.987283826E0,2.997352086E0
2.038186608E1,-3.627967834E-1,-6.974692345E-1,2.915460587E0,3.019601840E0
2.039867401E1,3.213701248E-1,-1.217575073E-1,3.114417076E0,3.133320503E0
2.041548101E1,2.834200859E-1,-1.241683960E-2,2.442150116E0,2.458572413E0
2.043228990E1,7.367897034E-2,-4.105372429E-1,2.283701658E0,2.321478555E0
2.044909822E1,2.827939987E-1,-1.012863159E0,1.840702415E0,2.119917358E0
2.046591103E1,1.232319832E0,-1.078569889E0,1.422724962E0,2.169348172E0
2.048271424E1,1.673953533E0,4.069280624E-2,1.067221880E0,1.985633117E0
2.049952325E1,2.260974884E0,1.537948132E0,-1.845033616E-1,2.740681188E0
2.051633204E1,1.989394665E0,2.898699284E0,-1.565243244E0,3.848393832E0
2.053314452E1,1.722626209E0,4.032042027E0,-2.589236021E0,5.092047440E0
2.054995817E1,1.654030323E0,4.427157402E0,-3.071233749E0,5.636312244E0
2.056676711E1,1.786737919E0,4.207196712E0,-3.124842882E0,5.536928716E0
2.058356113E1,2.291386843E0,3.518266678E0,-2.697399616E0,4.990452762E0
2.060035120E1,2.837241650E0,2.911232948E0,-1.683671236E0,4.399996169E0
2.061717944E1,3.255347967E0,2.780449390E0,-7.138392925E-1,4.340248350E0
2.063396864E1,3.495400667E0,2.833365917E0,-1.189768314E-2,4.499547733E0
2.065079685E1,3.751213551E0,2.875165462E0,4.886271358E-1,4.751519338E0
2.066759352E1,3.876826048E0,3.280105591E0,8.027405739E-1,5.141329140E0
2.068441199E1,3.941012859E0,3.502254963E0,7.413015366E-1,5.324180702E0
2.070122268E1,4.187223911E0,3.007203102E0,5.002542734E-1,5.179417817E0
2.071802907E1,4.501392365E0,2.114147186E0,-9.627985954E-2,4.974074925E0
2.073483799E1,4.728301048E0,1.073822975E0,-7.757263184E-1,4.910364335E0
2.075164470E1,4.887209892E0,1.700458527E-1,-1.153833270E0,5.024446968E0
2.076845862E1,5.041316986E0,-3.617515564E-1,-1.201293230E0,5.195079072E0
2.078526213E1,5.185861588E0,-7.350158691E-2,-8.844604492E-1,5.261257756E0
2.080206942E1,5.336724281E0,6.806602478E-1,-4.517555535E-1,5.398889470E0
2.081887964E1,5.521301746E0,7.472972870E-1,-5.265134573E-2,5.571893608E0
2.083568845E1,5.792386055E0,-4.135990143E-1,1.075778008E-1,5.808129935E0
2.085250320E1,6.082391739E0,-2.189888000E0,-2.702302337E-1,6.470249076E0
2.086930248E1,5.779814720E0,-3.147948265E0,-6.356304884E-1,6.612099712E0
2.088611281E1,4.813095093E0,-2.008484840E0,-1.047125578E0,5.319433024E0
2.090292532E1,4.076867104E0,8.592796326E-2,-1.072469831E0,4.216446434E0
2.091972809E1,3.707705975E0,1.334192753E0,-7.398667932E-1,4.009308764E0
2.093653519E1,3.684126377E0,1.179946423E0,-3.617015779E-1,3.885342810E0
2.095334411E1,3.528880596E0,2.536687851E-1,-2.958519161E-1,3.550334417E0
2.097015465E1,2.974052429E0,-4.905004501E-1,-5.238212943E-1,3.059406363E0
2.098694888E1,2.228956223E0,-9.591341019E-1,-6.040217280E-1,2.500605190E0
2.100376818E1,1.444417000E0,-9.556169510E-1,-3.685396314E-1,1.770696385E0
2.102057033E1,8.391480446E-1,-5.790395737E-1,2.662029862E-1,1.053717371E0
2.103738674E1,2.640523911E-1,-7.338666916E-2,9.396425486E-1,9.787938432E-1
2.105419491E1,-1.757969856E-1,1.646966934E-1,1.186920643E0,1.211119397E0
2.107100110E1,-6.198816299E-1,9.332847595E-2,1.137399554E0,1.298707506E0
2.108780718E1,-1.023180008E0,-2.825660706E-1,9.431287646E-1,1.419941118E0
2.110461994E1,-1.466057301E0,-9.009327888E-1,6.373564601E-1,1.835000587E0
2.112142034E1,-1.925803661E0,-1.678776741E0,6.816271544E-1,2.644168426E0
2.113823265E1,-2.448979378E0,-2.299122334E0,8.064222336E-1,3.454530405E0
2.115504696E1,-2.905600548E0,-2.888906479E0,9.592772722E-1,4.208147820E0
2.117185384E1,-3.455029964E0,-2.986805439E0,1.155387044E0,4.710961474E0
2.118863986E1,-3.860071659E0,-2.914819241E0,1.357461929E0,5.023845868E0
2.120546414E1,-4.103894711E0,-2.906607628E0,1.523676276E0,5.254703521E0
2.122227979E1,-4.319661140E0,-2.764499187E0,1.551493406E0,5.358083605E0
2.123908455E1,-4.341165543E0,-2.577064037E0,1.636823416E0,5.307180816E0
2.125589110E1,-4.407523632E0,-3.152141571E0,1.763644695E0,5.698482575E0
2.127270093E1,-4.271059036E0,-4.416824341E0,1.897059083E0,6.430327808E0
2.128950793E1,-4.283256531E0,-5.445437431E0,2.050100565E0,7.225094301E0
2.130631791E1,-4.360363960E0,-5.993968010E0,2.080630302E0,7.698665392E0
2.132312431E1,-4.102005959E0,-6.406658173E0,2.145704508E0,7.904161541E0
2.133993249E1,-3.458902359E0,-6.967431545E0,2.299013138E0,8.111385164E0
2.135673916E1,-2.758328438E0,-7.069213867E0,2.338182211E0,7.940356196E0
2.137355118E1,-1.799823284E0,-7.451142311E0,2.111738205E0,7.950995148E0
2.139035680E1,-9.486265182E-1,-8.118999481E0,2.028531790E0,8.422172289E0
2.140716660E1,-2.922334671E-1,-8.227228165E0,2.009400368E0,8.474100159E0
2.142397733E1,2.041702271E-1,-6.947239399E0,2.075819731E0,7.253609329E0
2.144078154E1,4.041500092E-1,-4.418190479E0,2.254117012E0,4.976423198E0
2.145759261E1,5.561037064E-1,-2.121600628E0,2.384960175E0,3.240135119E0
2.147439983E1,6.700801849E-1,-7.455873489E-1,2.067186594E0,2.297426465E0
2.149121315E1,1.140330791E0,-6.646809578E-1,1.220367074E0,1.797623677E0
2.150800280E1,1.433188915E0,-1.178750515E0,3.505439758E-1,1.888482015E0
2.152482425E1,1.031914234E0,-1.040535450E0,9.019255638E-3,1.465483660E0
2.154163267E1,7.844066620E-1,-5.803508759E-1,-4.456150532E-2,9.767736064E-1
2.155844112E1,6.409378052E-1,-3.000431061E-1,2.045730352E-1,7.366663168E-1
2.157522916E1,4.396677017E-1,4.944663048E-1,5.056377649E-1,8.327509615E-1
2.159205568E1,2.782673836E-1,1.249565125E0,6.346672773E-1,1.428862586E0
2.160885196E1,2.557759285E-1,1.827349186E0,6.462656260E-1,1.955066657E0
2.162565905E1,3.377709389E-1,2.312121868E0,7.133853436E-1,2.443136384E0
2.164248178E1,5.888862610E-1,2.525041103E0,9.268917441E-1,2.753497396E0
2.165928820E1,8.969969749E-1,2.483178139E0,8.194153309E-1,2.764456317E0
2.167609966E1,8.952813148E-1,2.682441711E0,2.124385536E-1,2.835868880E0
2.169290527E1,1.257057190E0,2.660819054E0,-3.558882475E-1,2.964254925E0
2.170971818E1,1.545127869E0,2.814705849E0,-7.972887158E-1,3.308422349E0
2.172652080E1,1.820381165E0,2.832052708E0,-1.182892203E0,3.568409182E0
2.174332972E1,2.189087391E0,3.004761219E0,-1.193504333E0,3.904503321E0
2.176013810E1,2.594463825E0,3.134859085E0,-1.185248852E0,4.238325007E0
2.177693590E1,2.791436672E0,3.415335655E0,-9.778623581E-1,4.518058336E0
2.179376575E1,3.279532909E0,3.711663246E0,-8.757720590E-1,5.029786959E0
2.181056349E1,3.969907761E0,3.315144539E0,-7.602614164E-1,5.227652280E0
2.182736813E1,4.558340073E0,2.843029022E0,-7.604418993E-1,5.425822529E0
2.184418120E1,5.176363468E0,1.852725029E0,-8.466335535E-1,5.562743672E0
2.186099482E1,5.707548618E0,4.156007767E-1,-1.018185735E0,5.812532789E0
2.187779594E1,6.078703880E0,-2.907457352E-1,-1.041486025E0,6.174128852E0
2.189460440E1,6.325350761E0,-6.895065308E-4,-9.956339598E-1,6.403229631E0
2.191141388E1,6.391147614E0,4.951372147E-1,-7.456521988E-1,6.453520425E0
2.192820752E1,6.605377197E0,5.079164505E-1,-3.406271636E-1,6.633627507E0
2.194502923E1,6.790514946E0,-5.733299255E-2,-4.329979420E-2,6.790895020E0
2.196182504E1,6.312479019E0,4.647922516E-2,-3.325263858E-1,6.321402177E0
2.197864794E1,5.407349586E0,1.179711342E0,-1.409482479E0,5.711198583E0
2.199545419E1,4.733886719E0,2.304497242E0,-2.402759790E0,5.787369490E0
2.201226022E1,4.370984554E0,2.853508472E0,-2.877000332E0,5.960297600E0
2.202904933E1,4.458235264E0,2.283054352E0,-3.006452322E0,5.841828002E0
2.204587938E1,4.315769196E0,1.308331013E0,-2.938189030E0,5.382429615E0
2.206267360E1,3.909393787E0,3.150854111E-1,-2.654821157E0,4.736107471E0
2.207949312E1,3.664756775E0,-1.029911995E0,-1.920413017E0,4.263701103E0
2.209630245E1,3.639047146E0,-2.126213074E0,-5.624423623E-1,4.252033346E0
2.211310697E1,2.980872631E0,-2.366171837E0,3.325339556E-1,3.820333707E0
2.212992923E1,2.058165073E0,-1.697612762E0,1.469102263E0,3.045684491E0
2.214672866E1,1.339011192E0,-1.123042583E0,2.400760174E0,2.969482283E0
2.216353268E1,6.660776138E-1,-5.284929276E-1,3.003433466E0,3.121470286E0
2.218034120E1,9.766530991E-2,-3.143358231E-1,3.297593594E0,3.313980843E0
2.219715631E1,-5.958061218E-1,-1.106977463E-1,3.070367336E0,3.129599736E0
2.221395882E1,-1.241547585E0,-4.342474937E-1,2.320799351E0,2.667605840E0
2.223076944E1,-1.615502834E0,-1.039564133E0,1.721909046E0,2.579828242E0
2.224757673E1,-2.022243500E0,-1.519478798E0,1.132244349E0,2.771328536E0
2.226438419E1,-2.376298904E0,-1.970890045E0,7.886705399E-1,3.186409464E0
2.228119142E1,-2.550663471E0,-2.798219204E0,9.203447104E-1,3.896530411E0
2.229800169E1,-2.955778122E0,-3.020396233E0,1.267889738E0,4.412138041E0
2.231481057E1,-3.161912918E0,-3.056973457E0,1.874868274E0,4.780994778E0
2.233161816E1,-3.391338825E0,-3.264075756E0,2.561341524E0,5.358716262E0
2.234842486E1,-3.728621960E0,-3.462695599E0,3.054070473E0,5.934663342E0
2.236523491E1,-4.016981602E0,-4.111394882E0,3.331792355E0,6.643835440E0
2.238203217E1,-4.157934189E0,-5.202974319E0,3.250774384E0,7.411267947E0
2.239884916E1,-4.215880871E0,-6.341436386E0,3.065528154E0,8.208832427E0
2.241565819E1,-4.369595528E0,-7.052423477E0,2.936153889E0,8.800627343E0
2.243246588E1,-4.496436596E0,-7.256755352E0,2.824959040E0,8.992154018E0
2.244926412E1,-4.537430286E0,-6.951725483E0,2.889748096E0,8.790074224E0
2.246608202E1,-4.114632130E0,-6.693408012E0,3.110539913E0,8.450287979E0
2.248289105E1,-3.407055378E0,-7.138278961E0,2.913805962E0,8.429313024E0
2.249969996E1,-2.543120861E0,-8.001326561E0,2.000489235E0,8.630796465E0
2.251648925E1,-1.632664204E0,-8.413596153E0,1.031980991E0,8.632449096E0
2.253331453E1,-1.082457066E0,-7.225736141E0,1.210964918E0,7.406038895E0
2.255011188E1,-7.199826241E-1,-5.282217979E0,2.073079586E0,5.719952861E0
2.256692837E1,-2.699966431E-1,-3.434214592E0,2.994636774E0,4.564490931E0
2.258374006E1,4.656357765E-1,-2.288946152E0,3.545680046E0,4.245931953E0
2.260055140E1,8.945522308E-1,-1.418161392E0,3.414836884E0,3.804276064E0
2.261735711E1,7.686157227E-1,-8.939986229E-1,2.715976477E0,2.960832972E0
2.263417251E1,5.435743332E-1,-1.137047768E0,1.788419127E0,2.187874232E0
2.265097671E1,4.061989784E-1,-1.416103840E0,1.065134883E0,1.817927395E0
2.266778058E1,4.050536156E-1,-1.557821751E0,3.978568316E-1,1.658061246E0
2.268459014E1,4.925675392E-1,-1.030452728E0,-2.911486626E-1,1.178653108E0
2.270140002E1,6.790895462E-1,-2.941451073E-1,-6.156249642E-1,9.626411857E-1
2.271820402E1,1.455394268E0,2.001729012E-1,-3.676851392E-1,1.514408805E0
2.273501056E1,1.711961746E0,1.093322754E0,-6.184653044E-1,2.123362192E0
2.275182654E1,1.823055267E0,1.934148312E0,-1.546687126E0,3.075174998E0
2.276863172E1,2.054898262E0,2.522966385E0,-2.485230684E0,4.094427652E0
2.278543852E1,2.238953590E0,3.121350765E0,-2.989367008E0,4.867448910E0
2.280224551E1,2.596511364E0,3.526483536E0,-2.862040520E0,5.231561271E0
2.281905681E1,3.123855114E0,3.644108295E0,-2.346143723E0,5.342507502E0
2.283586465E1,3.486457825E0,3.977289677E0,-2.066662312E0,5.678495791E0
2.285267128E1,3.890341759E0,4.159622669E0,-2.016388416E0,6.041774739E0
2.286948040E1,4.296493530E0,3.904175758E0,-1.875889778E0,6.100934967E0
2.288627460E1,4.621973991E0,3.495043755E0,-1.451787233E0,5.973747617E0
2.290308416E1,4.894778252E0,3.114174843E0,-1.027419925E0,5.891734107E0
2.291990414E1,5.356627941E0,2.660001278E0,-7.453609109E-1,6.026992001E0
2.293670937E1,5.757618427E0,2.124999523E0,-4.212914109E-1,6.151689149E0
2.295351851E1,6.049806118E0,1.634065151E0,-7.264640927E-2,6.267024851E0
2.297030690E1,6.375008106E0,1.334221363E0,8.668388426E-2,6.513707784E0
2.298713767E1,6.668435574E0,1.022321701E0,1.318730414E-1,6.747634042E0
2.300393137E1,6.620034218E0,9.277172089E-1,3.389552832E-1,6.693310313E0
2.302075643E1,6.044626236E0,1.513536930E0,8.412952423E-1,6.287772106E0
2.303755925E1,5.563171387E0,1.647257805E0,1.401784539E0,5.968863715E0
2.305436683E1,5.342646599E0,9.285745621E-1,1.702835321E0,5.683816634E0
2.307118266E1,5.122879982E0,-2.744827271E-1,1.404265642E0,5.318947459E0
2.308799056E1,4.665422916E0,-1.361477852E0,6.861516237E-1,4.908217292E0
2.310479791E1,3.835894108E0,-1.688904762E0,-3.353643417E-2,4.191372996E0
2.312160584E1,2.706762791E0,-4.808835983E-1,-5.398986340E-1,2.801661003E0
2.313842000E1,2.167751789E0,9.901013374E-1,-7.952799797E-1,2.512353224E0
2.315522294E1,2.300223827E0,1.637153149E0,-7.733880281E-1,2.927358729E0
2.317202663E1,2.853945732E0,7.544407845E-1,-8.768196702E-1,3.079447982E0
2.318883677E1,3.216354370E0,-4.180593491E-1,-1.075012207E0,3.416922636E0
2.320564645E1,3.395602226E0,-1.263364792E0,-8.373891711E-1,3.718524667E0
2.322245436E1,3.246296406E0,-1.573074341E0,-3.522058129E-1,3.624507162E0
2.323925921E1,2.900932789E0,-9.340715408E-1,6.821293831E-1,3.123011557E0
2.325607015E1,2.411826611E0,2.059140205E-1,1.642942071E0,2.925502834E0
2.327287613E1,1.932409763E0,9.152688980E-1,2.215006828E0,3.078665279E0
2.328968557E1,1.536403656E0,1.241081238E0,2.483165979E0,3.172842907E0
2.330649263E1,1.192192078E0,1.002490520E0,2.548743248E0,2.987038891E0
2.332330145E1,8.047084808E-1,2.835278511E-1,2.497508287E0,2.639221747E0
2.334010978E1,3.233594894E-1,-7.029471397E-1,2.525793076E0,2.641652267E0
2.335692815E1,-1.090583801E-1,-1.518403530E0,2.724758148E0,3.121177659E0
2.337371418E1,-4.715328217E-1,-2.163075447E0,3.117236614E0,3.823401980E0
2.339052296E1,-8.224239349E-1,-2.611882210E0,3.452288151E0,4.406427497E0
2.340734267E1,-1.171658039E0,-2.878622532E0,3.905246735E0,4.991012152E0
2.342415029E1,-1.856362343E0,-3.067746639E0,4.532572746E0,5.779391516E0
2.344095939E1,-2.670242786E0,-3.064981937E0,4.932616234E0,6.391792685E0
2.345775021E1,-3.400162220E0,-3.496854782E0,5.284528255E0,7.191337523E0
2.347457467E1,-3.955054760E0,-4.148089886E0,5.449183464E0,7.908394798E0
2.349137097E1,-4.333848476E0,-4.612976551E0,5.488792419E0,8.377865928E0
2.350819321E1,-4.465436459E0,-5.121003628E0,5.355941772E0,8.651642225E0
2.352500175E1,-4.514391899E0,-5.761700630E0,5.623739243E0,9.230567233E0
2.354181058E1,-4.289041996E0,-6.109177589E0,5.937691212E0,9.538034860E0
2.355861282E1,-3.922043324E0,-6.299638748E0,5.800014973E0,9.418494884E0
2.357542442E1,-3.778428078E0,-5.901244640E0,5.505997181E0,8.911633520E0
2.359223113E1,-3.736535072E0,-5.290377617E0,5.177275658E0,8.291801548E0
2.360904096E1,-3.246630192E0,-5.107830048E0,4.683925152E0,7.653083707E0
2.362585147E1,-2.422856808E0,-5.567012310E0,4.146052837E0,7.351980366E0
2.364264536E1,-1.501179695E0,-6.565597057E0,3.620759487E0,7.646600844E0
2.365946607E1,-1.009320259E0,-7.015650749E0,3.253909588E0,7.799103181E0
2.367627439E1,-9.448008537E-1,-6.193114281E0,3.111060619E0,6.994713098E0
2.369308171E1,-8.267421722E-1,-4.361001968E0,2.898860931E0,5.301437115E0
2.370989039E1,-2.267541885E-1,-2.543862343E0,2.457101107E0,3.544008878E0
2.372670020E1,5.091648102E-1,-1.468868256E0,1.891150475E0,2.448116189E0
2.374350508E1,1.140363693E0,-1.274517536E0,1.101154327E0,2.034051414E0
2.376031412E1,1.481361389E0,-1.332748413E0,2.867499590E-1,2.013175461E0
2.377712497E1,1.597078323E0,-1.139840603E0,-3.374805450E-1,1.990926641E0
2.379393300E1,1.674236298E0,-8.479595184E-1,-7.729715109E-1,2.029676694E0
2.381073469E1,1.639224052E0,-4.729132652E-1,-9.247347713E-1,1.940576421E0
2.382755047E1,1.590342522E0,3.332448006E-1,-1.144156218E0,1.987293356E0
2.384435684E1,1.827570915E0,9.952731133E-1,-1.312032342E0,2.460083919E0
2.386116366E1,2.090410709E0,1.523007870E0,-1.587877035E0,3.034917360E0
2.387797122E1,2.451826572E0,1.913632870E0,-1.935445428E0,3.663249010E0
2.389478173E1,2.929795265E0,1.929124355E0,-1.812718987E0,3.948565715E0
2.391158982E1,3.394515514E0,1.934178829E0,-2.189785004E0,4.478720987E0
2.392839868E1,2.724533081E0,2.554018021E0,-3.893684626E0,5.395078176E0
2.394519477E1,3.510932446E0,2.253314972E0,-4.451498508E0,6.100812566E0
2.396201278E1,3.723384380E0,2.353031158E0,-4.620116711E0,6.383245671E0
2.397882307E1,3.575030327E0,2.611835003E0,-5.285685539E0,6.894997864E0
2.399563031E1,3.299068928E0,2.883162022E0,-5.982918739E0,7.415645331E0
2.401243809E1,2.598224401E0,3.405867577E0,-6.704196453E0,7.955938290E0
2.402924252E1,2.026302099E0,3.636624336E0,-6.637108803E0,7.834676127E0
2.404605954E1,1.966850281E0,3.139170647E0,-5.553713799E0,6.675824244E0
2.406286039E1,2.078392029E0,2.437410831E0,-4.037696362E0,5.153996206E0
2.407967118E1,2.368235588E0,1.623117924E0,-2.543775797E0,3.835863254E0
2.409648011E1,2.742098331E0,6.253404617E-1,-1.018946886E0,2.991388759E0
2.411328645E1,3.294076443E0,-2.923536301E-1,1.584387422E-1,3.310817586E0
2.413009448E1,3.740588188E0,-8.385829926E-1,1.077757597E0,3.982057617E0
2.414690792E1,4.004923344E0,-1.122448921E0,1.955064178E0,4.595821853E0
2.416371284E1,4.193193913E0,-1.407646179E0,2.732199192E0,5.198966761E0
2.418051853E1,4.214790821E0,-1.821615219E0,3.459392548E0,5.748925158E0
2.419731606E1,4.012915611E0,-2.182882309E0,3.763053656E0,5.918533576E0
2.421414038E1,3.415236950E0,-2.305014610E0,3.180963993E0,5.205330701E0
2.423093625E1,2.567984104E0,-1.839685440E0,1.982688189E0,3.729616244E0
2.424775405E1,2.044028282E0,-1.422545433E0,7.060198784E-1,2.588465027E0
2.426455933E1,1.913751602E0,-1.386696815E0,-1.531641483E-1,2.368297386E0
2.428137003E1,2.165883541E0,-1.529129982E0,-5.332067609E-1,2.704366740E0
2.429817741E1,2.453096867E0,-1.471906662E0,-4.216576815E-1,2.891710335E0
2.431499578E1,2.536020756E0,-1.012859344E0,2.265957594E-1,2.740188126E0
2.433178096E1,2.448386669E0,-2.393808365E-1,1.187075853E0,2.731492183E0
2.434860771E1,2.095342636E0,6.243300438E-1,2.178653955E0,3.086548529E0
2.436541144E1,1.567543507E0,1.493502140E0,2.882088900E0,3.604743779E0
2.438221700E1,1.152966022E0,2.146369457E0,3.284089327E0,4.089190042E0
2.439901487E1,7.959890366E-1,2.529664516E0,3.485052824E0,4.379314364E0
2.441583270E1,4.691081047E-1,2.533164978E0,3.470458269E0,4.322160087E0
2.443263480E1,1.945915222E-1,2.013789654E0,3.264210701E0,3.840349741E0
2.444944712E1,3.193998337E-2,1.245519161E0,3.088020802E0,3.329896487E0
2.446626363E1,2.947187424E-2,1.024007797E-1,3.071437120E0,3.073284968E0
2.448306662E1,-1.722478867E-2,-9.221091270E-1,3.091358900E0,3.226000897E0
2.449987653E1,-4.318380356E-2,-1.473277569E0,3.128251553E0,3.458087537E0
2.451667942E1,-1.808376312E-1,-1.580607414E0,3.360029697E0,3.717636563E0
2.453349657E1,-3.397865295E-1,-1.217139244E0,3.804362297E0,4.008747350E0
2.455029782E1,-3.340840340E-1,-8.822460175E-1,4.428251743E0,4.527624507E0
2.456711216E1,-3.658633232E-1,-5.014071465E-1,4.760317802E0,4.800613573E0
2.458391942E1,-3.596072197E-1,-2.613172531E-1,4.967839718E0,4.987688395E0
2.460072660E1,-4.568867683E-1,-1.822504997E-1,5.200508118E0,5.223719503E0
2.461751215E1,-4.661784172E-1,-5.630974770E-1,5.518835068E0,5.567040649E0
2.463434022E1,-5.581135750E-1,-1.222126961E0,5.910106659E0,6.060894801E0
2.465115029E1,-7.444181442E-1,-2.157935619E0,6.188718796E0,6.596293265E0
2.466796593E1,-1.108520985E0,-2.568871021E0,6.361524105E0,6.949597545E0
2.468476782E1,-1.427973747E0,-2.732030869E0,6.179753304E0,6.905972240E0
2.470157238E1,-1.585745335E0,-2.660326958E0,5.925670147E0,6.686216754E0
2.471838195E1,-1.579119682E0,-2.718554974E0,5.479347229E0,6.317230894E0
2.473519292E1,-1.105626106E0,-3.526626587E0,4.983756065E0,6.204621559E0
2.475198980E1,-3.344726562E-1,-5.096763134E0,4.394746304E0,6.738149707E0
2.476880576E1,2.583227158E-1,-6.265932560E0,3.932003975E0,7.401979244E0
2.478561334E1,4.226803780E-1,-6.128006458E0,3.676944733E0,7.158983477E0
2.480242587E1,2.989163399E-1,-4.400554657E0,3.540823698E0,5.656117461E0
2.481923108E1,2.969598770E-1,-1.768234730E0,3.576936722E0,4.001164273E0
2.483603917E1,6.494760513E-1,9.120321274E-2,3.365534544E0,3.428842361E0
2.485283616E1,9.924416542E-1,1.099058628E0,2.716522217E0,3.093923603E0
2.486965468E1,9.767198563E-1,1.410813332E0,1.993052006E0,2.629949093E0
2.488647986E1,6.264271736E-1,1.085260391E0,1.112797976E0,1.675864092E0
2.490327147E1,3.167438507E-1,4.485883713E-1,4.634504318E-1,7.185711493E-1
2.492009253E1,1.817560196E-1,-2.397675514E-1,1.308000088E-1,3.280737290E-1
2.493688936E1,3.546571732E-2,-8.366718292E-1,-5.190217495E-1,9.852213677E-1
2.495369437E1,-9.064722061E-2,-7.856664658E-1,-1.339428425E0,1.555492597E0
2.497050552E1,-1.479220390E-1,-7.990894318E-1,-2.145198107E0,2.293970306E0
2.498731830E1,1.961812973E-1,-1.085902691E0,-2.482744455E0,2.716926901E0
2.500412400E1,1.177518845E0,-1.677346230E0,-2.243006945E0,3.038276017E0
2.502092954E1,1.099235535E0,-1.063074112E0,-1.963329196E0,2.488595359E0
2.503773789E1,1.673618317E0,2.529425621E-1,1.181220710E-1,1.696741298E0
2.505454531E1,2.618253708E0,-9.714045525E-1,-4.017575264E0,4.892830498E0
2.507135549E1,3.502268791E-1,-1.291210651E0,-9.171236038E0,9.268303743E0
2.508816160E1,-2.021831751E0,7.591552734E-1,-1.186222935E1,1.205722213E1
2.510497053E1,-2.747035265E0,2.247917652E0,-1.133589077E1,1.187862602E1
2.512177895E1,-2.059402227E0,3.109192371E0,-8.780490875E0,9.539666386E0
2.513858836E1,-1.115499496E0,3.298597336E0,-5.654160023E0,6.640377179E0
2.515539489E1,-3.997392654E-1,3.325160027E0,-3.025757790E0,4.513500956E0
2.517220316E1,3.901100159E-2,2.948778629E0,-1.076083660E0,3.139231324E0
2.518901250E1,1.650729179E-1,2.256057739E0,1.168842614E-1,2.265106514E0
2.520582165E1,2.598290443E-1,1.327173233E0,1.094483256E0,1.739768238E0
2.522262694E1,2.563300133E-1,2.428679466E-1,2.215271950E0,2.243238669E0
2.523943918E1,3.073468208E-1,-8.254485130E-1,3.170052767E0,3.290146176E0
2.525624495E1,7.402286530E-1,-1.725500107E0,3.746373177E0,4.190537084E0
2.527305229E1,1.168877125E0,-2.228666306E0,4.020733833E0,4.743366715E0
2.528986034E1,1.590975761E0,-2.013717651E0,4.131740570E0,4.863902013E0
2.530667066E1,2.365053654E0,-1.672401428E0,4.000823975E0,4.939331716E0
2.532347698E1,3.392202377E0,-1.972969055E0,3.516763687E0,5.269465883E0
2.534027477E1,4.480421066E0,-2.793858528E0,3.023499489E0,6.084518680E0
2.535709304E1,5.021630764E0,-3.105644226E0,2.504959106E0,6.413783728E0
2.537388666E1,4.973547935E0,-1.954516411E0,1.695608735E0,5.606371594E0
2.539071274E1,4.871716499E0,-3.835563660E-1,8.786596060E-1,4.965156577E0
2.540750517E1,4.928331375E0,9.818019867E-1,-2.563357353E-2,5.025240528E0
2.542432248E1,4.962772369E0,2.049841404E0,-7.706220150E-1,5.424464735E0
2.544114445E1,5.023812294E0,2.411963940E0,-1.376762509E0,5.740360182E0
2.545792835E1,5.022751331E0,2.251454830E0,-1.158732295E0,5.624921361E0
2.547475967E1,4.732738972E0,2.309214592E0,-1.281514764E-1,5.267609800E0
2.549155477E1,4.376020908E0,2.385707378E0,1.175119519E0,5.120748438E0
2.550837272E1,3.921464920E0,2.664845467E0,2.377117872E0,5.303770155E0
2.552517328E1,3.380328894E0,3.047014236E0,3.147549152E0,5.533352045E0
2.554198669E1,2.940119743E0,3.205925465E0,3.570371151E0,5.627593833E0
2.555879293E1,2.456241608E0,3.059284687E0,3.741834164E0,5.421592805E0
2.557560684E1,2.025771618E0,2.371338367E0,3.738140583E0,4.868335580E0
2.559241088E1,1.387437820E0,1.531656742E0,3.553272486E0,4.110559748E0
2.560921360E1,8.630237579E-1,6.518950462E-1,3.057265759E0,3.242938648E0
2.562602618E1,4.011359215E-1,-3.827762604E-2,2.631525993E0,2.662199139E0
2.564283265E1,2.529616356E-1,-5.152997971E-1,2.312469959E0,2.382654147E0
2.565964367E1,2.853217125E-1,-7.656383514E-1,2.115329742E0,2.267648669E0
2.567644942E1,1.705918312E-1,-5.513257980E-1,2.090549469E0,2.168745903E0
2.569325742E1,1.887164116E-1,-7.594299316E-2,2.180741310E0,2.190208639E0
2.571006654E1,2.726273537E-1,2.403030396E-1,2.316718102E0,2.345048824E0
2.572687370E1,3.675265312E-1,3.376159668E-1,2.488527536E0,2.538075963E0
2.574368271E1,3.546557426E-1,2.542362213E-1,2.802515984E0,2.836284998E0
2.576049156E1,1.714663506E-1,-2.238011360E-1,3.141157389E0,3.153784615E0
2.577729947E1,1.419577599E-1,-1.431858063E0,3.493036509E0,3.777786861E0
2.579409309E1,7.282209396E-2,-2.725328922E0,3.780372620E0,4.660894542E0
2.581092367E1,-1.301279068E-1,-3.749019623E0,4.006219864E0,5.488340278E0
2.582772712E1,-4.181942940E-1,-4.286524773E0,4.144263268E0,5.976964039E0
2.584453088E1,-8.008933067E-1,-4.541566372E0,4.379825592E0,6.360041463E0
2.586133910E1,-1.197905064E0,-4.350803852E0,4.311629295E0,6.241363463E0
2.587815052E1,-1.322437763E0,-4.335666180E0,3.865622044E0,5.957338050E0
2.589494431E1,-1.115253448E0,-4.657948017E0,3.318809509E0,5.827071867E0
2.591176378E1,-8.403162956E-1,-4.948522091E0,3.021827221E0,5.858791865E0
2.592857244E1,-5.770325661E-1,-5.032039642E0,2.852382660E0,5.812957628E0
2.594537921E1,-7.532801628E-1,-4.642647266E0,3.204594135E0,5.691311643E0
2.596219166E1,-1.709415913E0,-2.546725273E0,3.392882347E0,4.573790879E0
2.597899352E1,-2.189017773E0,-5.771975517E-1,3.184283495E0,3.906995930E0
2.599580942E1,-2.152864456E0,3.602523804E-1,2.525892735E0,3.338374043E0
2.601261413E1,-2.017672062E0,6.152415276E-1,1.599610209E0,2.647314773E0
2.602942340E1,-1.981225014E0,4.392485619E-1,6.224178672E-1,2.122638890E0
2.604622947E1,-1.799355984E0,-3.190145493E-1,-5.859005451E-2,1.828355828E0
2.606303805E1,-1.688997746E0,-1.052044868E0,-3.344744444E-1,2.017767317E0
2.607984687E1,-1.725524426E0,-1.444812298E0,-2.204978466E-1,2.261312986E0
2.609665757E1,-1.800633907E0,-1.257197857E0,-1.946043968E-2,2.196180236E0
2.611346212E1,-1.795101166E0,-4.592080116E-1,1.864463091E-1,1.862262715E0
2.613027204E1,-1.603972435E0,2.627992630E-1,5.161046982E-2,1.626177932E0
2.614707764E1,-1.217606544E0,4.065070152E-1,-4.173381925E-1,1.349809178E0
2.616388967E1,-2.170596123E-1,-9.815549850E-2,-7.276574969E-1,7.656597221E-1
2.618069509E1,4.333295822E-1,-3.403353691E-1,-7.648018599E-1,9.426158152E-1
2.619750535E1,9.844770432E-1,8.597373962E-4,-9.903895855E-1,1.396448108E0
2.621431160E1,1.204246521E0,6.264185905E-1,-1.281912088E0,1.867058793E0
2.623112161E1,1.228460789E0,1.325287342E0,-1.777595758E0,2.534827238E0
2.624792890E1,1.185892105E0,1.884305954E0,-2.204205990E0,3.132965537E0
2.626473585E1,1.007431507E0,2.427449226E0,-2.754835129E0,3.807432806E0
2.628153506E1,7.257442474E-1,2.924941063E0,-3.391419411E0,4.536927435E0
2.629835323E1,4.387569427E-1,3.023394585E0,-3.829138756E0,4.898543261E0
2.631515541E1,3.470616341E-1,2.761698246E0,-3.618813038E0,4.565439386E0
2.633196896E1,3.058924675E-1,2.060817242E0,-2.916576385E0,3.584265018E0
2.634877326E1,2.054643631E-1,1.734296799E0,-2.353808880E0,2.930941356E0
2.636558446E1,3.497138023E-1,1.480009079E0,-1.932133079E0,2.458834043E0
2.638238364E1,8.631477356E-1,7.187585831E-1,-1.171200752E0,1.622759722E0
2.639920067E1,1.545855522E0,-2.455816269E-1,-3.297917247E-1,1.599606893E0
2.641601180E1,2.131872654E0,-1.251636505E0,6.397051811E-1,2.553565678E0
2.643281869E1,2.526320934E0,-1.614807129E0,1.463740349E0,3.336530434E0
2.644962799E1,2.927073956E0,-1.680053711E0,2.118072748E0,3.984541954E0
2.646643466E1,3.887684345E0,-2.490045547E0,2.440657616E0,5.222185940E0
2.648324464E1,4.901077747E0,-3.498095512E0,2.424247742E0,6.491087152E0
2.650004686E1,5.489836216E0,-3.691770554E0,2.064257145E0,6.930269047E0
2.651686420E1,5.355615616E0,-2.121487617E0,1.478954077E0,5.947321540E0
2.653366718E1,5.120377541E0,4.131116867E-1,9.330798388E-1,5.221069374E0
2.655046091E1,5.012839317E0,2.752565384E0,6.370273829E-1,5.754213943E0
2.656728620E1,5.206566811E0,4.277916431E0,2.989763021E-1,6.745242307E0
2.658409211E1,5.436700821E0,4.502851963E0,3.764297962E-1,7.069306261E0
2.660090258E1,5.238683701E0,3.729380131E0,4.442338943E-1,6.445884488E0
2.661769881E1,4.629211426E0,2.538571358E0,4.071346521E-1,5.295252741E0
2.663451525E1,3.671367168E0,1.544731617E0,6.176820993E-1,4.030715052E0
2.665132647E1,2.700172424E0,8.624982834E-1,9.692447782E-1,2.995708572E0
2.666812018E1,1.706959248E0,5.979237556E-1,1.463704348E0,2.326725834E0
2.668493327E1,8.314013481E-1,7.004580498E-1,1.917930603E0,2.204615041E0
2.670175187E1,2.434906960E-1,7.317910194E-1,2.149943829E0,2.284089377E0
2.671855612E1,-1.505913734E-1,1.947970390E-1,2.256575108E0,2.269968032E0
2.673536742E1,-7.536950111E-1,2.028703690E-2,2.210617542E0,2.335657863E0
2.675217439E1,-1.216334820E0,-5.255126953E-2,1.989333391E0,2.332312023E0
2.676899402E1,-1.486577988E0,-4.021778107E-1,1.744974375E0,2.327358304E0
2.678579143E1,-1.693049431E0,-6.279325485E-1,1.555697203E0,2.383465848E0
2.680257830E1,-1.790503502E0,-6.878504753E-1,1.347369432E0,2.344023348E0
2.681940655E1,-1.824217796E0,-7.905926704E-1,1.265611053E0,2.356815367E0
2.683620355E1,-1.796085358E0,-1.106067181E0,1.351664901E0,2.505255521E0
2.685302303E1,-1.997006416E0,-1.280558586E0,1.593045473E0,2.857561688E0
2.686981363E1,-2.372804642E0,-1.496349812E0,1.864754677E0,3.368467698E0
2.688664086E1,-2.673890114E0,-2.157321453E0,2.211939573E0,4.086122963E0
2.690344372E1,-2.991225719E0,-3.090841770E0,2.672037601E0,5.063646818E0
2.692026253E1,-3.298862457E0,-4.450500488E0,3.054662228E0,6.326168622E0
2.693706297E1,-3.487897396E0,-5.701155186E0,3.376903534E0,7.488129017E0
2.695386754E1,-3.827294827E0,-6.410925865E0,3.252024651E0,8.143943791E0
2.697068692E1,-4.001146317E0,-7.106141090E0,3.101239681E0,8.724912642E0
2.698748482E1,-3.728151321E0,-7.466792583E0,3.155173779E0,8.922288122E0
2.700430173E1,-3.240637302E0,-6.938882828E0,3.187279224E0,8.295093362E0
2.702110560E1,-2.241296768E0,-6.925006866E0,3.092246771E0,7.908294468E0
2.703792047E1,-1.151732445E0,-7.582318306E0,2.724322081E0,8.138794095E0
2.705472510E1,-4.677186012E-1,-7.641972542E0,2.802594662E0,8.153100138E0
2.707152826E1,1.158661842E-1,-7.017434120E0,3.465226889E0,7.827234760E0
2.708833802E1,2.997107506E-1,-4.991431713E0,3.934494495E0,6.362740291E0
2.710514875E1,7.327146530E-1,-3.056652546E0,3.955687523E0,5.052470616E0
2.712195955E1,1.054333687E0,-1.501018524E0,3.581304550E0,4.023731901E0
2.713876225E1,1.049065590E0,-3.778853416E-1,2.830901623E0,3.042587705E0
2.715557259E1,9.884524345E-1,-8.468627930E-3,1.796617746E0,2.050596318E0
2.717237740E1,6.738739014E-1,3.435168266E-1,7.665970325E-1,1.076931221E0
2.718919104E1,1.803288460E-1,7.931399345E-1,5.576077104E-2,8.152905691E-1
2.720599513E1,-1.718392372E-1,1.378097534E0,-3.743005991E-1,1.438326276E0
2.722280390E1,-8.419179916E-2,2.118869781E0,-4.219563603E-1,2.162115765E0
2.723961416E1,5.498285294E-1,2.708155155E0,8.850398660E-2,2.764823450E0
2.725643532E1,9.307265282E-1,3.481548309E0,-8.017373085E-2,3.604699478E0
2.727322757E1,1.343337059E0,3.935668945E0,-7.480112910E-1,4.225347961E0
2.729003677E1,1.628004551E0,4.061452866E0,-1.491632938E0,4.622852693E0
2.730684584E1,1.968411922E0,3.654215813E0,-2.416065454E0,4.802635837E0
2.732367025E1,2.368376255E0,2.744536400E0,-2.757678032E0,4.554829773E0
2.734046129E1,2.824112415E0,1.875010490E0,-2.864041328E0,4.437793146E0
2.735726281E1,3.449861050E0,1.879826069E0,-2.967220306E0,4.923381324E0
2.737407379E1,4.685878754E0,2.981266975E0,-3.218944550E0,6.419269155E0
2.739087708E1,5.365983009E0,4.682308674E0,-3.799800873E0,8.071943685E0
2.740769319E1,5.984714508E0,4.748534203E0,-3.592160940E0,8.442097194E0
2.742449983E1,6.051136971E0,4.091657162E0,-2.811208248E0,7.826928438E0
2.744130996E1,5.935798645E0,3.408932686E0,-1.370200872E0,6.980829323E0
2.745812216E1,6.443626404E0,1.640622139E0,2.262297869E-1,6.653055099E0
2.747492855E1,6.472733498E0,4.731540680E-1,1.278125286E0,6.614662346E0
2.749173608E1,6.096318722E0,3.468437195E-1,1.631586909E0,6.320401757E0
2.750854550E1,5.716383457E0,3.539123535E-1,1.029036403E0,5.819038555E0
2.752535066E1,5.646374226E0,-5.296173096E-1,1.420946121E-1,5.672938151E0
2.754214831E1,5.637533665E0,-1.915159225E0,-9.907796383E-1,6.035831755E0
2.755896618E1,5.428164005E0,-3.047397614E0,-1.814864993E0,6.484237166E0
2.757577690E1,4.751741409E0,-2.006718636E0,-2.579367161E0,5.767070405E0
2.759258344E1,4.071776390E0,1.296482086E-1,-3.294847250E0,5.239483756E0
2.760939356E1,3.527732849E0,1.659348488E0,-3.631634951E0,5.327955412E0
2.762620300E1,3.298930645E0,1.294205666E0,-2.988285065E0,4.635489115E0
2.764300746E1,3.425039291E0,-3.606605530E-1,-2.102793217E0,4.035183948E0
2.765981629E1,3.365807533E0,-2.032368183E0,-1.711347103E0,4.288110270E0
2.767662853E1,2.964524269E0,-3.184381008E0,-8.192936182E-1,4.427180658E0
2.769343032E1,2.112659454E0,-3.675235748E0,3.689641953E-1,4.255211200E0
2.771023704E1,1.277081490E0,-3.424942493E0,1.440924525E0,3.929049720E0
2.772705222E1,1.595826149E-1,-2.419023991E0,2.156010628E0,3.244306629E0
2.774385724E1,-9.436564445E-1,-1.439310551E0,2.461675882E0,3.003656188E0
2.776066721E1,-1.733566284E0,-1.250535011E0,2.293133259E0,3.134892346E0
2.777746180E1,-2.355174541E0,-1.586380005E0,1.675240159E0,3.296949838E0
2.779428618E1,-2.934749126E0,-2.323011398E0,1.162185907E0,3.919159409E0
2.781106778E1,-3.546862602E0,-3.159814835E0,9.165723920E-1,4.837847565E0
2.782789747E1,-3.926718235E0,-3.959257603E0,7.718553543E-1,5.629440252E0
2.784469843E1,-4.073062897E0,-4.630868912E0,6.084510088E-1,6.197176847E0
2.786151560E1,-4.484304905E0,-4.697043419E0,6.141482592E-1,6.522912344E0
2.787832409E1,-5.154269218E0,-4.264492989E0,6.726564169E-1,6.723455829E0
2.789513251E1,-5.855425835E0,-3.636413574E0,6.934078932E-1,6.927505315E0
2.791193295E1,-6.341375828E0,-3.339804649E0,6.938434243E-1,7.200608390E0
2.792874795E1,-6.611128807E0,-3.295399666E0,6.650785208E-1,7.416806085E0
2.794555811E1,-6.585100651E0,-3.678134203E0,5.164204240E-1,7.560351305E0
2.796235908E1,-6.192605019E0,-4.648532867E0,6.354568005E-1,7.769235489E0
