"Time (s)","Linear Acceleration x (m/s^2)","Linear Acceleration y (m/s^2)","Linear Acceleration z (m/s^2)","Absolute acceleration (m/s^2)"
2.130260800E-2,4.629299939E-1,1.878270060E-1,-2.031790018E-1,5.393188947E-1
2.622499300E-2,4.629299939E-1,1.878270060E-1,-2.031790018E-1,5.393188947E-1
3.114723700E-2,4.629299939E-1,1.878270060E-1,-2.031790018E-1,5.393188947E-1
3.606962000E-2,4.629299939E-1,1.878270060E-1,-2.031790018E-1,5.393188947E-1
4.099185300E-2,4.629299939E-1,1.878270060E-1,-2.031790018E-1,5.393188947E-1
4.591398800E-2,4.629299939E-1,1.878270060E-1,-2.031790018E-1,5.393188947E-1
5.083644700E-2,4.629299939E-1,1.878270060E-1,-2.031790018E-1,5.393188947E-1
5.575883200E-2,4.629299939E-1,1.878270060E-1,-2.031790018E-1,5.393188947E-1
6.068099300E-2,4.629299939E-1,1.878270060E-1,-2.031790018E-1,5.393188947E-1
6.560345200E-2,4.629299939E-1,1.878270060E-1,-2.031790018E-1,5.393188947E-1
7.052568500E-2,4.629299939E-1,1.878270060E-1,-2.031790018E-1,5.393188947E-1
7.544813500E-2,4.629299939E-1,1.878270060E-1,-2.031790018E-1,5.393188947E-1
8.037052100E-2,4.629299939E-1,1.878270060E-1,-2.031790018E-1,5.393188947E-1
8.529242000E-2,4.629299939E-1,1.878270060E-1,-2.031790018E-1,5.393188947E-1
9.021480300E-2,4.629299939E-1,1.878270060E-1,-2.031790018E-1,5.393188947E-1
9.513725400E-2,4.629299939E-1,1.878270060E-1,-2.031790018E-1,5.393188947E-1
1.000594100E-1,-1.344719976E-1,1.119935989E0,-1.464579999E-1,1.137448585E0
1.049816220E-1,1.698189974E-1,1.058604002E0,-9.510000050E-2,1.076347962E0
1.099040050E-1,4.610809982E-1,9.927409887E-1,-9.097199887E-2,1.098365268E0
1.148262380E-1,6.886640191E-1,1.090057969E0,-3.579640090E-1,1.338141524E0
1.197485860E-1,9.707000256E-1,9.146760106E-1,-5.173580050E-1,1.430576824E0
1.246710480E-1,1.138424039E0,7.378420234E-1,-9.609299898E-1,1.662470027E0
1.295932800E-1,1.235383034E0,5.760400295E-1,-1.439254999E0,1.982283609E0
1.345156630E-1,1.281152010E0,3.881630003E-1,-1.844784975E0,2.279309674E0
1.394378960E-1,1.359424949E0,1.613930017E-1,-2.047050953E0,2.462620859E0
1.443602790E-1,1.505813003E0,-3.079199977E-2,-2.065690994E0,2.556462444E0
1.492824340E-1,1.513453960E0,-2.168750018E-1,-1.926159978E0,2.459201073E0
1.542046630E-1,1.468871951E0,-3.633140028E-1,-1.683853984E0,2.263834383E0
1.591271250E-1,1.253649950E0,-5.125100017E-1,-1.442999959E0,1.979028444E0
1.640492810E-1,8.943250179E-1,-5.467550159E-1,-1.273651004E0,1.649528770E0
1.689716630E-1,6.384440064E-1,-5.166299939E-1,-1.176534057E0,1.434834376E0
1.738939110E-1,4.156889915E-1,-4.486089945E-1,-1.092913985E0,1.252401033E0
1.788162940E-1,1.875610054E-1,-3.378350139E-1,-9.931899905E-1,1.065710085E0
1.837385260E-1,-3.342000069E-3,-2.198339999E-1,-9.872549772E-1,1.011439838E0
1.886609620E-1,-1.843550056E-1,-1.237429976E-1,-1.096295953E0,1.118554386E0
1.935833490E-1,-3.172180057E-1,-5.418200046E-2,-1.283663034E0,1.323387222E0
1.985055790E-1,-4.572589993E-1,1.536700036E-2,-1.541185975E0,1.607661702E0
2.034279410E-1,-4.826569855E-1,2.518600039E-2,-1.868077993E0,1.929587388E0
2.083501740E-1,-4.891430140E-1,1.670680046E-1,-2.266081095E0,2.324284005E0
2.132722860E-1,-4.571200013E-1,1.265999954E-2,-2.289796114E0,2.335012894E0
2.181946680E-1,-3.478550017E-1,-3.781900182E-2,-2.362446070E0,2.388217915E0
2.231171490E-1,-3.657769859E-1,1.088389978E-1,-2.375929117E0,2.406382742E0
2.280393820E-1,-5.615820289E-1,2.888770103E-1,-2.493315935E0,2.572051449E0
2.329617640E-1,-5.338050127E-1,4.911710024E-1,-2.467109919E0,2.571541968E0
2.378839830E-1,-3.936980069E-1,5.759130120E-1,-2.225058079E0,2.331857065E0
2.428063660E-1,-2.516570091E-1,7.201150060E-1,-1.911198974E0,2.057809124E0
2.477285210E-1,-1.094070002E-1,7.632820010E-1,-1.521850944E0,1.706047948E0
2.526509710E-1,8.074899763E-2,8.467130065E-1,-1.231559038E0,1.496723415E0
2.575732040E-1,3.002859950E-1,8.772810102E-1,-1.042611003E0,1.395288985E0
2.624955860E-1,4.998340011E-1,8.672289848E-1,-9.527559876E-1,1.381905971E0
2.674178050E-1,8.273010254E-1,7.805629969E-1,-1.011958003E0,1.522420631E0
2.723401880E-1,1.144530058E0,6.863350272E-1,-1.009269953E0,1.673209688E0
2.772624110E-1,1.495038033E0,5.201870203E-1,-1.205132008E0,1.989491495E0
2.821847930E-1,1.631536961E0,3.735119998E-1,-1.453992963E0,2.217097112E0
2.871070210E-1,1.667006016E0,2.412859946E-1,-1.644582033E0,2.354098140E0
2.920291750E-1,1.537258983E0,1.330150068E-1,-1.751273036E0,2.334055573E0
2.969515580E-1,1.333060026E0,2.931500040E-2,-1.779360056E0,2.223517621E0
3.018737900E-1,1.236868024E0,-8.952700347E-2,-1.721557975E0,2.121702018E0
3.067962500E-1,1.153970003E0,-1.590339988E-1,-1.648839951E0,2.018814445E0
3.117184010E-1,1.159780979E0,-2.153719962E-1,-1.517771006E0,1.922265809E0
3.166408600E-1,1.215180993E0,-2.800999880E-1,-1.373131037E0,1.854888054E0
3.215632450E-1,1.350435019E0,-3.174229860E-1,-1.200163007E0,1.834345478E0
3.264854970E-1,1.410670042E0,-3.315230012E-1,-1.122091055E0,1.832753612E0
3.314078790E-1,1.867866993E0,-3.784930110E-1,-9.129819870E-1,2.113225064E0
3.363300980E-1,2.036541939E0,-2.488889992E-1,-8.938590288E-1,2.237952807E0
3.412522520E-1,2.306807041E0,-3.043250144E-1,-7.751340270E-1,2.452509979E0
3.461746350E-1,2.434248924E0,-4.480800033E-1,-7.951779962E-1,2.599740672E0
3.510968470E-1,2.498367071E0,-4.739950001E-1,-9.559940100E-1,2.716695388E0
3.560192300E-1,2.585519075E0,-5.329290032E-1,-1.212322950E0,2.904935309E0
3.609414630E-1,2.700799942E0,-6.464040279E-1,-1.569136977E0,3.189725591E0
3.658638450E-1,2.770226955E0,-7.333199978E-1,-1.872122049E0,3.422974813E0
3.707860780E-1,2.722023010E0,-7.144190073E-1,-2.326358080E0,3.651266315E0
3.757084420E-1,2.987195015E0,-7.752239704E-1,-2.624628067E0,4.051293467E0
3.806309030E-1,3.018546104E0,-8.697569966E-1,-2.883644104E0,4.264211666E0
3.855531360E-1,3.165544033E0,-8.116539717E-1,-3.166825056E0,4.550629861E0
3.904755330E-1,3.357989073E0,-7.470160127E-1,-3.394453049E0,4.832849577E0
3.953977660E-1,3.576939106E0,-7.498850226E-1,-3.585088968E0,5.119539415E0
4.003201480E-1,3.770325899E0,-7.768300176E-1,-3.783483982E0,5.397552529E0
4.052423280E-1,4.010074139E0,-8.636209965E-1,-3.991353989E0,5.723411787E0
4.101645570E-1,4.227357864E0,-9.669479728E-1,-4.155611038E0,6.006217278E0
4.150869560E-1,4.315442085E0,-1.043354034E0,-4.280489922E0,6.167189149E0
4.200091890E-1,4.421075821E0,-1.212414980E0,-4.389853001E0,6.347178181E0
4.249315720E-1,4.605608940E0,-1.314314961E0,-4.257040977E0,6.407921302E0
4.298538050E-1,4.789250851E0,-1.274873972E0,-4.012419224E0,6.376655501E0
4.347761870E-1,4.868980885E0,-1.170367956E0,-3.749535084E0,6.255857204E0
4.396984200E-1,4.883115768E0,-1.103459954E0,-3.470858097E0,6.091740261E0
4.446208130E-1,4.571164131E0,-8.772199750E-1,-3.479343891E0,5.811272693E0
4.495432740E-1,4.277716160E0,-7.136260271E-1,-3.529221058E0,5.591378983E0
4.544655070E-1,4.051163197E0,-5.595330000E-1,-3.662441015E0,5.489851966E0
4.593878900E-1,3.979801893E0,-5.069299936E-1,-3.836138010E0,5.550833808E0
4.643101220E-1,4.075323105E0,-4.248349965E-1,-3.639739037E0,5.480551381E0
4.692322800E-1,4.115378857E0,-2.202499956E-1,-3.931140900E0,5.695500151E0
4.741546630E-1,4.101515770E0,-1.310559958E-1,-3.758516073E0,5.564714760E0
4.790768870E-1,4.031730175E0,-7.607100159E-2,-4.005301952E0,5.683579746E0
4.839992690E-1,4.090575218E0,-4.248810112E-1,-4.319012165E0,5.963823905E0
4.889215260E-1,3.594046116E0,-1.191892028E0,-5.111170769E0,6.360962248E0
4.938439090E-1,2.659009933E0,-1.965374947E0,-5.692689896E0,6.583293306E0
4.987661410E-1,1.605437040E0,-2.697792053E0,-5.364590168E0,6.215652639E0
5.036885240E-1,1.164590955E0,-3.389512062E0,-3.980863094E0,5.356522667E0
5.086109860E-1,9.195089936E-1,-4.009136200E0,-1.402827024E0,4.345870859E0
5.135332180E-1,1.022284985E0,-4.431970119E0,2.307531118E0,5.100208387E0
5.184556100E-1,1.505203009E0,-4.676803112E0,6.146403790E0,7.868697668E0
5.233778430E-1,2.257145882E0,-4.853203773E0,9.222323418E0,1.066299881E1
5.283002250E-1,2.779774904E0,-5.276164055E0,1.059976101E1,1.216223619E1
5.332224580E-1,2.593028069E0,-5.753245831E0,1.070028114E1,1.242254598E1
5.381446120E-1,1.957757950E0,-6.104412079E0,1.007964706E1,1.194554092E1
5.430670670E-1,1.185758948E0,-6.511744022E0,9.079615593E0,1.123602482E1
5.479894510E-1,4.306400120E-1,-6.968090057E0,8.604443550E0,1.108044127E1
5.529116840E-1,-2.046429962E-1,-7.423386097E0,7.710920811E0,1.070545840E1
5.578338530E-1,-7.242169976E-1,-7.798536777E0,6.263134003E0,1.002838540E1
5.627562360E-1,-8.963090181E-1,-8.145269394E0,4.598130226E0,9.396360196E0
5.676784680E-1,-6.813709736E-1,-8.451702118E0,2.721442938E0,8.905155066E0
5.726009280E-1,-2.411970049E-1,-8.451118469E0,8.132629991E-1,8.493584407E0
5.775233130E-1,1.961210072E-1,-8.022876740E0,-3.268249929E-1,8.031925622E0
5.824455350E-1,4.413650036E-1,-7.417726994E0,-2.058922052E0,7.710812981E0
5.873679180E-1,5.576270223E-1,-6.864652157E0,-3.508260012E0,7.729313387E0
5.922901420E-1,4.186210036E-1,-6.302900791E0,-4.725164890E0,7.888535046E0
5.972125240E-1,-2.286599949E-2,-5.604736805E0,-5.357572079E0,7.753526687E0
6.021347320E-1,-3.105170131E-1,-4.782299042E0,-4.479664803E0,6.560045860E0
6.070568860E-1,-4.884969890E-1,-3.957211018E0,-2.339010000E0,4.622674132E0
6.119793550E-1,-9.173340201E-1,-3.431837082E0,-5.748999864E-2,3.552789406E0
6.169015110E-1,-1.566522956E0,-3.010783911E0,2.365705967E0,4.137073682E0
6.218238940E-1,-2.356736898E0,-2.480005980E0,4.085289001E0,5.328623152E0
6.267461270E-1,-3.203870058E0,-1.690026045E0,4.945960045E0,6.130537672E0
6.316685090E-1,-4.080846786E0,-7.931280136E-1,5.215505123E0,6.669621896E0
6.365909710E-1,-4.844460011E0,1.399759948E-1,5.247571945E0,7.143206380E0
6.415132040E-1,-5.424817085E0,1.098536968E0,5.148096085E0,7.558989164E0
6.464355860E-1,-5.815227985E0,1.985712051E0,5.003927231E0,7.924595675E0
6.513578190E-1,-6.002491951E0,2.328032970E0,4.605639935E0,7.915905908E0
6.562802070E-1,-5.278632164E0,2.062532902E0,4.189208031E0,7.047514698E0
6.612023630E-1,-4.425168991E0,1.834501982E0,3.242650032E0,5.784660522E0
6.661245910E-1,-4.002837181E0,1.698724031E0,2.109486103E0,4.833042567E0
6.710469760E-1,-3.477634907E0,1.788926005E0,2.382729053E0,4.579475793E0
6.759691640E-1,-3.543191910E0,1.926700950E0,2.446681023E0,4.717269707E0
6.808916230E-1,-3.860075951E0,2.234857082E0,2.203013897E0,4.974740471E0
6.858138560E-1,-4.099228859E0,2.641741991E0,2.410739899E0,5.440050077E0
6.907362540E-1,-4.105998993E0,3.044192076E0,3.069195032E0,5.962071055E0
6.956584870E-1,-4.062607765E0,3.341034889E0,3.609867096E0,6.379532619E0
7.005808690E-1,-4.307056904E0,3.502971888E0,3.442253113E0,6.532278141E0
7.055031120E-1,-4.459687233E0,3.752027035E0,2.997404099E0,6.553697309E0
7.104255720E-1,-4.410147190E0,4.001942158E0,2.821760893E0,6.589937314E0
7.153479580E-1,-4.272771835E0,3.999281883E0,3.329663992E0,6.733312486E0
7.202701600E-1,-4.033386230E0,3.916127920E0,3.987642050E0,6.892427112E0
7.251923140E-1,-3.726140976E0,3.809947014E0,4.699088097E0,7.105015958E0
7.301146770E-1,-3.332487106E0,3.534603119E0,5.537655830E0,7.366445657E0
7.350369100E-1,-3.094547033E0,3.298528910E0,5.892230034E0,7.427980148E0
7.399593070E-1,-3.034199953E0,3.008533955E0,5.860284805E0,7.252626001E0
7.448815400E-1,-3.170855999E0,2.746364117E0,5.455284119E0,6.881639953E0
7.498039220E-1,-3.396898985E0,2.529182911E0,4.803307056E0,6.403705770E0
7.547261600E-1,-3.618673086E0,2.333545923E0,4.169651985E0,5.993849277E0
7.596485430E-1,-3.848673105E0,2.235913038E0,3.511358976E0,5.669323914E0
7.645710040E-1,-4.094750881E0,2.199100971E0,3.147479057E0,5.613346086E0
7.694932320E-1,-4.373816013E0,2.199409962E0,3.177697897E0,5.836560170E0
7.744156150E-1,-4.690453053E0,2.208981991E0,3.382251024E0,6.190280548E0
7.793378470E-1,-4.976993084E0,2.206749916E0,3.884321928E0,6.687911646E0
7.842602300E-1,-5.176437855E0,2.184300900E0,4.572039127E0,7.243633140E0
7.891823860E-1,-5.439122200E0,2.285778999E0,5.075844765E0,7.782868110E0
7.941046200E-1,-5.691061974E0,2.375221968E0,5.406036854E0,8.200920695E0
7.990270040E-1,-5.978078842E0,2.532705069E0,5.359454155E0,8.418774878E0
8.039492420E-1,-6.243631840E0,2.684820890E0,4.953310966E0,8.409904357E0
8.088716250E-1,-6.299430847E0,2.863200903E0,4.293889046E0,8.143600650E0
8.137938580E-1,-6.313094139E0,3.184799910E0,3.612121105E0,7.940121344E0
8.187162450E-1,-6.321471214E0,3.537187099E0,3.076798916E0,7.870157715E0
8.236384780E-1,-5.879150867E0,3.681073904E0,2.624887943E0,7.416519178E0
8.285609370E-1,-4.703804970E0,3.462276936E0,1.646697998E0,6.068340553E0
8.334833290E-1,-3.761255980E0,3.111289024E0,6.315659881E-1,4.921995686E0
8.384054830E-1,-2.743418932E0,2.713341951E0,3.256050050E-1,3.872284933E0
8.433277140E-1,-2.043668985E0,2.317759991E0,-3.799099922E-1,3.113346415E0
8.482501630E-1,-1.612382054E0,1.997884035E0,-1.208276033E0,2.837472023E0
8.531723190E-1,-1.247272968E0,1.681697011E0,-2.363457918E0,3.157487613E0
8.580947690E-1,-8.264269829E-1,1.290470958E0,-3.590205908E0,3.903572122E0
8.630171530E-1,-2.073280066E-1,7.785770297E-1,-4.851230145E0,4.917682483E0
8.679393860E-1,6.496850252E-1,2.465730011E-1,-5.786213875E0,5.827792025E0
8.728617840E-1,1.687728047E0,-4.632019997E-1,-6.304374218E0,6.542791173E0
8.777839400E-1,2.743017912E0,-1.252161980E0,-6.455348969E0,7.124856995E0
8.827060930E-1,3.512141943E0,-1.821264029E0,-6.309555054E0,7.447323591E0
8.876285330E-1,4.012205124E0,-2.200561047E0,-6.545561790E0,7.986528534E0
8.925509950E-1,4.602392197E0,-2.333734035E0,-6.796907902E0,8.533831818E0
8.974731500E-1,4.858745098E0,-2.280577898E0,-7.298608780E0,9.059698096E0
9.023952370E-1,4.704561234E0,-2.021434069E0,-8.083247185E0,9.568593269E0
9.073176200E-1,4.508647919E0,-1.748906016E0,-8.285337448E0,9.593403720E0
9.122398290E-1,4.414619923E0,-1.669237971E0,-7.618213177E0,8.961718388E0
9.171622110E-1,4.311978817E0,-1.812003970E0,-6.696566105E0,8.168262808E0
9.220844630E-1,4.210775852E0,-1.977756977E0,-5.545670986E0,7.238551141E0
9.270068460E-1,3.940629959E0,-2.206154108E0,-4.079967022E0,6.086198429E0
9.319290730E-1,3.379693985E0,-2.279552937E0,-2.581218004E0,4.825078176E0
9.368512270E-1,2.636450052E0,-2.457165003E0,-1.355921984E0,3.850591273E0
9.417736100E-1,1.879655004E0,-2.534961939E0,-5.129520297E-1,3.197226102E0
9.466960810E-1,9.341970086E-1,-2.750343084E0,1.905280054E-1,2.910912581E0
9.516182370E-1,1.462090015E-1,-2.950407028E0,2.341970056E-1,2.963296634E0
9.565404680E-1,-3.805510104E-1,-3.208520889E0,1.589399949E-2,3.231049054E0
9.614629230E-1,-6.993190050E-1,-3.187319040E0,-1.848659962E-1,3.268367356E0
9.663853070E-1,-9.275019765E-1,-2.935537100E0,-9.947249889E-1,3.235292226E0
9.713075400E-1,-1.154696941E0,-2.291322947E0,-1.952260017E0,3.224097555E0
9.762299280E-1,-9.542279840E-1,-1.637297988E0,-2.447010994E0,3.095021575E0
9.811520840E-1,-5.283120275E-1,-1.063251972E0,-2.203768015E0,2.503240264E0
9.860745430E-1,-2.478400022E-1,-5.076259971E-1,-1.997395039E0,2.075739810E0
9.909967760E-1,-2.871850133E-1,1.790159941E-1,-1.970533967E0,1.999381423E0
9.959189200E-1,-5.370159745E-1,8.500450253E-1,-1.896111012E0,2.146205878E0
1.000841379E0,-7.641159892E-1,1.271502972E0,-1.584772944E0,2.170736819E0
1.005763535E0,-1.303154945E0,1.402261972E0,-1.003064036E0,2.161177668E0
1.010685995E0,-1.788257957E0,1.185454965E0,-3.809230030E-1,2.179053080E0
1.015608379E0,-1.794587970E0,7.120079994E-1,6.954439878E-1,2.052107140E0
1.020530607E0,-1.503129959E0,2.035939991E-1,2.038955927E0,2.541297201E0
1.025452990E0,-1.260028958E0,-2.571029961E-1,3.386754036E0,3.622689309E0
1.030375222E0,-9.889180064E-1,-7.852579951E-1,4.817740917E0,4.980483560E0
1.035297586E0,-6.785429716E-1,-1.444301009E0,6.288819790E0,6.488118396E0
1.040219742E0,-6.727150083E-1,-2.347189903E0,7.448069096E0,7.838085173E0
1.045142212E0,-9.590889812E-1,-3.408348083E0,8.365059853E0,9.083551875E0
1.050064367E0,-1.650167942E0,-4.461056232E0,8.808386803E0,1.001058215E1
1.054986827E0,-2.622355938E0,-5.360318184E0,9.132895470E0,1.090960775E1
1.059909069E0,-3.645479918E0,-6.306079865E0,8.816287994E0,1.143604394E1
1.064831451E0,-4.434622765E0,-7.454652786E0,7.937301159E0,1.175748599E1
1.069753607E0,-5.118572235E0,-8.873384476E0,6.200356960E0,1.197418725E1
1.074676053E0,-5.658368111E0,-1.024371338E1,3.657905102E0,1.226095686E1
1.079598286E0,-5.820448875E0,-1.148134327E1,6.107040048E-1,1.288688588E1
1.084520745E0,-4.592085838E0,-1.170443153E1,-2.185187101E0,1.276150510E1
1.089442906E0,-1.582890987E0,-1.017652416E1,-3.737962008E0,1.095625611E1
1.094365289E0,9.251739979E-1,-7.309986115E0,-3.691221952E0,8.241174881E0
1.099287750E0,2.059941053E0,-4.839266777E0,-2.616410017E0,5.874305190E0
1.104209805E0,1.902585983E0,-3.060556889E0,-8.600239754E-1,3.704926872E0
1.109132188E0,1.001809001E0,-1.530894041E0,1.080574989E0,2.124829439E0
1.114054406E0,-2.000579983E-1,-4.520019889E-1,3.091953039E0,3.131214237E0
1.118976788E0,-1.565500975E0,4.216420054E-1,4.980023861E0,5.237290610E0
1.123899026E0,-2.699640989E0,1.199030042E0,6.340740204E0,6.995049739E0
1.128821409E0,-3.391275883E0,1.972915053E0,7.032376766E0,8.052792615E0
1.133743641E0,-3.744330883E0,2.647463083E0,7.142286777E0,8.487716710E0
1.138666029E0,-3.711174965E0,3.024141073E0,6.975729942E0,8.460440714E0
1.143588491E0,-3.607311010E0,3.309407949E0,6.643904209E0,8.252656351E0
1.148510723E0,-3.393940926E0,3.556442022E0,6.119204998E0,7.849317465E0
1.153433101E0,-3.211569071E0,3.830425978E0,5.544291019E0,7.464951572E0
1.158355334E0,-3.073870897E0,4.028778076E0,5.064784050E0,7.164619498E0
1.163277716E0,-3.054577112E0,4.254690170E0,4.658939838E0,7.009889457E0
1.168199862E0,-2.997912884E0,4.513088226E0,4.211414814E0,6.862321891E0
1.173122322E0,-2.894121885E0,4.722542763E0,3.758451939E0,6.693602364E0
1.178044555E0,-2.817214966E0,4.894903183E0,3.406153917E0,6.595351533E0
1.182966937E0,-2.599261999E0,4.944729805E0,3.063134909E0,6.370974121E0
1.187889170E0,-2.407378912E0,4.799557209E0,2.869093895E0,6.087932523E0
1.192811334E0,-2.333910942E0,4.436360836E0,2.589207888E0,5.642024037E0
1.197733793E0,-2.247353077E0,3.773529053E0,2.231646061E0,4.926495865E0
1.202656178E0,-1.799288988E0,2.844547033E0,1.673187971E0,3.758782605E0
1.207578315E0,-1.259099960E0,1.939538956E0,1.154276967E0,2.584472748E0
1.212500774E0,-5.996580124E-1,1.198847055E0,1.430840045E-1,1.348071595E0
1.217423007E0,1.396230012E-1,4.511190057E-1,-7.546089888E-1,8.901896796E-1
1.222345360E0,8.456770182E-1,-2.037989944E-1,-9.718869925E-1,1.304326637E0
1.227267593E0,1.520740032E0,-7.818310261E-1,-4.860270023E-1,1.777676080E0
1.232189975E0,1.981155992E0,-1.188668013E0,2.709319890E-1,2.326223302E0
1.237112208E0,2.434365988E0,-1.536134958E0,9.065309763E-1,3.017887802E0
1.242034591E0,2.790155888E0,-1.695315957E0,1.462329984E0,3.577355874E0
1.246956827E0,3.267379045E0,-1.735805988E0,1.802564979E0,4.115583647E0
1.251878981E0,3.946530104E0,-1.587887049E0,2.027471066E0,4.712443534E0
1.256801364E0,4.448576927E0,-1.322790980E0,2.293309927E0,5.176763765E0
1.261723602E0,4.813086987E0,-1.004606962E0,2.286295891E0,5.422378665E0
1.266646061E0,4.509840965E0,-6.206449866E-1,2.337656021E0,5.117470215E0
1.271568217E0,2.492412090E0,7.826499641E-2,2.335191011E0,3.416337293E0
1.276490624E0,6.684790254E-1,7.128390074E-1,1.889282942E0,2.127062221E0
1.281413008E0,-5.691199899E-1,1.138556004E0,1.521458030E0,1.983693997E0
1.286335241E0,-1.180814028E0,1.345298052E0,1.756636977E0,2.507971708E0
1.291257624E0,-1.331647992E0,1.495748997E0,2.431570053E0,3.150092754E0
1.296179857E0,-1.217257977E0,1.642668009E0,2.960118055E0,3.597551121E0
1.301102010E0,-9.797449708E-1,1.805724025E0,3.201251984E0,3.803755213E0
1.306024465E0,-9.577059746E-1,1.913663983E0,3.122715950E0,3.785586544E0
1.310946621E0,-1.127257943E0,1.942852020E0,2.937360048E0,3.697765338E0
1.315869003E0,-1.228435040E0,1.893097997E0,2.827447891E0,3.617642084E0
1.320791236E0,-1.101549983E0,1.842484951E0,2.741261005E0,3.481763211E0
1.325713619E0,-8.391429782E-1,1.737931013E0,2.490664959E0,3.150869258E0
1.330635881E0,-6.591039896E-1,1.802328944E0,1.759179950E0,2.603367394E0
1.335558263E0,-3.675050139E-1,1.475574970E0,1.445348024E0,2.097954323E0
1.340480725E0,-2.115149945E-1,1.201406002E0,8.867740035E-1,1.508138955E0
1.345402963E0,-3.943090141E-1,1.052692056E0,1.694519967E-1,1.136817550E0
1.350325345E0,-4.605630040E-1,7.869380116E-1,-4.146389961E-1,1.001656234E0
1.355247578E0,-3.331460059E-1,2.826060057E-1,-9.210680127E-1,1.019420767E0
1.360169732E0,-3.192000091E-2,-1.077260002E-1,-1.382771015E0,1.387328172E0
1.365092114E0,3.544929922E-1,-3.841150105E-1,-1.703894973E0,1.782264767E0
1.370014337E0,8.526729941E-1,-6.183239818E-1,-1.809566975E0,2.093778502E0
1.374936720E0,1.479990005E0,-7.454959750E-1,-1.701331973E0,2.375008452E0
1.379858987E0,2.062717915E0,-8.681870103E-1,-1.485748053E0,2.686261558E0
1.384781369E0,2.542027950E0,-8.925999999E-1,-1.262191057E0,2.975191948E0
1.389703602E0,2.866208076E0,-8.111479878E-1,-9.793130159E-1,3.135628131E0
1.394625966E0,2.963902950E0,-6.762049794E-1,-7.291759849E-1,3.126287173E0
1.399548198E0,2.952528954E0,-4.588800073E-1,-5.802459717E-1,3.043794256E0
1.404470658E0,2.171197891E0,-1.064599957E-2,-4.362570047E-1,2.214618205E0
1.409393054E0,1.357591987E0,4.133119881E-1,-4.280009866E-1,1.482250872E0
1.414315284E0,8.177549839E-1,7.522749901E-1,-5.349789858E-1,1.233224793E0
1.419237667E0,5.438849926E-1,1.048563957E0,-7.446159720E-1,1.396334560E0
1.424159828E0,3.614239991E-1,1.000234962E0,-7.342000008E-1,1.292341645E0
1.429082057E0,2.000820041E-1,1.059857965E0,-9.518880248E-1,1.438548757E0
1.434004455E0,8.858100325E-2,1.078791022E0,-1.071323991E0,1.522948376E0
1.438926688E0,7.915300131E-2,1.001945019E0,-1.266769052E0,1.617053756E0
1.443849086E0,-1.994800009E-2,8.489789963E-1,-1.436216950E0,1.668497044E0
1.448771318E0,-1.596850008E-1,6.799929738E-1,-1.582566023E0,1.729856919E0
1.453693701E0,-3.160080016E-1,5.907859802E-1,-1.708070993E0,1.834774005E0
1.458615943E0,-4.463579953E-1,5.047090054E-1,-1.845407963E0,1.964560304E0
1.463538326E0,-3.355120122E-1,3.682110012E-1,-1.808974028E0,1.876308792E0
1.468460787E0,-1.353529990E-1,2.695749998E-1,-1.658972025E0,1.686172973E0
1.473383016E0,1.154500023E-1,2.157450020E-1,-1.324707985E0,1.347117610E0
1.478305398E0,4.593299925E-1,2.233179957E-1,-8.948979974E-1,1.030387012E0
1.483227631E0,8.862910271E-1,2.516469955E-1,-4.740340114E-1,1.036120765E0
1.488149833E0,1.331426978E0,3.224279881E-1,-9.926100075E-2,1.373502949E0
1.493072293E0,1.792235017E0,4.190230072E-1,2.564139962E-1,1.858341942E0
1.497994677E0,2.195066929E0,4.962230027E-1,5.578169823E-1,2.318559009E0
1.502916837E0,2.594949961E0,5.303559899E-1,6.628900170E-1,2.730286789E0
1.507839297E0,2.882668972E0,5.314630270E-1,5.012310147E-1,2.973796543E0
1.512761453E0,2.997255087E0,4.759120047E-1,1.471150070E-1,3.038366850E0
1.517683698E0,2.825398922E0,4.191319942E-1,-4.138070047E-1,2.886137026E0
1.522606158E0,2.686976910E0,3.751640022E-1,-1.126896024E0,2.937769152E0
1.527528543E0,2.601140022E0,1.348630041E-1,-1.453912020E0,2.982947805E0
1.532450760E0,2.519073963E0,1.630800031E-2,-1.822008014E0,3.108972947E0
1.537373143E0,2.739379883E0,-4.849399999E-2,-2.089263916E0,3.445515567E0
1.542295376E0,2.952040911E0,-3.903200030E-1,-1.831714034E0,3.496007944E0
1.547217749E0,3.042438030E0,-4.798449874E-1,-1.577903986E0,3.460702439E0
1.552139982E0,3.172597885E0,-4.296039939E-1,-1.345953941E0,3.472971198E0
1.557062126E0,3.432288885E0,-2.708039880E-1,-1.179929972E0,3.639529713E0
1.561984509E0,3.678464890E0,-1.443700045E-1,-1.133525968E0,3.851860299E0
1.566906741E0,3.894520044E0,-3.588829935E-1,-8.399969935E-1,4.000209785E0
1.571829124E0,3.882169962E0,-3.271459937E-1,-8.393719792E-1,3.985324759E0
1.576751371E0,3.882759094E0,-3.770929873E-1,-8.908860087E-1,4.001461631E0
1.581673753E0,3.916536093E0,-2.933099866E-1,-1.086284041E0,4.074959967E0
1.586595986E0,3.987695932E0,-1.905670017E-1,-1.497758985E0,4.263955512E0
1.591518336E0,4.007670879E0,-5.140659809E-1,-1.606186986E0,4.348048567E0
1.596440797E0,3.977835894E0,-7.033910155E-1,-1.947574019E0,4.484526940E0
1.601363030E0,3.959156036E0,-8.018400073E-1,-2.260082006E0,4.628804877E0
1.606285427E0,3.981816053E0,-8.789259791E-1,-2.592598915E0,4.832073995E0
1.611207660E0,4.183113098E0,-9.637389779E-1,-2.879779100E0,5.169173597E0
1.616129818E0,4.433571815E0,-1.032400966E0,-3.068273067E0,5.489691286E0
1.621052201E0,4.702153206E0,-1.085019946E0,-3.095643044E0,5.733281687E0
1.625974458E0,5.048881054E0,-1.198333025E0,-2.906692028E0,5.947777777E0
1.630896840E0,5.130668163E0,-1.288110018E0,-2.555071115E0,5.874637999E0
1.635819088E0,5.371707916E0,-1.586321950E0,-2.439738035E0,6.109335884E0
1.640741471E0,4.851301193E0,-1.780858040E0,-2.242904902E0,5.633577995E0
1.645663704E0,3.967024088E0,-1.677608967E0,-2.211345911E0,4.841663216E0
1.650586081E0,3.518208027E0,-1.740635991E0,-2.188008070E0,4.493882585E0
1.655508314E0,3.401968002E0,-1.829293966E0,-2.072031975E0,4.383265815E0
1.660430774E0,3.482193947E0,-1.850695014E0,-1.954054952E0,4.401031410E0
1.665352929E0,3.696880102E0,-1.764544010E0,-1.923964024E0,4.525723767E0
1.670275389E0,3.786168098E0,-1.637979031E0,-2.026264906E0,4.596062842E0
1.675197545E0,3.648154020E0,-1.692038059E0,-2.308190107E0,4.636783597E0
1.680119903E0,3.122258902E0,-2.142664909E0,-2.849752903E0,4.739262091E0
1.685042136E0,2.350852013E0,-2.618890047E0,-3.645083904E0,5.066727438E0
1.689964509E0,1.577461958E0,-3.087150097E0,-4.073435783E0,5.348996264E0
1.694886742E0,1.045850039E0,-3.791341066E0,-3.383532047E0,5.188097773E0
1.699809124E0,6.340420246E-1,-4.424272060E0,-1.160274982E0,4.617621746E0
1.704731367E0,3.296459913E-1,-4.815333843E0,2.129106045E0,5.275338762E0
1.709653750E0,5.070049763E-1,-4.947465897E0,5.696072102E0,7.561726670E0
1.714575973E0,7.357439995E-1,-5.054984093E0,8.983987808E0,1.033470950E1
1.719498355E0,1.140390038E0,-5.185520172E0,1.053308868E1,1.179559520E1
1.724420817E0,9.950199723E-1,-5.358019829E0,1.016436386E1,1.153311467E1
1.729343078E0,5.975120068E-1,-5.596313000E0,8.985887527E0,1.060292009E1
1.734265461E0,1.880179942E-1,-6.020067215E0,7.862205029E0,9.904081378E0
1.739187694E0,-1.298249960E-1,-6.457021236E0,7.175475121E0,9.653881136E0
1.744109829E0,-4.940119982E-1,-6.856880188E0,6.637276173E0,9.555851022E0
1.749032211E0,-8.198480010E-1,-7.138260841E0,6.067123890E0,9.404090114E0
1.753954444E0,-1.162201047E0,-7.360068798E0,4.929409027E0,8.934226175E0
1.758876827E0,-1.387758970E0,-7.518041134E0,3.645450115E0,8.469718059E0
1.763799070E0,-1.407217979E0,-7.489637852E0,2.244731903E0,7.944416839E0
1.768721452E0,-1.211923003E0,-7.106712818E0,8.579829931E-1,7.260183142E0
1.773643684E0,-8.119890094E-1,-6.528866768E0,4.559449852E-1,6.594946039E0
1.778566067E0,-2.822729945E-1,-5.983123779E0,4.852359891E-1,6.009401149E0
1.783488299E0,5.345899984E-2,-5.433156013E0,4.092899859E-1,5.448812754E0
1.788410774E0,3.985779881E-1,-4.830382824E0,7.424800098E-2,4.847367884E0
1.793333161E0,5.927940011E-1,-4.231241226E0,1.540620029E-1,4.275341173E0
1.798255391E0,5.130950212E-1,-3.726072073E0,6.781219840E-1,3.821875066E0
1.803177750E0,-2.294100076E-2,-3.259793043E0,1.902140975E0,3.774243933E0
1.808099983E0,-8.488109708E-1,-2.799897909E0,3.637372971E0,4.668017833E0
1.813022365E0,-1.904716015E0,-2.098979950E0,4.586342812E0,5.391493329E0
1.817944574E0,-2.890202999E0,-1.330721974E0,4.438985825E0,5.461564748E0
1.822866957E0,-3.484463930E0,-5.411700010E-1,4.707083225E0,5.881410234E0
1.827789103E0,-3.922477007E0,2.260410041E-1,4.731164932E0,6.149865204E0
1.832711331E0,-4.191512108E0,8.951489925E-1,4.712323189E0,6.369933697E0
1.837633716E0,-4.375585079E0,1.470101953E0,4.683532238E0,6.575896803E0
1.842555944E0,-4.270669937E0,1.890833020E0,4.394897938E0,6.413189464E0
1.847478403E0,-4.052352905E0,2.161988020E0,3.636627913E0,5.858397293E0
1.852400559E0,-3.978682041E0,2.292875051E0,2.737782955E0,5.346273683E0
1.857323034E0,-3.868194103E0,2.382678032E0,2.296796083E0,5.090712374E0
1.862245418E0,-3.599922895E0,2.496918917E0,1.877454996E0,4.766433278E0
1.867167651E0,-3.154920101E0,2.514549971E0,2.660115004E0,4.832462543E0
1.872089785E0,-3.009867907E0,2.538851976E0,2.798001051E0,4.830515920E0
1.877012168E0,-2.712601900E0,2.639655113E0,3.654860973E0,5.261558412E0
1.881934420E0,-2.443936110E0,2.775892973E0,4.677158833E0,5.962735970E0
1.886856574E0,-2.425157070E0,2.963669062E0,4.823754787E0,6.159004089E0
1.891779038E0,-2.753871918E0,3.217176914E0,4.531500816E0,6.202300983E0
1.896701194E0,-3.355302095E0,3.545797110E0,4.321037769E0,6.519363213E0
1.901623653E0,-3.264060974E0,3.412548065E0,4.110451221E0,6.260621981E0
1.906545809E0,-3.129295111E0,3.236830950E0,3.786346912E0,5.882685223E0
1.911468192E0,-2.819756031E0,3.033459902E0,3.330867052E0,5.314845094E0
1.916390653E0,-2.432087898E0,2.839077950E0,2.844836950E0,4.697713531E0
1.921312901E0,-2.111504078E0,2.716835976E0,2.756020069E0,4.408547812E0
1.926235284E0,-1.846876979E0,2.580434084E0,3.413254023E0,4.660461099E0
1.931157516E0,-1.753489017E0,2.391376019E0,4.560164928E0,5.439531889E0
1.936079646E0,-1.645467997E0,2.136939049E0,5.658429146E0,6.268324643E0
1.941002106E0,-1.439069033E0,1.849349976E0,6.449922085E0,6.862398262E0
1.945924491E0,-1.519687057E0,1.815078974E0,6.577267170E0,6.990307851E0
1.950846646E0,-1.720829964E0,1.845530987E0,6.131882191E0,6.630778204E0
1.955768877E0,-2.086510897E0,1.967823982E0,5.576067924E0,6.270437979E0
1.960691346E0,-2.522475004E0,2.053237915E0,5.074965000E0,6.027763751E0
1.965613730E0,-3.030440092E0,2.171622038E0,4.858380795E0,6.123999785E0
1.970535963E0,-3.512269020E0,2.181648016E0,4.971871853E0,6.466462051E0
1.975458337E0,-3.959028959E0,2.209646940E0,5.451648235E0,7.090621861E0
1.980380570E0,-4.458015919E0,2.252290964E0,6.049177170E0,7.844696613E0
1.985302961E0,-4.917041779E0,2.298955917E0,6.422694206E0,8.409131883E0
1.990225194E0,-5.205319881E0,2.382369995E0,6.493653774E0,8.656707296E0
1.995147577E0,-5.571537018E0,2.509177923E0,5.657539845E0,8.327409902E0
2.000069804E0,-5.842679977E0,2.629256964E0,5.097443104E0,8.187418867E0
2.004992187E0,-5.953982830E0,2.749825954E0,4.545236111E0,7.979387547E0
2.009914444E0,-5.948988914E0,2.873390913E0,4.392898083E0,7.933750564E0
2.014836826E0,-5.804654121E0,3.030776024E0,4.007970810E0,7.677463304E0
2.019759087E0,-4.984797955E0,3.013287067E0,2.976783037E0,6.541356652E0
2.024681470E0,-4.144524097E0,2.913362026E0,2.240607023E0,5.539411352E0
2.029603703E0,-3.317473888E0,2.747792959E0,1.800472975E0,4.668800925E0
2.034526104E0,-2.717541933E0,2.618696928E0,1.221979022E0,3.966842635E0
2.039448260E0,-2.290874958E0,2.453902006E0,1.265040040E-1,3.359426498E0
2.044370788E0,-1.992130041E0,2.195872068E0,-1.097753048E0,3.161565751E0
2.049293174E0,-1.641736031E0,1.825144053E0,-2.131612062E0,3.251187166E0
2.054215328E0,-1.244904041E0,1.392609954E0,-2.967453957E0,3.506412916E0
2.059137539E0,-7.060620189E-1,8.397020102E-1,-3.333311081E0,3.509214414E0
2.064059921E0,-6.973599643E-2,1.248459965E-1,-3.566575050E0,3.569440744E0
2.068982154E0,3.812420070E-1,-5.090780258E-1,-4.229710102E0,4.277260040E0
2.073904537E0,9.873380065E-1,-1.229467034E0,-5.006186962E0,5.248650629E0
2.078826703E0,1.673241019E0,-2.193986893E0,-5.044321060E0,5.749651203E0
2.083748931E0,2.659497976E0,-3.084994078E0,-4.904905796E0,6.375595565E0
2.088671393E0,3.548212051E0,-3.812165022E0,-5.178359032E0,7.344236732E0
2.093593563E0,4.164603233E0,-4.275374889E0,-5.758328915E0,8.293437311E0
2.098515945E0,4.766084194E0,-4.454772949E0,-6.163886070E0,8.975190921E0
2.103438174E0,5.164182186E0,-4.451022148E0,-6.035416126E0,9.105307443E0
2.108360634E0,5.320456028E0,-4.228602886E0,-5.276951790E0,8.604333496E0
2.113283020E0,5.318249226E0,-4.092944145E0,-4.087729931E0,7.857830654E0
2.118205217E0,4.981401920E0,-3.897509098E0,-2.740942001E0,6.893308735E0
2.123127600E0,4.444825172E0,-3.816937923E0,-1.353572011E0,6.013122576E0
2.128049813E0,3.525075912E0,-3.581857920E0,-3.121860027E-1,5.035208679E0
2.132972195E0,2.593238115E0,-3.586549997E0,7.123199850E-2,4.426431837E0
2.137894428E0,1.635190964E0,-3.420139074E0,2.495950013E-1,3.799144435E0
2.142816840E0,9.425789714E-1,-3.314567089E0,4.399700090E-2,3.446265492E0
2.147738996E0,4.121139944E-1,-2.978944063E0,-4.305390120E-1,3.037977866E0
2.152661224E0,1.895579994E-1,-2.571856022E0,-7.208809853E-1,2.677693976E0
2.157583686E0,3.052229881E-1,-1.912680030E0,-1.312608957E0,2.339753885E0
2.162506070E0,3.414719999E-1,-9.852399826E-1,-1.607054949E0,1.915705238E0
2.167428303E0,3.071210086E-1,-6.871999800E-2,-1.860687017E0,1.887114710E0
2.172350686E0,7.806220055E-1,3.930659890E-1,-1.925382972E0,2.114467114E0
2.177272919E0,1.308261991E0,7.745630145E-1,-2.198584080E0,2.673063646E0
2.182195301E0,1.209717035E0,1.274016976E0,-2.125900030E0,2.757895121E0
2.187117500E0,8.140829802E-1,1.815400958E0,-1.724635005E0,2.633016832E0
2.192039654E0,7.356000133E-3,2.246779919E0,-1.247892976E0,2.570079958E0
2.196961989E0,-1.223188043E0,2.376454115E0,-1.124358058E0,2.899638631E0
2.201884450E0,-2.032859087E0,2.057457924E0,-6.707090139E-1,2.969090729E0
2.206806602E0,-2.152350903E0,1.659234047E0,3.322900087E-2,2.717862432E0
2.211729062E0,-1.848095059E0,1.232329011E0,1.191058993E0,2.520458622E0
2.216651294E0,-1.277518988E0,8.500300050E-1,3.131032944E0,3.486828511E0
2.221573657E0,-7.931929827E-1,5.254150033E-1,5.197473049E0,5.283837822E0
2.226495813E0,-7.061020136E-1,2.524729967E-1,7.793325901E0,7.829319975E0
2.231418038E0,-1.034582973E0,-2.282589972E-1,9.484626770E0,9.543616142E0
2.236340499E0,-1.541090012E0,-1.007233024E0,1.036310291E1,1.052536834E1
2.241262884E0,-2.254698992E0,-1.980556011E0,1.064332485E1,1.105832870E1
2.246185097E0,-3.207353115E0,-3.341315985E0,9.766454697E0,1.080903066E1
2.251107479E0,-4.386582851E0,-4.822281837E0,7.735714912E0,1.011621453E1
2.256029688E0,-5.328045845E0,-6.737244129E0,4.651610851E0,9.768112125E0
2.260952071E0,-5.945157051E0,-8.941984177E0,1.005759001E0,1.078496753E1
2.265874226E0,-6.130405903E0,-1.115010548E1,-2.234338999E0,1.291893956E1
2.270796455E0,-5.944126129E0,-1.274657154E1,-3.592648983E0,1.451602040E1
2.275718840E0,-5.517402172E0,-1.293280792E1,-2.740943909E0,1.432522324E1
2.280641311E0,-4.856663227E0,-1.237657356E1,-1.013998032E0,1.333397701E1
2.285563544E0,-4.345180988E0,-1.114744186E1,8.831859827E-1,1.199691941E1
2.290485688E0,-3.902884007E0,-8.865092278E0,2.816963911E0,1.008749971E1
2.295408071E0,-3.163934946E0,-5.388477802E0,4.860063076E0,7.916210613E0
2.300330532E0,-2.410473108E0,-2.650057077E0,6.450037956E0,7.378087337E0
2.305252784E0,-2.198060036E0,-8.510310054E-1,7.228896141E0,7.603463757E0
2.310175167E0,-2.236072063E0,2.750259936E-1,7.753701210E0,8.074375519E0
2.315097399E0,-2.335050106E0,9.270899892E-1,8.055082321E0,8.437790353E0
2.320019797E0,-2.390135050E0,1.442775011E0,8.100877762E0,8.568463445E0
2.324941953E0,-2.371273994E0,1.806481957E0,8.001696587E0,8.538938206E0
2.329864206E0,-2.305603027E0,2.152017117E0,7.820792198E0,8.432779708E0
2.334786590E0,-2.321671963E0,2.398452044E0,7.517016888E0,8.224857190E0
2.339708818E0,-2.399394035E0,2.562943935E0,7.188635826E0,8.000141148E0
2.344631201E0,-2.588363886E0,2.825277090E0,7.015531063E0,7.993715928E0
2.349553433E0,-2.792392015E0,3.111059904E0,6.871972084E0,8.043640172E0
2.354475816E0,-2.934730053E0,3.345752001E0,6.589210987E0,7.951377137E0
2.359398049E0,-3.048640013E0,3.634610891E0,6.021840096E0,7.665974197E0
2.364320522E0,-3.188834906E0,3.793467045E0,5.188837051E0,7.175171790E0
2.369242909E0,-3.422125101E0,3.796345949E0,4.441115856E0,6.771018596E0
2.374165140E0,-3.765513897E0,3.672106028E0,3.756036997E0,6.463069821E0
2.379087537E0,-3.887070894E0,3.008497000E0,3.691381931E0,6.147086700E0
2.384009693E0,-3.959696054E0,2.065798998E0,3.609366894E0,5.742320761E0
2.388931955E0,-3.682235003E0,9.100880027E-1,3.864618063E0,5.415015010E0
2.393854340E0,-3.199615955E0,-2.625629902E-1,3.879578114E0,5.035633816E0
2.398776569E0,-2.721091986E0,-1.172778010E0,3.853677988E0,4.861129899E0
2.403698951E0,-2.322350025E0,-1.906355977E0,3.718401909E0,4.780587360E0
2.408621184E0,-1.731647015E0,-2.498106956E0,2.807657003E0,4.137883227E0
2.413543571E0,-5.128509998E-1,-3.045370102E0,-4.289110005E-1,3.117893496E0
2.418465803E0,1.502683997E0,-3.552335024E0,-5.170991898E0,6.451069719E0
2.423388186E0,2.302335978E0,-3.688313007E0,-6.591694832E0,7.896508377E0
2.428310663E0,2.214505911E0,-3.484996080E0,-5.474405766E0,6.856992970E0
2.433232895E0,2.104664087E0,-3.066621065E0,-3.965780973E0,5.437020729E0
2.438155278E0,2.278480053E0,-2.310400009E0,-1.585796952E0,3.611671570E0
2.443077545E0,2.611051083E0,-1.511904955E0,3.901360035E-1,3.042310052E0
2.447999927E0,3.086983919E0,-8.418070078E-1,1.935109973E0,3.739352800E0
2.452922160E0,3.316488981E0,-1.710329950E-1,2.643158913E0,4.244365734E0
2.457844558E0,3.310767889E0,5.296440125E-1,3.019992113E0,4.512433840E0
2.462766714E0,2.655595064E0,1.210201979E0,3.192667007E0,4.325493798E0
2.467688942E0,1.486503005E0,1.631134987E0,3.701713085E0,4.309637142E0
2.472611409E0,-3.200039864E-1,1.861513972E0,3.915785074E0,4.347529134E0
2.477533794E0,-1.576689005E0,2.154304981E0,3.892647982E0,4.720136278E0
2.482456026E0,-2.115236044E0,2.264863968E0,3.884793043E0,4.969451610E0
2.487378404E0,-2.240235090E0,2.406294107E0,3.789210081E0,5.016673961E0
2.492300637E0,-1.977784038E0,2.516697884E0,3.318427086E0,4.610570058E0
2.497223028E0,-1.348495007E0,2.436351061E0,2.762111902E0,3.922181464E0
2.502145261E0,-1.016602039E0,2.271401882E0,2.148190975E0,3.287471777E0
2.507067644E0,-7.497969866E-1,2.115633965E0,1.594339013E0,2.753183518E0
2.511989757E0,-5.492219925E-1,2.035451889E0,9.738029838E-1,2.322283669E0
2.516911985E0,-1.623229980E-1,1.712170959E0,7.675790191E-1,1.883362869E0
2.521834355E0,2.082089931E-1,1.414342046E0,4.715699852E-1,1.505354662E0
2.526756588E0,4.738140106E-1,1.429345965E0,1.414420009E-1,1.512460064E0
2.531678961E0,7.756080031E-1,1.426730990E0,-1.057239994E-1,1.627361871E0
2.536601194E0,1.082916975E0,1.377905965E0,-1.961780041E-1,1.763468126E0
2.541523577E0,1.474814057E0,1.213456035E0,-3.997310102E-1,1.951239845E0
2.546445776E0,1.759703994E0,8.575919867E-1,-4.167929888E-1,2.001434125E0
2.551368158E0,1.881301045E0,5.813260078E-1,-5.926679969E-1,2.056328988E0
2.556290620E0,1.885454059E0,3.895350099E-1,-6.319000125E-1,2.026319856E0
2.561212868E0,1.860594034E0,2.653779984E-1,-6.803579926E-1,1.998780288E0
2.566135250E0,1.744827032E0,1.610790044E-1,-6.781439781E-1,1.878895173E0
2.571057483E0,1.604907990E0,1.171929985E-1,-6.302099824E-1,1.728186470E0
2.575979627E0,1.500010014E0,1.573320031E-1,-4.705129862E-1,1.579925907E0
2.580902009E0,1.306442022E0,2.266680002E-1,-2.877709866E-1,1.356827653E0
2.585824237E0,1.127143025E0,2.820580006E-1,-1.224019974E-1,1.168328021E0
2.590746620E0,8.430209756E-1,3.644230068E-1,-1.902100071E-2,9.186132438E-1
2.595668853E0,6.402999759E-1,4.256669879E-1,2.531200089E-2,7.692965235E-1
2.600591274E0,3.450550139E-1,4.565910101E-1,-6.928899884E-2,5.764887497E-1
2.605513507E0,1.570300013E-1,5.070679784E-1,-2.942419946E-1,6.069223240E-1
2.610435890E0,-4.813100025E-2,5.340859890E-1,-5.367010236E-1,7.586912584E-1
2.615358141E0,-2.493389994E-1,5.758739710E-1,-8.126220107E-1,1.026720653E0
2.620280601E0,-3.185380101E-1,5.649579763E-1,-1.031296015E0,1.218283813E0
2.625202738E0,-4.107599854E-1,5.183159709E-1,-1.176126003E0,1.349313747E0
2.630125197E0,-3.785929978E-1,4.547640085E-1,-1.252014041E0,1.384804001E0
2.635047553E0,-3.820120096E-1,4.344159961E-1,-1.310845971E0,1.432818060E0
2.639969709E0,-3.325459957E-1,3.640129864E-1,-1.399394989E0,1.483711100E0
2.644891915E0,-2.658640146E-1,2.460339963E-1,-1.376703024E0,1.423561596E0
2.649814297E0,-6.095900014E-2,1.639519930E-1,-1.276324034E0,1.288254360E0
2.654736530E0,4.204799980E-2,1.533399988E-2,-1.062883019E0,1.063824929E0
2.659658913E0,2.018499933E-2,-3.664999828E-2,-8.318549991E-1,8.329065950E-1
2.664581146E0,1.413699985E-2,-6.392399967E-2,-6.567630172E-1,6.600180249E-1
2.669503327E0,-1.696299948E-2,-1.288779974E-1,-4.353959858E-1,4.543863401E-1
2.674425787E0,-6.659699976E-2,-1.169940010E-1,-1.070690006E-1,1.720073473E-1
2.679347943E0,2.612749934E-1,-9.178099781E-2,2.603220046E-1,3.800735716E-1
2.684270412E0,8.119429946E-1,-1.278180033E-1,5.690019727E-1,9.996760042E-1
2.689192797E0,1.308769941E0,-1.935150027E-1,7.765079737E-1,1.534044148E0
2.694115030E0,1.752442956E0,-2.167219967E-1,8.451719880E-1,1.957636439E0
2.699037484E0,2.098409891E0,-2.473710030E-1,7.705529928E-1,2.249059448E0
2.703959563E0,2.247037888E0,-1.558250040E-1,4.955849946E-1,2.306309864E0
2.708881792E0,2.321069956E0,-1.455900073E-1,2.296759933E-1,2.336945282E0
2.713804254E0,2.230376959E0,-8.484599739E-2,-8.311399817E-2,2.233537141E0
2.718726749E0,2.034742117E0,9.094999731E-2,-4.912610054E-1,2.095181319E0
2.723648905E0,2.054270029E0,3.785890043E-1,-9.894999862E-1,2.311377340E0
2.728571288E0,2.029377937E0,3.158139884E-1,-1.019431949E0,2.292892232E0
2.733493443E0,1.909991980E0,3.360019922E-1,-9.908379912E-1,2.177780206E0
2.738415903E0,1.857373953E0,4.244309962E-1,-9.343600273E-1,2.122029296E0
2.743338136E0,2.010627985E0,5.304009914E-1,-8.989999890E-1,2.265425145E0
2.748260551E0,2.257702112E0,4.287219942E-1,-6.137470007E-1,2.378593441E0
2.753182784E0,2.223202944E0,1.898369938E-1,-3.834199905E-1,2.263996533E0
2.758105153E0,2.088816881E0,9.414400160E-2,-3.300080001E-1,2.116819392E0
2.763027386E0,2.018621922E0,6.488399953E-2,-3.709500134E-1,2.053447907E0
2.767949768E0,2.061764956E0,2.289599925E-2,-5.242289901E-1,2.127490304E0
2.772871996E0,2.044190884E0,-4.351900145E-2,-7.535030246E-1,2.179077117E0
2.777794379E0,1.974110961E0,-2.706780136E-1,-8.728340268E-1,2.175366615E0
2.782716626E0,1.984068990E0,-3.308550119E-1,-1.084769964E0,2.285327257E0
2.787639009E0,2.101833105E0,-3.870550096E-1,-1.350340009E0,2.528029296E0
2.792561242E0,2.293589115E0,-4.440580010E-1,-1.659067988E0,2.865352531E0
2.797483590E0,2.504767895E0,-6.118419766E-1,-1.926753998E0,3.218787626E0
2.802405823E0,2.659200907E0,-6.915869713E-1,-2.071764946E0,3.441199209E0
2.807328206E0,2.805162907E0,-7.812569737E-1,-2.124099970E0,3.604317144E0
2.812250667E0,2.973319054E0,-7.323549986E-1,-2.201412916E0,3.771364324E0
2.817172900E0,3.247525930E0,-7.915959954E-1,-2.133579969E0,3.965502790E0
2.822095283E0,3.543804884E0,-8.321139812E-1,-1.978886008E0,4.143302616E0
2.827017516E0,3.948765039E0,-9.639120102E-1,-1.867082953E0,4.473015812E0
2.831939598E0,3.552964926E0,-9.172189832E-1,-1.958894014E0,4.159581251E0
2.836861826E0,2.693490028E0,-7.066469789E-1,-2.240890026E0,3.574328831E0
2.841784297E0,2.389389038E0,-7.386029959E-1,-2.615633011E0,3.618874191E0
2.846706682E0,2.278023005E0,-9.827119708E-1,-2.998761892E0,3.892002635E0
2.851628914E0,2.628952980E0,-1.300642967E0,-3.583988905E0,4.631203123E0
2.856551287E0,2.884078026E0,-1.599253058E0,-4.456213951E0,5.543767598E0
2.861473520E0,3.002424002E0,-1.957944036E0,-4.913481236E0,6.081972754E0
2.866395902E0,3.034421921E0,-2.388972044E0,-4.749154091E0,6.121222786E0
2.871318126E0,2.714852095E0,-2.713001013E0,-4.121804237E0,5.632057045E0
2.876240509E0,2.243151903E0,-2.970953941E0,-2.634496927E0,4.560578016E0
2.881162970E0,1.849020958E0,-3.098556995E0,-4.227600098E-1,3.632996006E0
2.886085169E0,1.483014941E0,-3.258675098E0,1.514871955E0,3.887561415E0
2.891007323E0,1.108261943E0,-3.534868002E0,2.834234953E0,4.664378211E0
2.895929467E0,6.882960200E-1,-4.017507076E0,3.731271982E0,5.525984539E0
2.900851849E0,1.765290052E-1,-4.593544006E0,4.097037792E0,6.157720983E0
2.905774116E0,-4.069409966E-1,-5.027936935E0,4.147020817E0,6.530201563E0
2.910696499E0,-9.750679731E-1,-5.432860851E0,4.291118145E0,6.991454034E0
2.915618960E0,-1.498229980E0,-5.803141117E0,4.450500011E0,7.465124932E0
2.920541106E0,-1.866060019E0,-6.026047230E0,4.318198204E0,7.644753818E0
2.925463566E0,-1.997334003E0,-6.285894871E0,4.286316872E0,7.866023759E0
2.930385722E0,-2.201078892E0,-6.582583904E0,4.667838097E0,8.364440904E0
2.935307972E0,-2.312772036E0,-6.863635063E0,5.144107819E0,8.883706772E0
2.940230432E0,-2.412492990E0,-7.124461174E0,5.333234787E0,9.220708364E0
2.945152821E0,-2.403326988E0,-7.458507061E0,5.348199844E0,9.487283582E0
2.950075053E0,-2.411031961E0,-7.757977962E0,5.055165768E0,9.568385346E0
2.954997436E0,-2.424673080E0,-7.993910789E0,4.581464767E0,9.527406188E0
2.959919588E0,-2.319547892E0,-8.109932899E0,4.663619041E0,9.638498670E0
2.964841817E0,-2.224510908E0,-8.053982735E0,4.193203926E0,9.348692199E0
2.969764210E0,-1.921633959E0,-7.689212799E0,3.306741953E0,8.587852635E0
2.974686443E0,-1.359316945E0,-6.988689899E0,2.451042891E0,7.529750349E0
2.979608826E0,-9.544150233E-1,-6.188770771E0,1.887267947E0,6.540150763E0
2.984531034E0,-6.593329906E-1,-5.356081963E0,1.496417999E0,5.600142928E0
2.989453417E0,-5.195440054E-1,-4.595290184E0,1.171051025E0,4.770532292E0
2.994375650E0,-6.787279844E-1,-3.869751930E0,6.046689749E-1,3.975081917E0
2.999298032E0,-1.199347973E0,-3.226807117E0,1.516779959E-1,3.445827324E0
3.004220494E0,-1.824311972E0,-2.807535887E0,2.390900068E-2,3.348274715E0
3.009142727E0,-2.506772995E0,-2.387166023E0,2.132609934E-1,3.468133896E0
3.014065018E0,-3.040705919E0,-1.858576059E0,8.278350234E-1,3.658621090E0
3.018987251E0,-3.395289898E0,-1.244109035E0,1.458503962E0,3.899106896E0
3.023909634E0,-3.618577957E0,-7.189769745E-1,2.583877087E0,4.504159757E0
3.028831891E0,-3.837548971E0,-2.142460048E-1,3.442866087E0,5.160039762E0
3.033754044E0,-4.037207127E0,3.007659912E-1,3.754270077E0,5.521235856E0
3.038676417E0,-4.184647083E0,8.912180066E-1,3.970487118E0,5.836977702E0
3.043598650E0,-4.231280804E0,1.359161973E0,4.292715073E0,6.178872163E0
3.048521033E0,-4.266771793E0,1.714478970E0,4.836311817E0,6.673431776E0
3.053443265E0,-4.299468994E0,2.109891891E0,5.498014927E0,7.291450169E0
3.058365725E0,-4.162783146E0,2.470666885E0,4.796516895E0,6.814655729E0
3.063288111E0,-4.277821064E0,2.645301104E0,2.734950066E0,5.725148282E0
3.068210366E0,-4.112248898E0,2.494940042E0,3.887865067E0,6.184724051E0
3.073132749E0,-3.776453018E0,2.582662106E0,4.135036945E0,6.166868856E0
3.078054987E0,-4.193415165E0,2.550973892E0,2.640048027E0,5.573334023E0
3.082977369E0,-4.433000088E0,2.542690992E0,1.787426949E0,5.414024599E0
3.087899602E0,-4.382427216E0,2.691554070E0,1.458189011E0,5.345694230E0
3.092821985E0,-4.416672230E0,2.796716928E0,1.466107965E0,5.429373051E0
3.097744141E0,-4.499973774E0,2.867744923E0,1.250875950E0,5.480731297E0
3.102666369E0,-4.608356953E0,2.983727932E0,1.272176981E0,5.635425489E0
3.107588859E0,-4.584002972E0,2.986519098E0,1.819836974E0,5.765777153E0
3.112511244E0,-4.384604931E0,2.966444969E0,2.528043985E0,5.866477866E0
3.117433476E0,-3.964891911E0,3.004331112E0,3.213454962E0,5.922218004E0
3.122355840E0,-3.399471045E0,2.958585024E0,4.034337997E0,6.048595854E0
3.127277996E0,-2.885371923E0,2.882010937E0,4.881882191E0,6.361142342E0
3.132200455E0,-2.445334911E0,2.789328098E0,5.737220764E0,6.831962834E0
3.137122698E0,-2.175900936E0,2.743181944E0,6.275473118E0,7.186178046E0
3.142045081E0,-2.263786077E0,2.815846920E0,6.208527088E0,7.183281276E0
3.146967290E0,-2.585017920E0,2.950360060E0,5.574131012E0,6.816001663E0
3.151889443E0,-3.009165049E0,3.027244091E0,4.820841789E0,6.438928221E0
3.156811806E0,-3.447679043E0,3.062160015E0,4.267380238E0,6.282821725E0
3.161734039E0,-3.904623032E0,2.992649078E0,4.087111950E0,6.395820011E0
3.166656426E0,-4.200689793E0,2.775470972E0,4.185710907E0,6.547458259E0
3.171578659E0,-4.611590862E0,2.766977072E0,4.151979923E0,6.794252695E0
3.176501042E0,-4.963434219E0,2.812730074E0,4.121136189E0,7.037818782E0
3.181423290E0,-5.193584919E0,2.909197092E0,4.138330936E0,7.250002412E0
3.186345672E0,-5.254901886E0,3.028912067E0,4.220974922E0,7.389514966E0
3.191267905E0,-5.282052994E0,3.195116043E0,4.211690903E0,7.473097793E0
3.196190384E0,-5.237697124E0,3.337093115E0,4.030799866E0,7.403850970E0
3.201112770E0,-5.052916050E0,3.345654964E0,3.783526897E0,7.144259481E0
3.206035001E0,-4.914511204E0,3.374300957E0,3.533914089E0,6.930142575E0
3.210957394E0,-4.311408043E0,3.313160896E0,2.557647943E0,6.008896524E0
3.215879549E0,-3.510567904E0,3.098774910E0,1.951632023E0,5.073003105E0
3.220801850E0,-2.720689058E0,2.888365984E0,1.341353059E0,4.188560020E0
3.225724235E0,-2.183244944E0,2.751530886E0,6.718959808E-1,3.576160638E0
3.230646468E0,-1.773870945E0,2.627773046E0,6.843099743E-2,3.171197268E0
3.235568850E0,-1.229866028E0,2.311808109E0,-4.500930011E-1,2.656992828E0
3.240491102E0,-7.793009877E-1,1.958894968E0,-1.347069025E0,2.501834224E0
3.245413485E0,-3.174690008E-1,1.602506042E0,-2.225658894E0,2.760863939E0
3.250335717E0,2.067469954E-1,1.211758971E0,-2.640919924E0,2.912998827E0
3.255258125E0,7.242469788E-1,6.679450274E-1,-3.423748016E0,3.562686448E0
3.260180358E0,1.111659050E0,1.606000029E-2,-4.209358215E0,4.353704210E0
3.265102817E0,1.710144043E0,-7.149310112E-1,-5.349331856E0,5.661366469E0
3.270025175E0,2.558845043E0,-1.451642036E0,-6.495901108E0,7.131036654E0
3.274947406E0,3.721662998E0,-2.088558912E0,-7.143866062E0,8.321518859E0
3.279869531E0,4.964210987E0,-2.682405949E0,-7.863491058E0,9.678490793E0
3.284791913E0,6.379012108E0,-3.114626884E0,-7.987824917E0,1.068634844E1
3.289714146E0,7.972494125E0,-3.379509926E0,-8.054809570E0,1.182631418E1
3.294636529E0,9.572066307E0,-3.415563107E0,-7.896779060E0,1.287049511E1
3.299558733E0,1.008707714E1,-3.054656982E0,-6.808568001E0,1.254737633E1
3.304481115E0,8.372383118E0,-2.612401009E0,-5.377931118E0,1.028803097E1
3.309403348E0,6.095292091E0,-2.262140989E0,-3.769855976E0,7.515429570E0
3.314325741E0,4.147044182E0,-1.995380044E0,-2.626660109E0,5.298948980E0
3.319247973E0,2.626622915E0,-1.876677036E0,-2.327517986E0,3.979749315E0
3.324170433E0,1.583106995E0,-2.000112057E0,-1.892423987E0,3.176152475E0
3.329092815E0,7.834960222E-1,-2.155514956E0,-1.437847972E0,2.706938775E0
3.334015045E0,-1.974999905E-3,-2.238523006E0,-1.216307044E0,2.547624771E0
3.338937218E0,-6.780120134E-1,-2.375418901E0,-7.556570172E-1,2.583279461E0
3.343859601E0,-1.431251049E0,-2.537266016E0,-3.834339976E-1,2.938234169E0
3.348781844E0,-2.266547918E0,-2.390881062E0,-3.614029884E-1,3.314236539E0
3.353704226E0,-2.365046978E0,-2.273344994E0,-5.662699938E-1,3.328994799E0
3.358626449E0,-1.814726949E0,-2.126200914E0,-5.835239887E-1,2.855602296E0
3.363548832E0,-1.296681046E0,-1.819484949E0,-8.372529745E-1,2.385979832E0
3.368471064E0,-1.028849006E0,-1.340073943E0,-1.275136948E0,2.116672550E0
3.373393423E0,-8.288549781E-1,-7.833330035E-1,-1.893257022E0,2.210211148E0
3.378315656E0,-4.277699888E-1,-3.496179879E-1,-2.253755093E0,2.320480967E0
3.383238115E0,1.310780048E-1,-1.928270012E-1,-2.257203102E0,2.269213419E0
3.388160488E0,3.331739902E-1,-5.956299976E-2,-1.883317947E0,1.913488738E0
3.393082719E0,2.252100036E-2,-6.751599908E-2,-1.391378999E0,1.393198164E0
3.398005101E0,-4.602780044E-1,-1.421460062E-1,-1.086855054E0,1.188829356E0
3.402927319E0,-8.084700108E-1,-2.615520060E-1,-5.229049921E-1,9.977288414E-1
3.407849473E0,-1.052338004E0,-2.823739946E-1,5.211730003E-1,1.207796193E0
3.412771851E0,-1.193586946E0,-3.243969977E-1,1.843621016E0,2.220094966E0
3.417694083E0,-1.340991974E0,-3.990609944E-1,3.731837034E0,3.985488276E0
3.422616543E0,-1.470793962E0,-4.681040049E-1,5.457003117E0,5.671088013E0
3.427538923E0,-1.770478964E0,-5.597760081E-1,6.842601776E0,7.090073625E0
3.432461155E0,-2.072283983E0,-7.930219769E-1,8.064110756E0,8.363798602E0
3.437383309E0,-2.810544968E0,-1.017691016E0,8.350086212E0,8.868979522E0
3.442305692E0,-3.330492020E0,-2.194521904E0,7.326448917E0,8.341759839E0
3.447227925E0,-3.798542023E0,-3.573318005E0,5.276360989E0,7.418726868E0
3.452150370E0,-4.339335918E0,-4.779936790E0,2.577797890E0,6.951451208E0
3.457072755E0,-4.830797195E0,-5.820767879E0,-4.241799936E-2,7.564373043E0
3.461994911E0,-5.116899014E0,-6.840954781E0,-1.785460949E0,8.727496126E0
3.466917165E0,-5.187170029E0,-7.236392021E0,-2.454320908E0,9.235572181E0
3.471839319E0,-4.978160858E0,-7.214991093E0,-1.825940013E0,8.953895182E0
3.476761692E0,-4.581889153E0,-6.915568829E0,-5.038210154E-1,8.310994889E0
3.481684153E0,-4.169539928E0,-6.280742168E0,1.258551955E0,7.643084353E0
3.486606391E0,-3.757225990E0,-4.812880993E0,2.877686024E0,6.749936847E0
3.491528545E0,-2.981781006E0,-2.932935953E0,3.976486921E0,5.771098640E0
3.496451005E0,-2.065336943E0,-1.505542040E0,4.568021774E0,5.234414624E0
3.501373403E0,-1.579427958E0,-5.315170288E-1,5.091628075E0,5.357404173E0
3.506295559E0,-1.482615948E0,1.696929932E-1,5.125073910E0,5.337914231E0
3.511218019E0,-1.143936992E0,6.863189936E-1,5.634830952E0,5.790591115E0
3.516140256E0,-1.042585015E0,1.108006954E0,6.186036110E0,6.370377201E0
3.521062639E0,-1.171784997E0,1.457090974E0,6.694382191E0,6.950607679E0
3.525984872E0,-1.434864044E0,1.822054982E0,6.867252827E0,7.248301909E0
3.530907017E0,-1.835628986E0,2.222294092E0,6.917888165E0,7.494351304E0
3.535829476E0,-2.085973024E0,2.551471949E0,6.909821987E0,7.655516472E0
3.540751846E0,-2.187086105E0,2.764430046E0,6.503528118E0,7.397384477E0
3.545674002E0,-2.226022959E0,2.903309107E0,6.100687027E0,7.113561990E0
3.550596248E0,-2.257556915E0,2.941817999E0,5.352127075E0,6.511230344E0
3.555518630E0,-2.243104935E0,2.736445904E0,4.561686039E0,5.773095829E0
3.560441092E0,-2.380841017E0,2.364046097E0,3.779592037E0,5.053952301E0
3.565363272E0,-2.480787992E0,1.761752963E0,2.929363966E0,4.223654320E0
3.570285731E0,-2.284257889E0,1.079090953E0,2.219055891E0,3.362511031E0
3.575207964E0,-1.924718976E0,3.134559989E-1,1.626796007E0,2.539539929E0
3.580130366E0,-1.391445041E0,-4.037370086E-1,9.170939922E-1,1.714696552E0
3.585052598E0,-6.614770293E-1,-1.036581993E0,2.169539928E-1,1.248648519E0
3.589974981E0,1.318120062E-1,-1.630149007E0,-6.637179852E-1,1.765016077E0
3.594897160E0,7.887390256E-1,-2.006690979E0,-1.919167995E0,2.886541829E0
3.599819389E0,1.250077963E0,-2.081669092E0,-2.983958960E0,3.847083596E0
3.604741773E0,1.599313021E0,-1.888990998E0,-3.190642118E0,4.038104290E0
3.609663992E0,1.714544058E0,-1.530292988E0,-2.612724066E0,3.479624261E0
3.614586375E0,1.765704036E0,-1.030143023E0,-1.592165947E0,2.591119023E0
3.619508607E0,1.726722002E0,-4.871720076E-1,-4.609070122E-1,1.852387840E0
3.624431090E0,1.564326048E0,7.433500141E-2,3.604939878E-1,1.607046232E0
3.629353246E0,1.063006043E0,4.937019944E-1,1.020509005E0,1.554079192E0
3.634275614E0,1.940999995E-3,8.328940272E-1,1.403594971E0,1.632113682E0
3.639197847E0,-1.062345028E0,1.043594003E0,1.577265978E0,2.169201089E0
3.644120307E0,-1.966038942E0,1.151744008E0,1.625025034E0,2.798665708E0
3.649042679E0,-2.396799088E0,1.140213966E0,1.719436049E0,3.162466456E0
3.653964910E0,-2.314137936E0,1.116745949E0,2.007302999E0,3.260616695E0
3.658887064E0,-2.033574104E0,9.762669802E-1,1.951516032E0,2.982773152E0
3.663809509E0,-1.769315958E0,6.139889956E-1,1.842859983E0,2.627469194E0
3.668731664E0,-1.689900994E0,4.399600029E-1,1.564643979E0,2.344662226E0
3.673654023E0,-1.512585044E0,3.849790096E-1,1.320767999E0,2.044639445E0
3.678576256E0,-1.234660029E0,4.158020020E-1,1.329702020E0,1.861554231E0
3.683498639E0,-6.926590204E-1,4.250909984E-1,1.685675979E0,1.871358432E0
3.688420900E0,-1.989880055E-1,5.379649997E-1,1.752992988E0,1.844447609E0
3.693343283E0,-1.289020032E-1,7.236949801E-1,1.510717034E0,1.680064317E0
3.698265516E0,-1.977149993E-1,9.056890011E-1,1.260069966E0,1.564333758E0
3.703187984E0,-3.254500031E-2,9.400860071E-1,1.083436966E0,1.434801916E0
3.708110371E0,2.565889955E-1,9.298859835E-1,9.422690272E-1,1.348479431E0
3.713032602E0,5.114489794E-1,9.628580213E-1,7.328140140E-1,1.313655970E0
3.717954970E0,7.496989965E-1,7.756509781E-1,7.842860222E-1,1.333711959E0
3.722877126E0,1.040197015E0,6.243330240E-1,7.186729908E-1,1.410068233E0
3.727799586E0,1.341593027E0,5.736209750E-1,2.895079851E-1,1.487524032E0
3.732721818E0,1.620095968E0,5.705959797E-1,-3.848699853E-2,1.718072166E0
3.737643957E0,1.871436000E0,5.028600097E-1,-3.735319972E-1,1.973491080E0
3.742566417E0,2.109524965E0,5.381249785E-1,-9.959300160E-1,2.394065719E0
3.747488802E0,2.262149096E0,3.436619937E-1,-1.142410040E0,2.557444583E0
3.752411044E0,2.283771038E0,4.389050007E-1,-1.230623960E0,2.631099216E0
3.757333198E0,2.467489958E0,5.238350034E-1,-1.060106993E0,2.736190169E0
3.762255658E0,2.662352085E0,6.536110044E-1,-1.041178942E0,2.932469873E0
3.767178032E0,2.800627947E0,5.627949834E-1,-8.471850157E-1,2.979593519E0
3.772100265E0,2.839932919E0,4.792909920E-1,-8.754649758E-1,3.010212245E0
3.777022648E0,2.847331047E0,4.353330135E-1,-8.967880011E-1,3.016792609E0
3.781944857E0,2.815049887E0,5.467630029E-1,-1.041741967E0,3.051013270E0
3.786867010E0,2.816695929E0,6.482549906E-1,-1.182816029E0,3.122989632E0
3.791789456E0,2.830431938E0,6.416429877E-1,-1.024783969E0,3.077861736E0
3.796711612E0,2.750938892E0,6.347730160E-1,-9.883149862E-1,2.991215152E0
3.801633979E0,2.640278101E0,6.540269852E-1,-1.094324946E0,2.931956145E0
3.806556212E0,2.469120979E0,7.783420086E-1,-1.361541986E0,2.925093379E0
3.811478672E0,2.191020012E0,8.677539825E-1,-1.662459970E0,2.883979684E0
3.816400862E0,1.675151944E0,9.676499963E-1,-1.868587971E0,2.689628516E0
3.821323244E0,1.084808946E0,9.751049876E-1,-1.997398973E0,2.473306055E0
3.826245477E0,6.861860156E-1,9.300699830E-1,-1.969156027E0,2.283299560E0
3.831167932E0,5.293840170E-1,9.130790234E-1,-1.790264010E0,2.078221828E0
3.836090318E0,5.582709908E-1,8.663110137E-1,-1.561959028E0,1.871330350E0
3.841012549E0,5.541139841E-1,7.900710106E-1,-1.296749949E0,1.616420410E0
3.845934927E0,5.442370176E-1,7.180699706E-1,-1.042842984E0,1.378165412E0
3.850857159E0,5.489289761E-1,6.026009917E-1,-7.959899902E-1,1.139320429E0
3.855779309E0,5.048890114E-1,5.469400287E-1,-6.135590076E-1,9.646299625E-1
3.860701692E0,4.488529861E-1,4.867039919E-1,-5.237690210E-1,8.442059975E-1
3.865623924E0,3.625290096E-1,4.173569977E-1,-5.094159842E-1,7.517438335E-1
3.870546383E0,2.680769861E-1,2.960650027E-1,-5.935930014E-1,7.154525893E-1
3.875468539E0,1.581040025E-1,2.067620009E-1,-7.894399762E-1,8.312417679E-1
3.880390956E0,-5.629599839E-2,2.693569958E-1,-1.109678984E0,1.143289061E0
3.885313188E0,1.097259969E-1,1.208119988E-1,-9.978060126E-1,1.011064870E0
3.890235571E0,2.826240063E-1,7.253699750E-2,-8.719339967E-1,9.194600804E-1
3.895158019E0,4.411309958E-1,3.617399931E-2,-7.263330221E-1,8.505673240E-1
3.900080251E0,6.089209914E-1,8.364400268E-2,-5.387319922E-1,8.173207770E-1
3.905002634E0,8.569570184E-1,1.071920022E-1,-3.225939870E-1,9.219177497E-1
3.909924871E0,1.334103942E0,8.744999766E-2,-6.745400280E-2,1.338667574E0
3.914847025E0,2.086314917E0,4.348399863E-2,1.275389940E-1,2.090661853E0
3.919769403E0,2.498933077E0,7.423900068E-2,2.939899862E-1,2.517262017E0
3.924691865E0,2.371644974E0,2.738809884E-1,2.552950084E-1,2.401017746E0
3.929614021E0,2.216255903E0,4.292060137E-1,6.895100325E-2,2.258486722E0
3.934536246E0,2.146365881E0,5.039889812E-1,-2.628200054E-1,2.220352617E0
3.939458629E0,2.018465996E0,5.385829806E-1,-5.480260253E-1,2.159770619E0
3.944380862E0,1.949236989E0,5.324980021E-1,-7.573729753E-1,2.157937160E0
3.949303254E0,1.947311044E0,5.187299848E-1,-8.495759964E-1,2.186979760E0
3.954225486E0,2.059279919E0,5.136569738E-1,-8.876619935E-1,2.300526263E0
3.959147869E0,2.253180027E0,5.004220009E-1,-9.479929805E-1,2.495181978E0
3.964070239E0,2.408317089E0,3.038359880E-1,-6.057029963E-1,2.501836052E0
3.968992472E0,2.456315994E0,2.453490049E-1,-4.739950001E-1,2.513633955E0
3.973914855E0,2.487946987E0,2.027090043E-1,-2.733300030E-1,2.511111396E0
3.978837016E0,2.547821999E0,3.507899940E-1,-2.177529931E-1,2.581059264E0
3.983759247E0,2.662046909E0,3.710500002E-1,-9.214600176E-2,2.689361027E0
3.988681638E0,2.701375008E0,1.346359998E-1,9.143599868E-2,2.706273143E0
3.993603871E0,2.471507072E0,6.603100151E-2,8.992999792E-3,2.472405342E0
3.998526254E0,2.243695021E0,1.531610042E-1,-1.515219957E-1,2.254015207E0
4.003448496E0,2.185786963E0,2.162480056E-1,-3.937509954E-1,2.231472091E0
4.008370879E0,2.250482082E0,3.724879920E-1,-7.714890242E-1,2.408030777E0
4.013293112E0,2.354202986E0,3.487699926E-1,-1.019994974E0,2.589266683E0
4.018215518E0,2.513603926E0,2.048950046E-1,-1.237475038E0,2.809186916E0
4.023137980E0,2.739712954E0,1.131220013E-1,-1.537179947E0,3.143524430E0
4.028060213E0,3.043479919E0,1.884460002E-1,-2.048644066E0,3.673584683E0
4.032982353E0,3.211863995E0,-1.246830001E-1,-2.197624922E0,3.893734899E0
4.037904812E0,3.480811119E0,-4.120059907E-1,-2.396876097E0,4.246270129E0
4.042826968E0,3.871404886E0,-5.297449827E-1,-2.396059036E0,4.583612598E0
4.047749021E0,4.206675053E0,-7.816119790E-1,-2.377600908E0,4.894897176E0
4.052671480E0,4.280774117E0,-1.023591995E0,-2.427848101E0,5.026650377E0
4.057593942E0,4.390480995E0,-1.449401021E0,-2.595191002E0,5.302084781E0
4.062516343E0,4.530166149E0,-1.982321978E0,-2.381537914E0,5.488508777E0
4.067438496E0,4.216104031E0,-2.229469061E0,-2.145600080E0,5.229690736E0
4.072360727E0,3.067826033E0,-2.021114111E0,-2.291731119E0,4.329952695E0
4.077282924E0,2.286760092E0,-1.813050985E0,-2.596957922E0,3.906483846E0
4.082205614E0,1.683581948E0,-1.891057968E0,-3.070888042E0,3.980063038E0
4.087127770E0,1.159785986E0,-2.093172073E0,-3.742180109E0,4.441889781E0
4.092050006E0,8.178189993E-1,-2.410553932E0,-4.585858822E0,5.244968952E0
4.096972389E0,5.381469727E-1,-2.908472061E0,-5.453258038E0,6.203775876E0
4.101894612E0,2.354809940E-1,-3.493516922E0,-6.335338116E0,7.238551017E0
4.106816766E0,-4.238620102E-1,-3.976512909E0,-6.939264774E0,8.009101668E0
4.111739149E0,-1.261183977E0,-4.201848984E0,-6.685507774E0,7.996382564E0
4.116661391E0,-1.731539965E0,-4.358698845E0,-5.183920860E0,6.990673913E0
4.121583850E0,-1.856673956E0,-4.679027081E0,-2.388874054E0,5.572006088E0
4.126506235E0,-1.662178993E0,-4.963478088E0,1.308104038E0,5.395376717E0
4.131428391E0,-1.336720943E0,-5.199320793E0,4.901033878E0,7.269105355E0
4.136350622E0,-1.111047029E0,-5.615845203E0,7.788785934E0,9.666298629E0
4.141273114E0,-7.665910125E-1,-5.887011051E0,9.453587532E0,1.116310343E1
4.146195270E0,-6.666210294E-1,-6.093710899E0,9.082274437E0,1.095743606E1
4.151117729E0,-8.807579875E-1,-6.506094933E0,8.014950752E0,1.036071626E1
4.156040119E0,-1.067541957E0,-7.099977970E0,6.802348137E0,9.890463750E0
4.160962352E0,-1.148535967E0,-7.977819920E0,5.545073986E0,9.783281200E0
4.165884735E0,-1.274724960E0,-8.935426712E0,4.083408833E0,9.906614050E0
4.170806866E0,-1.459604979E0,-9.693726540E0,3.032124043E0,1.026121616E1
4.175729095E0,-2.061594963E0,-1.015447426E1,2.076704025E0,1.056769705E1
4.180651634E0,-2.665826082E0,-1.023877335E1,1.303274035E0,1.066009529E1
4.185573790E0,-3.299892902E0,-9.927686691E0,8.135309815E-1,1.049333545E1
4.190496177E0,-4.014586926E0,-9.152027130E0,5.810940266E-1,1.001070322E1
4.195418639E0,-4.918021202E0,-7.955550194E0,6.556689739E-1,9.375905995E0
4.200340795E0,-5.807323933E0,-6.629084110E0,7.791579962E-1,8.847420787E0
4.205263249E0,-6.501436234E0,-5.216794014E0,1.400514960E0,8.452517674E0
4.210185405E0,-6.973008156E0,-3.927920103E0,2.159738064E0,8.289503458E0
4.215107865E0,-7.077538967E0,-2.818269014E0,2.776734114E0,8.108295160E0
4.220030092E0,-6.756632805E0,-1.972023964E0,3.046504021E0,7.669560100E0
4.224952475E0,-6.245612144E0,-1.348145962E0,3.617317915E0,7.342353675E0
4.229874708E0,-5.681575775E0,-7.499430180E-1,4.012454987E0,6.995892569E0
4.234796828E0,-5.385552883E0,-1.243959963E-1,3.581558943E0,6.468942625E0
4.239719210E0,-5.096039772E0,5.528569818E-1,2.453419924E0,5.682828655E0
4.244641458E0,-4.373436928E0,1.122161984E0,1.633362055E0,4.801465368E0
4.249563841E0,-3.868189096E0,1.472174048E0,8.446969986E-1,4.224179960E0
4.254486169E0,-3.651940107E0,1.898478031E0,8.708199859E-1,4.207043241E0
4.259408629E0,-3.530086994E0,2.305600882E0,1.728855014E0,4.557000030E0
4.264330785E0,-3.579575062E0,2.697022915E0,2.416397095E0,5.091784083E0
4.269253138E0,-3.618628025E0,3.048592091E0,3.021802902E0,5.614238621E0
4.274175371E0,-3.542012930E0,3.444222927E0,3.461862087E0,6.032662454E0
4.279097831E0,-3.282448053E0,3.732115030E0,3.485295057E0,6.070455457E0
4.284020198E0,-3.160247087E0,4.031033993E0,2.992230892E0,5.932102698E0
4.288942429E0,-3.260143995E0,4.388280869E0,2.568789959E0,6.040217687E0
4.293864812E0,-3.427222013E0,4.610342979E0,2.156199932E0,6.135984947E0
4.298786963E0,-3.339310884E0,4.770871162E0,2.063514948E0,6.178211940E0
4.303709192E0,-2.842586994E0,4.828392982E0,2.458956957E0,6.118835586E0
4.308631518E0,-2.496649027E0,4.839101791E0,2.793353081E0,6.119884308E0
4.313553751E0,-2.303220987E0,4.813519955E0,2.997232914E0,6.120310973E0
4.318476128E0,-2.097913980E0,4.741642952E0,3.064749956E0,6.023048501E0
4.323398361E0,-2.004808903E0,4.615962029E0,3.301673889E0,6.018921386E0
4.328320821E0,-1.979626060E0,4.475709915E0,3.648909092E0,6.104542255E0
4.333243202E0,-1.987447977E0,4.286398888E0,3.659878016E0,5.976443087E0
4.338165356E0,-2.062645912E0,4.110146999E0,3.407502890E0,5.723538456E0
4.343087797E0,-2.415652037E0,4.013123035E0,2.898124933E0,5.508144823E0
4.348010030E0,-2.873959064E0,3.991260052E0,2.304291964E0,5.431349644E0
4.352932412E0,-3.383514881E0,3.961208105E0,1.704058051E0,5.481163786E0
4.357854640E0,-3.722171068E0,3.790635109E0,1.231016994E0,5.453336119E0
4.362776794E0,-4.192464828E0,3.741012096E0,6.753050089E-1,5.659325905E0
4.367699182E0,-4.680303097E0,3.728755951E0,2.446569949E-1,5.989049596E0
4.372621643E0,-5.137083054E0,3.734306097E0,-8.949299902E-2,6.351588252E0
4.377543876E0,-5.696761131E0,3.727291107E0,-2.158229947E-1,6.811194165E0
4.382466258E0,-6.064246178E0,3.698453903E0,-1.086210012E-1,7.103903258E0
4.387388414E0,-6.290894985E0,3.669128895E0,-3.274299949E-2,7.282783717E0
4.392310630E0,-6.371432781E0,3.712243080E0,-1.527909935E-1,7.375584686E0
4.397233091E0,-6.256466866E0,3.638123989E0,-1.238880008E-1,7.238416404E0
4.402155475E0,-5.860529900E0,3.484152079E0,-6.454800069E-2,6.818305717E0
4.407077712E0,-5.392666817E0,3.472075939E0,-1.609269977E-1,6.415766846E0
4.412000095E0,-4.799327850E0,3.466856003E0,-3.726750016E-1,5.932244518E0
4.416922327E0,-4.094081879E0,3.441380978E0,-6.601480246E-1,5.388915000E0
4.421844701E0,-3.280860901E0,3.347642899E0,-8.834000230E-1,4.769817274E0
4.426766857E0,-2.323061943E0,3.092499971E0,-9.881439805E-1,3.992067308E0
4.431689057E0,-1.511170983E0,2.949373007E0,-1.150689006E0,3.508065573E0
4.436611441E0,-8.721770048E-1,2.711287975E0,-1.105903983E0,3.055290303E0
4.441533683E0,-3.605700135E-1,2.454956055E0,-1.019513965E0,2.682578739E0
4.446456066E0,1.398620009E-1,2.077841997E0,-6.570389867E-1,2.183732807E0
4.451378227E0,1.086406946E0,1.403671980E0,-4.165300131E-1,1.823203865E0
4.456300686E0,2.345786095E0,5.922909975E-1,-1.980510056E-1,2.427497730E0
4.461222919E0,3.403872967E0,-6.408999860E-2,-3.537800163E-2,3.404660087E0
4.466145092E0,4.584808826E0,-5.375199914E-1,-3.866200149E-2,4.616372436E0
4.471067782E0,5.853848934E0,-8.804829717E-1,-2.057510018E-1,5.923270303E0
4.475989938E0,7.060651779E0,-1.154726982E0,-1.016265988E0,7.226271134E0
4.480912365E0,8.281144142E0,-1.713657975E0,-2.429332972E0,8.798615269E0
4.485834597E0,9.458397865E0,-2.395314932E0,-3.718653917E0,1.044160959E1
4.490756751E0,9.963156700E0,-2.714297056E0,-4.366131783E0,1.121137845E1
4.495679134E0,9.695524216E0,-2.449402094E0,-5.023118019E0,1.119082102E1
4.500601400E0,8.927401543E0,-2.258584023E0,-5.930053234E0,1.095286408E1
4.505523553E0,6.931209087E0,-1.743708968E0,-6.013436794E0,9.340428387E0
4.510446018E0,4.673635960E0,-1.018175006E0,-5.441987991E0,7.245328614E0
4.515368403E0,3.467729092E0,-5.247499943E-1,-3.723294020E0,5.115019645E0
4.520290558E0,2.816736937E0,-1.190889999E-1,-1.200184941E0,3.064087638E0
4.525213023E0,2.457531929E0,2.089920044E-1,1.286923051E0,2.781961858E0
4.530135179E0,2.304784060E0,5.372189879E-1,3.277834892E0,4.042874643E0
4.535057638E0,2.229859114E0,9.430680275E-1,4.675452232E0,5.265121323E0
4.539979871E0,2.134696007E0,1.138602972E0,5.480807781E0,5.991043123E0
4.544902254E0,2.223222971E0,8.385649920E-1,5.848123074E0,6.312404859E0
4.549824487E0,2.449047089E0,-4.536300153E-2,5.622954845E0,6.133311556E0
4.554746850E0,2.589822054E0,-1.341833949E0,5.431756973E0,6.165361339E0
4.559669006E0,2.339447021E0,-2.791136026E0,4.697159767E0,5.943632102E0
4.564591480E0,1.965008020E0,-4.386919022E0,3.647566080E0,6.034157218E0
4.569513712E0,1.690786958E0,-5.862352848E0,2.494684935E0,6.591615460E0
4.574436110E0,1.525321007E0,-6.968845844E0,1.953953028E0,7.396576844E0
4.579358343E0,1.204398990E0,-7.390620232E0,2.471705914E0,7.885504071E0
4.584280725E0,5.619760156E-1,-7.300430775E0,3.112241983E0,7.956013870E0
4.589202982E0,-3.764320016E-1,-6.952492237E0,3.508507967E0,7.796696577E0
4.594125365E0,-1.403262019E0,-6.218000889E0,2.363960028E0,6.798601795E0
4.599047598E0,-2.062144041E0,-5.190594196E0,1.205500029E-2,5.585235132E0
4.603970052E0,-2.834665060E0,-4.167065144E0,-3.421343088E0,6.091415799E0
4.608892208E0,-4.147404194E0,-3.257414103E0,-7.676990032E0,9.313854419E0
4.613814591E0,-5.940909863E0,-2.202896118E0,-1.105934620E1,1.274583460E1
4.618736809E0,-7.114253044E0,-1.247674942E0,-1.207262993E1,1.406832195E1
4.623659191E0,-7.510454178E0,-5.426779985E-1,-1.070826530E1,1.309077413E1
4.628581448E0,-7.109388828E0,-1.611970067E-1,-7.187747955E0,1.011103925E1
4.633503831E0,-6.585906982E0,2.243479937E-1,-3.040621042E0,7.257401679E0
4.638426063E0,-5.997763157E0,4.233579934E-1,8.901649714E-1,6.078222483E0
4.643348403E0,-5.670777798E0,6.891170144E-1,4.450010777E0,7.241215299E0
4.648270636E0,-5.437922955E0,9.118630290E-1,7.352841854E0,9.190581242E0
4.653193018E0,-5.253653049E0,9.968829751E-1,9.509751320E0,1.091008782E1
4.658115251E0,-5.181544781E0,1.053696990E0,1.045079517E1,1.171229283E1
4.663037634E0,-4.986947060E0,8.572859764E-1,1.034469986E1,1.151596263E1
4.667960124E0,-4.785772800E0,5.772960186E-1,9.324151039E0,1.049650821E1
4.672882280E0,-4.497642040E0,1.066100001E-1,8.015502930E0,9.191759180E0
4.677804511E0,-4.225019932E0,-4.276550114E-1,6.707496166E0,7.938777428E0
4.682726674E0,-3.857403994E0,-1.018179059E0,5.459442139E0,6.761786941E0
4.687649133E0,-3.619009018E0,-1.590453029E0,4.117466927E0,5.707915644E0
4.692571523E0,-3.862185955E0,-1.512552977E0,2.459034920E0,4.821944586E0
4.697493985E0,-3.660526037E0,-1.403141975E0,1.223963976E0,4.106865725E0
4.702415910E0,-2.239286900E0,-1.324831963E0,3.554419875E-1,2.626009245E0
4.707338398E0,-1.106009960E0,-1.097805977E0,-4.607749879E-1,1.625038333E0
4.712260860E0,-7.907400131E-1,-9.754279852E-1,-1.146304965E0,1.700218985E0
4.717183011E0,-7.360119820E-1,-1.022515059E0,-9.056450129E-1,1.551593881E0
4.722105393E0,-5.787379742E-1,-1.294453979E0,4.022800177E-2,1.418508737E0
4.727027626E0,-2.787379920E-1,-1.528092980E0,5.466729999E-1,1.646698027E0
4.731950009E0,2.875999920E-2,-1.700624943E0,6.835079789E-1,1.833067236E0
4.736872241E0,3.111830056E-1,-1.766131997E0,7.816439867E-1,1.956278205E0
4.741794624E0,6.513900161E-1,-1.739166975E0,7.942519784E-1,2.019863096E0
4.746716698E0,1.017629027E0,-1.677302957E0,6.899480224E-1,2.079649566E0
4.751638927E0,1.378404975E0,-1.556578994E0,6.038820148E-1,2.165089358E0
4.756561321E0,1.621613979E0,-1.403082967E0,5.730969906E-1,2.219620209E0
4.761483554E0,1.845029950E0,-1.257439017E0,7.125779986E-1,2.343726905E0
4.766405961E0,2.152700901E0,-1.119853973E0,9.275239706E-1,2.597786521E0
4.771328193E0,2.384218931E0,-9.064030051E-1,1.223943949E0,2.829152719E0
4.776250576E0,2.708607912E0,-6.532359719E-1,1.513363957E0,3.170732490E0
4.781172814E0,3.079917908E0,-3.340950012E-1,1.883568048E0,3.625650615E0
4.786095197E0,3.393528938E0,-1.448999974E-3,2.471838951E0,4.198336403E0
4.791017658E0,3.730701923E0,4.235379994E-1,3.118236065E0,4.880667724E0
4.795939876E0,3.883018017E0,7.157469988E-1,3.529604912E0,5.296058300E0
4.800862258E0,4.010315895E0,1.093778968E0,4.311173916E0,5.988756677E0
4.805784491E0,3.882903099E0,1.469002962E0,4.550512791E0,6.159713698E0
4.810706645E0,3.615524054E0,1.812577963E0,4.343488216E0,5.934925689E0
4.815629028E0,3.233211994E0,2.136698008E0,3.939920902E0,5.526492096E0
4.820551290E0,2.891522884E0,2.376195908E0,3.350923061E0,5.023534308E0
4.825473672E0,2.661519051E0,2.495032072E0,2.677220106E0,4.525083004E0
4.830395910E0,2.509100914E0,2.538626909E0,2.009401083E0,4.096084312E0
4.835318293E0,2.381519079E0,2.574048042E0,1.423627973E0,3.784715716E0
4.840240525E0,2.288264036E0,2.519922972E0,9.048209786E-1,3.522054100E0
4.845162941E0,2.188570976E0,2.373874903E0,4.404079914E-1,3.258693629E0
4.850085174E0,1.929319978E0,2.092850924E0,1.019650027E-1,2.848279731E0
4.855007624E0,1.781224012E0,1.753515959E0,-8.918000013E-2,2.501105810E0
4.859930011E0,1.713417053E0,1.427764058E0,-1.668040007E-1,2.236544607E0
4.864852242E0,1.800557971E0,1.170761943E0,-3.318220079E-1,2.173200032E0
4.869774605E0,2.060081959E0,9.203959703E-1,-4.235619903E-1,2.295750679E0
4.874696761E0,2.363603115E0,6.912230253E-1,-4.201920033E-1,2.498193402E0
4.879618990E0,2.676387072E0,4.811019897E-1,-4.123170078E-1,2.750365830E0
4.884541375E0,2.985133886E0,3.261840045E-1,-5.074689984E-1,3.045479455E0
4.889463607E0,3.215173006E0,1.449470073E-1,-6.501619816E-1,3.283452100E0
4.894385990E0,3.428344011E0,3.600599989E-2,-8.191670179E-1,3.525035276E0
4.899308223E0,3.634737968E0,-1.968299970E-2,-9.116359949E-1,3.747370773E0
4.904230590E0,3.806200981E0,-2.850000048E-3,-9.442219734E-1,3.921572282E0
4.909152823E0,3.881098032E0,5.550700054E-2,-8.905879855E-1,3.982354821E0
4.914075206E0,3.107775927E0,2.847000062E-1,-6.024919748E-1,3.178414995E0
4.918997672E0,2.310672045E0,4.880259931E-1,-3.797779977E-1,2.391987875E0
4.923919905E0,1.818403006E0,6.387559772E-1,-1.177719980E-1,1.930924373E0
4.928842288E0,1.670315027E0,7.413790226E-1,1.736679971E-1,1.835689440E0
4.933764497E0,1.664927959E0,8.077849746E-1,4.275900126E-1,1.899298527E0
4.938686650E0,1.754416943E0,8.978350163E-1,5.985760093E-1,2.059703805E0
4.943609091E0,1.895884991E0,9.110199809E-1,7.199310064E-1,2.223204434E0
4.948531324E0,2.046798944E0,9.216729999E-1,7.582110167E-1,2.369335557E0
4.953453715E0,2.157490969E0,9.371110201E-1,8.737639785E-1,2.509264401E0
4.958375948E0,2.273821115E0,9.645689726E-1,1.057320952E0,2.686742147E0
4.963298331E0,2.277410030E0,1.011731982E0,1.197703004E0,2.764903350E0
4.968220535E0,2.300745010E0,1.118816018E0,1.319250941E0,2.878471805E0
4.973142917E0,2.296288967E0,1.187723994E0,1.443603039E0,2.961016893E0
4.978065150E0,2.330427885E0,1.287732959E0,1.530405998E0,3.071040999E0
4.982987581E0,2.424165964E0,1.375681996E0,1.719822049E0,3.275189988E0
4.987909967E0,2.398720980E0,1.468495011E0,1.868386030E0,3.376567235E0
4.992832198E0,2.328846931E0,1.453732967E0,1.969372034E0,3.378652657E0
4.997754567E0,2.361807108E0,1.364662051E0,2.075304985E0,3.427437251E0
5.002676722E0,2.475420952E0,1.196349025E0,2.143234968E0,3.486031556E0
5.007599172E0,2.673713923E0,1.003726959E0,2.270687103E0,3.648593410E0
5.012521405E0,2.908946991E0,8.750010133E-1,2.407218933E0,3.875861499E0
5.017443787E0,3.093086958E0,8.128790259E-1,2.446369886E0,4.026497841E0
5.022365934E0,3.209270000E0,8.340960145E-1,2.328288078E0,4.051673170E0
5.027288163E0,3.307650089E0,8.644260168E-1,2.129196882E0,4.027562639E0
5.032210625E0,3.426364899E0,9.206569791E-1,2.008778095E0,4.077103767E0
5.037132781E0,3.553401947E0,1.002846956E0,2.019028902E0,4.208187867E0
5.042055163E0,3.688966036E0,1.065600038E0,2.051906109E0,4.353652781E0
5.046977625E0,3.715904951E0,1.199946046E0,1.978113055E0,4.377299553E0
5.051899857E0,3.591298103E0,1.298223972E0,2.072784901E0,4.345025293E0
5.056822231E0,3.363337994E0,1.364843011E0,2.009453058E0,4.148823990E0
5.061744464E0,3.088156939E0,1.424582958E0,2.084836006E0,3.989071453E0
5.066666536E0,2.872844934E0,1.424793005E0,2.343031883E0,3.971532642E0
5.071588995E0,2.671727896E0,1.384508967E0,2.590977907E0,3.970914447E0
5.076511228E0,2.508574963E0,1.303501010E0,2.746650934E0,3.941592899E0
5.081433387E0,2.134196043E0,1.198925972E0,2.861296892E0,3.765532650E0
5.086355770E0,1.816455960E0,1.070783019E0,3.075738907E0,3.729109592E0
5.091278231E0,1.538790941E0,8.830779791E-1,3.223630905E0,3.679606024E0
5.096200401E0,1.196532011E0,7.124329805E-1,3.258522034E0,3.543616154E0
5.101122632E0,8.141810298E-1,4.870809913E-1,3.229052067E0,3.365548379E0
5.106045014E0,4.207220078E-1,1.663019955E-1,3.143098116E0,3.175488801E0
5.110967495E0,1.820970029E-1,-1.617110074E-1,3.022152901E0,3.031949525E0
5.115889957E0,1.466650069E-1,-4.447549880E-1,2.839847088E0,2.878202409E0
5.120812112E0,7.076600194E-2,-7.018409967E-1,2.588723898E0,2.683110142E0
5.125734558E0,-7.289800048E-2,-8.710880280E-1,2.405785084E0,2.559669967E0
5.130656714E0,-2.219460011E-1,-1.040632010E0,2.298672915E0,2.532996679E0
5.135578945E0,-3.954980075E-1,-1.219967961E0,2.310009956E0,2.642136730E0
5.140501112E0,-4.976409972E-1,-1.370702982E0,2.283915997E0,2.709750082E0
5.145423495E0,-5.713800192E-1,-1.475981951E0,2.296672106E0,2.789211467E0
5.150345752E0,-7.266889811E-1,-1.545305014E0,2.410437107E0,2.954022936E0
5.155268134E0,-8.462309837E-1,-1.588253975E0,2.613426924E0,3.173114850E0
5.160190367E0,-9.800630212E-1,-1.655082941E0,2.877276897E0,3.461003527E0
5.165112851E0,-1.099495053E0,-1.741080046E0,3.166538954E0,3.777197115E0
5.170035237E0,-1.252424002E0,-1.848708987E0,3.385925055E0,4.055956025E0
5.174957468E0,-1.395841956E0,-1.975633979E0,3.427903891E0,4.195477263E0
5.179879851E0,-1.659057975E0,-2.114672899E0,3.297292948E0,4.253992903E0
5.184802084E0,-1.939558983E0,-2.241900921E0,3.007853031E0,4.223172817E0
5.189724466E0,-2.252126932E0,-2.371627092E0,2.644957066E0,4.206244009E0
5.194646713E0,-2.626168013E0,-2.510979891E0,2.149878979E0,4.221819284E0
5.199568867E0,-3.049236059E0,-2.612446070E0,1.390285969E0,4.249189345E0
5.204491260E0,-3.477782965E0,-2.673049927E0,1.459009945E-1,4.388787687E0
5.209413721E0,-3.432864904E0,-2.785891056E0,-1.096029997E0,4.554891018E0
5.214335954E0,-3.202821016E0,-2.955393076E0,-2.270773888E0,4.914145373E0
5.219258122E0,-2.986016989E0,-3.126015902E0,-3.570625067E0,5.606927522E0
5.224180581E0,-2.839108944E0,-3.304677010E0,-4.728788853E0,6.429842436E0
5.229102737E0,-2.730134964E0,-3.373981953E0,-5.331221104E0,6.874540682E0
5.234025115E0,-2.655591011E0,-3.025337934E0,-4.985674858E0,6.407947177E0
5.238947576E0,-2.101372004E0,-2.145077944E0,-3.557528019E0,4.655440826E0
5.243869809E0,-6.871079803E-1,-1.404729009E0,-2.080120087E0,2.602360571E0
5.248792202E0,6.381980181E-1,-9.597250223E-1,-1.333371997E0,1.762455591E0
5.253714434E0,1.377269030E0,-4.020499885E-1,-1.628954053E0,2.170715430E0
5.258636574E0,1.553097010E0,6.776999682E-2,-2.274267912E0,2.754813538E0
5.263559034E0,1.365980029E0,3.230929971E-1,-2.569804907E0,2.928171406E0
5.268481204E0,1.140501976E0,5.674319863E-1,-2.612334967E0,2.906375371E0
5.273403586E0,8.707399964E-1,7.741940022E-1,-2.404180050E0,2.671637364E0
5.278325819E0,5.627610087E-1,1.022083998E0,-1.928279042E0,2.253800283E0
5.283248284E0,4.736219943E-1,1.353780031E0,-1.313632965E0,1.944908670E0
5.288170440E0,5.761749744E-1,1.692435026E0,-7.371289730E-1,1.933823426E0
5.293092822E0,7.983919978E-1,1.994819999E0,-2.341759950E-1,2.161382661E0
5.298015055E0,1.073737979E0,2.150832891E0,2.053460032E-1,2.412708510E0
5.302937515E0,1.192450047E0,2.206132889E0,5.674740076E-1,2.571183810E0
5.307859901E0,1.179231048E0,2.163218975E0,8.191239834E-1,2.596356350E0
5.312782121E0,7.626379728E-1,2.137248993E0,1.037634969E0,2.495222688E0
5.317704504E0,1.908670068E-1,2.044186115E0,1.134490967E0,2.345676201E0
5.322626722E0,-3.275640011E-1,1.970216990E0,1.148241997E0,2.303803994E0
5.327549105E0,-6.842280030E-1,1.901116967E0,1.210747957E0,2.355488123E0
5.332471333E0,-9.695490003E-1,1.796322942E0,1.223891020E0,2.380065252E0
5.337393487E0,-1.221181989E0,1.816388965E0,1.247678995E0,2.519376350E0
5.342315946E0,-1.350041032E0,1.848970056E0,1.238798976E0,2.603060498E0
5.347238336E0,-1.427449942E0,1.982831955E0,1.168378949E0,2.708199636E0
5.352160569E0,-1.417150021E0,2.107934952E0,1.333297014E0,2.868690445E0
5.357082956E0,-1.299725056E0,2.200292110E0,1.604711056E0,3.017559969E0
5.362005189E0,-1.180119038E0,2.250160933E0,1.763525009E0,3.092883060E0
5.366927572E0,-1.089077950E0,2.300345898E0,1.852123022E0,3.147704198E0
5.371849784E0,-1.019575953E0,2.393503904E0,1.671064019E0,3.092062584E0
5.376772167E0,-9.456019998E-1,2.447805882E0,1.293604016E0,2.925632945E0
5.381694400E0,-9.180449843E-1,2.522919893E0,7.844899893E-1,2.797026265E0
5.386616554E0,-9.330559969E-1,2.580519915E0,4.251799881E-1,2.776770524E0
5.391538936E0,-1.042170048E0,2.558393002E0,8.953800052E-2,2.763966391E0
5.396461155E0,-1.076462984E0,2.475738049E0,-2.573870122E-1,2.711881176E0
5.401383615E0,-9.216319919E-1,2.351830959E0,-5.737180114E-1,2.590302443E0
5.406305770E0,-6.922219992E-1,2.151045084E0,-1.039759040E0,2.487421378E0
5.411228167E0,-3.250969946E-1,1.890418053E0,-1.432996035E0,2.394336256E0
5.416150400E0,1.716230065E-1,1.709283948E0,-1.732102990E0,2.439525946E0
5.421072874E0,7.705420256E-1,1.567473054E0,-1.796499014E0,2.505616789E0
5.425995030E0,1.358032942E0,1.324280977E0,-1.567147970E0,2.460472788E0
5.430917490E0,1.963904977E0,9.657329917E-1,-1.013327003E0,2.411720254E0
5.435839902E0,2.716217995E0,5.758889914E-1,-5.754340291E-1,2.835597406E0
5.440762058E0,3.187511921E0,2.772699893E-1,1.889020056E-1,3.205120101E0
5.445684289E0,2.770042896E0,1.823859960E-1,1.076449990E0,2.977439652E0
5.450606672E0,2.117537975E0,1.926610023E-1,1.753219008E0,2.755877760E0
5.455528904E0,1.588641047E0,3.026790023E-1,2.551132917E0,3.020542024E0
5.460451302E0,1.320112944E0,2.052029967E-1,3.339181900E0,3.596518068E0
5.465373535E0,1.143329024E0,3.140699863E-2,4.022519112E0,4.181966961E0
5.470295923E0,1.098976970E0,8.978399634E-2,4.028017044E0,4.176210346E0
5.475218155E0,8.908979893E-1,1.531520039E-1,3.989651918E0,4.090779534E0
5.480140615E0,5.292220116E-1,1.520940065E-1,3.900623083E0,3.939298029E0
5.485062771E0,1.960159987E-1,1.606860012E-1,3.802298069E0,3.810736526E0
5.489985153E0,-9.901700169E-2,1.356779933E-1,3.633150101E0,3.637030731E0
5.494907615E0,-3.604499996E-1,1.344839931E-1,3.482228041E0,3.503415801E0
5.499829785E0,-6.288880110E-1,1.090959981E-1,3.343003035E0,3.403391155E0
5.504752016E0,-8.159829974E-1,1.024599969E-1,3.117821932E0,3.224459629E0
5.509674398E0,-8.331689835E-1,1.098010018E-1,2.804217100E0,2.927432383E0
5.514596631E0,-6.372349858E-1,6.413400173E-2,2.521766901E0,2.601824341E0
5.519519014E0,-3.499799967E-1,-4.165200144E-2,2.234539986E0,2.262164856E0
5.524441159E0,-1.935199946E-1,-1.954600066E-1,1.913723946E0,1.933389237E0
5.529363388E0,-5.371000152E-3,-2.872900069E-1,1.538182974E0,1.564791122E0
5.534285850E0,2.619220018E-1,-3.268069923E-1,1.151005030E0,1.224834080E0
5.539208229E0,5.338860154E-1,-3.642979860E-1,9.075539708E-1,1.114181991E0
5.544130462E0,7.888299823E-1,-4.213300049E-1,7.143999934E-1,1.144613063E0
5.549052850E0,8.399509788E-1,-4.571579993E-1,5.616130233E-1,1.109017705E0
5.553975083E0,7.804679871E-1,-4.933530092E-1,3.150720000E-1,9.756012688E-1
5.558897465E0,6.150969863E-1,-4.915849864E-1,1.085330024E-1,7.948455913E-1
5.563819698E0,3.438430130E-1,-5.165029764E-1,-1.251600031E-2,6.206125946E-1
5.568742081E0,5.293700099E-2,-4.699879885E-1,-3.803199902E-2,4.744865312E-1
5.573664313E0,-1.474300027E-1,-3.377490044E-1,-3.912900016E-2,3.705955670E-1
5.578586687E0,-3.048680127E-1,-2.443179935E-1,2.819499932E-2,3.917023680E-1
5.583508920E0,-4.287320077E-1,-1.633509994E-1,1.907979995E-1,4.968888810E-1
5.588431292E0,-4.732919931E-1,-6.130100042E-2,3.150910139E-1,5.718788949E-1
5.593353525E0,-5.509889722E-1,-1.057389975E-1,5.425029993E-1,7.804351910E-1
5.598275908E0,-5.998780131E-1,-1.649959981E-1,6.958079934E-1,9.333949184E-1
5.603198184E0,-5.629150271E-1,-2.438679934E-1,8.033800125E-1,1.010823610E0
5.608120566E0,-4.308080077E-1,-2.585220039E-1,8.741090298E-1,1.008214145E0
5.613042785E0,-2.683689892E-1,-2.950640023E-1,9.929659963E-1,1.070077637E0
5.617965168E0,-1.988199912E-2,-3.117139935E-1,1.283133984E0,1.320603547E0
5.622887629E0,2.044280022E-1,-2.904730141E-1,1.638427019E0,1.676486945E0
5.627809842E0,3.219510019E-1,-2.934759855E-1,1.984843969E0,2.032089118E0
5.632732225E0,3.286679983E-1,-2.991499901E-1,2.320596933E0,2.362770301E0
5.637654380E0,4.669269919E-1,-2.097350061E-1,2.572725058E0,2.623151504E0
5.642576591E0,6.616830230E-1,-1.068419963E-1,2.723381042E0,2.804646847E0
5.647498975E0,8.814859986E-1,1.426099986E-2,2.861407995E0,2.994140387E0
5.652421098E0,1.059252024E0,5.838299915E-2,2.782058001E0,2.977460351E0
5.657343557E0,1.261263967E0,2.145729959E-1,2.396279097E0,2.716428146E0
5.662265790E0,1.459063053E0,3.990939856E-1,1.911685944E0,2.437762119E0
5.667188177E0,1.729696989E0,5.593519807E-1,1.573856950E0,2.404527399E0
5.672110409E0,1.959033012E0,6.571419835E-1,1.398993969E0,2.495361708E0
5.677032783E0,2.045099020E0,7.955390215E-1,1.363034010E0,2.583248739E0
5.681955016E0,2.101061106E0,9.674159884E-1,1.408529043E0,2.708192299E0
5.686877475E0,2.156059027E0,1.000401020E0,1.592880011E0,2.861233904E0
5.691799635E0,2.037909985E0,1.109972954E0,1.875810027E0,2.983920294E0
5.696722018E0,1.720275998E0,1.226659060E0,2.133124113E0,3.002375799E0
5.701644479E0,1.051797986E0,1.424587011E0,2.489737988E0,3.055245064E0
5.706566396E0,-1.678499952E-2,1.571861982E0,2.787815094E0,3.200460096E0
5.711488778E0,-6.136779785E-1,1.740018010E0,2.952984095E0,3.482007812E0
5.716411001E0,-8.976809978E-1,1.758947968E0,3.160151958E0,3.726431206E0
5.721333384E0,-1.220556021E0,1.935158014E0,3.117661953E0,3.867093171E0
5.726255616E0,-1.443626046E0,2.010051012E0,2.837882996E0,3.765360690E0
5.731178004E0,-1.368245006E0,1.859119058E0,2.438230991E0,3.357586698E0
5.736100237E0,-1.080157042E0,1.597344995E0,1.969063044E0,2.755986128E0
5.741022619E0,-7.918969989E-1,1.380414963E0,1.700726986E0,2.329188401E0
5.745944876E0,-4.525429904E-1,1.098268032E0,1.561332941E0,1.961822719E0
5.750867336E0,-2.268069983E-1,9.520769715E-1,1.392946005E0,1.702407280E0
5.755789722E0,-6.673300266E-2,8.676279783E-1,1.389492035E0,1.639487639E0
5.760711924E0,2.525919974E-1,6.964660287E-1,1.175366998E0,1.389372242E0
5.765634307E0,7.144420147E-1,5.056800246E-1,8.108900189E-1,1.193181588E0
5.770556453E0,1.096066952E0,-3.325999947E-3,4.141719937E-1,1.171713389E0
5.775478682E0,1.323662996E0,-8.524169922E-1,1.559240073E-1,1.582090627E0
5.780401057E0,1.439705968E0,-2.156320095E0,1.355870068E-1,2.596315363E0
5.785323290E0,1.601920962E0,-3.669887066E0,1.893669963E-1,4.008750641E0
5.790245672E0,2.093534946E0,-5.061430931E0,5.645580292E-1,5.506332483E0
5.795167924E0,2.725680113E0,-6.029066086E0,1.594997048E0,6.806099142E0
5.800090307E0,3.599297047E0,-6.718368053E0,2.289845943E0,7.958316592E0
5.805012540E0,4.624093056E0,-7.018710136E0,2.330699921E0,8.722195291E0
5.809934903E0,5.734067917E0,-6.903381824E0,1.493381023E0,9.097604211E0
5.814857365E0,7.000592232E0,-6.637954235E0,-1.658159941E-1,9.648742041E0
5.819779598E0,8.263698578E0,-6.294301033E0,-2.437632084E0,1.067000421E1
5.824701965E0,8.836689949E0,-5.606885910E0,-4.457942963E0,1.137530282E1
5.829624198E0,8.317469597E0,-4.420364857E0,-5.790944099E0,1.105689647E1
5.834546338E0,7.367487907E0,-3.072736979E0,-6.046760082E0,1.001423477E1
5.839468720E0,5.846504211E0,-1.698176026E0,-5.394032001E0,8.133940899E0
5.844390953E0,4.284611225E0,-4.379360080E-1,-4.599587917E0,6.301261009E0
5.849313336E0,3.074680090E0,7.127019763E-1,-4.030632973E0,5.119336278E0
5.854235569E0,2.376604080E0,1.739979029E0,-3.516202927E0,4.586878786E0
5.859157984E0,2.141808987E0,2.407097101E0,-2.854562044E0,4.304647100E0
5.864080217E0,2.223829031E0,2.701057911E0,-1.983260036E0,4.021747104E0
5.869002600E0,2.648709059E0,2.691303015E0,-1.313392997E0,3.997971080E0
5.873924847E0,3.166310072E0,2.603446007E0,-9.920340180E-1,4.217532700E0
5.878847307E0,3.559421062E0,2.454689026E0,-8.627799749E-1,4.409009617E0
5.883769694E0,3.811611891E0,2.183171988E0,-9.394840002E-1,4.491909986E0
5.888691914E0,3.991257906E0,1.793871045E0,-1.229056954E0,4.545183604E0
5.893614297E0,3.989984989E0,1.231847048E0,-1.534106970E0,4.448697737E0
5.898536424E0,3.912548065E0,7.218160033E-1,-1.625224948E0,4.297721121E0
5.903458653E0,3.715451956E0,3.184889853E-1,-1.264515996E0,3.937641321E0
5.908381042E0,3.667351961E0,8.138000220E-2,-7.232890129E-1,3.738882200E0
5.913303275E0,3.631412983E0,-3.489600122E-2,-2.512240112E-1,3.640259810E0
5.918225658E0,3.570147991E0,-9.482099861E-2,3.382709920E-1,3.587391108E0
5.923147906E0,3.445677042E0,-2.413999988E-3,8.192409873E-1,3.541730072E0
5.928070288E0,3.213490963E0,1.588550061E-1,1.143075943E0,3.414437244E0
5.932992521E0,2.967217922E0,3.484629989E-1,1.275694013E0,3.248569512E0
5.937914980E0,2.745531082E0,4.755919874E-1,1.216282010E0,3.040307647E0
5.942837367E0,2.481828928E0,6.098390222E-1,1.008990049E0,2.747624316E0
5.947759598E0,2.479202986E0,5.474929810E-1,5.715289712E-1,2.602468323E0
5.952681967E0,2.460645914E0,4.681900144E-1,1.821980029E-1,2.511409229E0
5.957604199E0,2.431898117E0,3.193449974E-1,-1.619699970E-2,2.452829391E0
5.962526606E0,2.407325983E0,2.230110019E-1,2.370299958E-2,2.417749807E0
5.967448839E0,2.405934095E0,1.600140035E-1,2.190250009E-1,2.421176430E0
5.972370988E0,2.417586088E0,1.781599969E-1,4.355739951E-1,2.462963293E0
5.977293370E0,2.391932011E0,2.511569858E-1,6.374729872E-1,2.488129897E0
5.982215832E0,2.245557070E0,3.887690008E-1,6.988340020E-1,2.383702341E0
5.987138070E0,1.862472057E0,5.459439754E-1,6.752259731E-1,2.054942117E0
5.992060223E0,1.289623976E0,6.465529799E-1,6.859989762E-1,1.597421469E0
5.996982596E0,1.103163958E0,6.035090089E-1,6.292459965E-1,1.406109656E0
6.001904829E0,9.508969784E-1,5.939149857E-1,6.836689711E-1,1.313142542E0
6.006827288E0,8.586890101E-1,6.439920068E-1,7.132620215E-1,1.288726205E0
6.011749678E0,7.454710007E-1,7.275300026E-1,6.617209911E-1,1.234058989E0
6.016671911E0,6.142619848E-1,8.136100173E-1,6.198490262E-1,1.193101782E0
6.021594293E0,4.774670005E-1,9.095699787E-1,5.496820211E-1,1.165093390E0
6.026516223E0,2.999629974E-1,9.845430255E-1,5.463129878E-1,1.165229870E0
6.031438606E0,1.440420002E-1,1.017027974E0,5.428789854E-1,1.161813923E0
6.036361106E0,-1.041229963E-1,1.069653988E0,5.488139987E-1,1.206730317E0
6.041283338E0,-4.625779986E-1,1.116498947E0,4.929369986E-1,1.305195460E0
6.046205721E0,-7.833330035E-1,1.155071974E0,3.498370051E-1,1.438814717E0
6.051127959E0,-1.088227987E0,1.156599998E0,1.015629992E-1,1.591313530E0
6.056050341E0,-1.313565016E0,1.104035020E0,-1.843069941E-1,1.725779663E0
6.060972574E0,-1.476809978E0,1.054628968E0,-4.667679965E-1,1.873788231E0
6.065895024E0,-1.607102036E0,9.747430086E-1,-7.310879827E-1,2.016777263E0
6.070817180E0,-1.714308023E0,9.097859859E-1,-9.579039812E-1,2.164288007E0
6.075739639E0,-1.829319000E0,8.095859885E-1,-1.173122048E0,2.319062918E0
6.080661991E0,-1.909332037E0,7.123249769E-1,-1.260367990E0,2.396139222E0
6.085584147E0,-1.909451008E0,6.010270119E-1,-1.267766953E0,2.369487216E0
6.090506301E0,-1.911015987E0,4.805090129E-1,-1.207283974E0,2.310931762E0
6.095428529E0,-1.875727057E0,2.957110107E-1,-1.100258946E0,2.194622233E0
6.100350991E0,-1.770503044E0,1.279260069E-1,-1.024768949E0,2.049682290E0
6.105273390E0,-1.666944027E0,-5.626200140E-2,-9.874299765E-1,1.938268753E0
6.110195545E0,-1.479406953E0,-2.235060036E-1,-1.002140999E0,1.800801612E0
6.115117776E0,-1.208122015E0,-3.954420090E-1,-1.018736959E0,1.629035965E0
6.120040236E0,-6.935510039E-1,-6.604359746E-1,-1.093191981E0,1.453360719E0
6.124962392E0,-1.880570054E-1,-8.909929991E-1,-1.063133001E0,1.399816324E0
6.129884774E0,2.217240036E-1,-9.978820086E-1,-9.893910289E-1,1.422611909E0
6.134807241E0,5.204859972E-1,-9.830330014E-1,-8.682529926E-1,1.411071513E0
6.139729474E0,7.894369960E-1,-8.896250129E-1,-7.290660143E-1,1.395055801E0
6.144651856E0,1.008095980E0,-6.511489749E-1,-5.518829823E-1,1.320919119E0
6.149574098E0,1.124055982E0,-2.019319981E-1,-3.206079900E-1,1.186198915E0
6.154496481E0,1.213999033E0,1.108890027E-1,-9.245199710E-2,1.222553637E0
6.159418646E0,1.258357048E0,4.523879886E-1,1.209499985E-1,1.342663865E0
6.164341106E0,1.150377035E0,7.678560019E-1,2.916890085E-1,1.413524899E0
6.169263358E0,1.024191976E0,9.663559794E-1,3.564740121E-1,1.452544940E0
6.174185740E0,1.031942010E0,1.052317023E0,3.260639906E-1,1.509500962E0
6.179107896E0,1.108428955E0,1.073421001E0,2.651270032E-1,1.565611613E0
6.184030135E0,1.279337049E0,1.048580050E0,1.927430034E-1,1.665344791E0
6.188952597E0,1.489896059E0,9.467440248E-1,1.322080046E-1,1.770195885E0
6.193874981E0,1.711562037E0,8.278070092E-1,1.279260069E-1,1.905537750E0
6.198797204E0,1.932780981E0,6.727470160E-1,6.725600362E-2,2.047621605E0
6.203719587E0,2.170718908E0,4.649380147E-1,-1.258870065E-1,2.223518715E0
6.208641819E0,2.313522100E0,3.147319853E-1,-4.179030061E-1,2.371936689E0
6.213564216E0,2.371001959E0,2.198009938E-1,-6.758689880E-1,2.475229617E0
6.218486449E0,2.341226101E0,1.252360046E-1,-8.555909991E-1,2.495808420E0
6.223408812E0,2.259964943E0,5.972800031E-2,-1.012827039E0,2.477262115E0
6.228330968E0,2.129281044E0,-3.153000027E-3,-1.079316974E0,2.387210262E0
6.233253197E0,1.967671037E0,3.696300089E-2,-1.010607958E0,2.212334517E0
6.238175582E0,1.802494049E0,8.368799835E-2,-8.166379929E-1,1.980627701E0
6.243098043E0,1.637305021E0,1.735599935E-1,-5.226420164E-1,1.727438995E0
6.248020271E0,1.563637972E0,3.012109995E-1,-1.672469974E-1,1.601144382E0
6.252942654E0,1.474210978E0,3.949370086E-1,1.080520004E-1,1.530015844E0
6.257864886E0,1.376008987E0,5.432509780E-1,3.663400114E-1,1.524049659E0
6.262787284E0,1.253065944E0,6.434100270E-1,5.028480291E-1,1.495662683E0
6.267709517E0,1.245350003E0,6.853380203E-1,5.343909860E-1,1.518604148E0
6.272631899E0,9.678329825E-1,6.947709918E-1,4.657259881E-1,1.279182594E0
6.277554132E0,5.085549951E-1,5.941889882E-1,3.341810107E-1,8.505090738E-1
6.282476515E0,2.591049969E-1,4.709709883E-1,2.113800049E-1,5.776076330E-1
6.287398757E0,2.325389981E-1,3.501909971E-1,1.884170026E-1,4.606615753E-1
6.292320910E0,2.229070067E-1,2.533990145E-1,2.256869972E-1,4.059965700E-1
6.297243370E0,2.160930037E-1,1.982640028E-1,3.891629875E-1,4.872911162E-1
6.302165760E0,2.471030056E-1,1.453810036E-1,7.444840074E-1,7.977793986E-1
6.307087992E0,4.364619851E-1,1.037679985E-1,1.107879996E0,1.195267731E0
6.312010146E0,7.018409967E-1,1.975390017E-1,1.254557967E0,1.451040363E0
6.316932539E0,7.773910165E-1,2.574979961E-1,1.354933977E0,1.583189216E0
6.321855000E0,8.950750232E-1,3.147070110E-1,1.589480996E0,1.851121184E0
6.326777233E0,1.002300978E0,4.146760106E-1,1.795572042E0,2.097770818E0
6.331699606E0,1.040053964E0,5.002610087E-1,2.053980112E0,2.356015201E0
6.336621839E0,1.189478993E0,5.591520071E-1,2.200840950E0,2.563437561E0
6.341543993E0,1.190873027E0,6.324610114E-1,2.187596083E0,2.569778613E0
6.346466370E0,9.477319717E-1,6.966800094E-1,1.619276047E0,2.001402968E0
6.351388603E0,7.637569904E-1,7.299929857E-1,7.258340120E-1,1.281814929E0
6.356310900E0,5.980460048E-1,7.516689897E-1,4.791589975E-1,1.073433109E0
6.361233132E0,8.655819893E-1,7.248860002E-1,1.468830943E0,1.852607954E0
6.366155515E0,1.325981021E0,7.090330124E-1,2.040235996E0,2.534465703E0
6.371077757E0,1.408941984E0,5.857710242E-1,2.093106031E0,2.590238998E0
6.376000139E0,1.333250046E0,4.751690030E-1,2.153901100E0,2.577330250E0
6.380922362E0,1.277428985E0,4.401119947E-1,2.123202085E0,2.516646673E0
6.385844822E0,1.207250953E0,3.666679859E-1,1.790210009E0,2.190148888E0
6.390767208E0,1.201691031E0,2.452780008E-1,1.420268059E0,1.876535103E0
6.395689415E0,1.215162992E0,1.885100007E-1,1.191864967E0,1.712512546E0
6.400611798E0,1.324278951E0,7.913299650E-2,1.259546995E0,1.829326489E0
6.405533954E0,1.478644013E0,3.207600117E-2,1.536721945E0,2.132822385E0
6.410456203E0,1.669018984E0,4.379999824E-3,1.982898951E0,2.591820171E0
6.415378587E0,1.857507944E0,3.683999926E-2,2.493818045E0,3.109794429E0
6.420300781E0,1.936730981E0,8.165299892E-2,2.981720924E0,3.556438355E0
6.425223163E0,1.878067970E0,1.555570066E-1,3.299145937E0,3.799434326E0
6.430145396E0,1.726871014E0,2.512559891E-1,3.449316025E0,3.865616912E0
6.435067813E0,1.695891023E0,3.422499895E-1,3.425601959E0,3.837698555E0
6.439990046E0,1.287145019E0,4.692060053E-1,3.343463898E0,3.613259942E0
6.444912428E0,8.995130062E-1,5.479710102E-1,3.224503040E0,3.392169768E0
6.449834689E0,7.095969915E-1,5.496119857E-1,3.080534935E0,3.208628478E0
6.454757149E0,5.231869817E-1,6.536089778E-1,2.933063030E0,3.050211149E0
6.459679507E0,4.719229937E-1,7.522190213E-1,2.808110952E0,2.945170944E0
6.464601738E0,2.930180132E-1,8.001660109E-1,2.636107922E0,2.770413358E0
6.469523858E0,1.852820069E-1,8.142809868E-1,2.655963898E0,2.784156456E0
6.474446240E0,2.944600023E-2,7.277269959E-1,2.677959919E0,2.775233860E0
6.479368458E0,-1.550509930E-1,6.963000298E-1,2.737301111E0,2.828726200E0
6.484290841E0,-4.134919941E-1,6.411160231E-1,2.867013931E0,2.966778432E0
6.489212997E0,-7.196090221E-1,5.932719707E-1,3.004959106E0,3.146361074E0
6.494135461E0,-9.465690255E-1,4.689149857E-1,3.156330109E0,3.328407117E0
6.499057617E0,-1.149255991E0,3.997370005E-1,3.321754932E0,3.537602978E0
6.503979848E0,-1.284469962E0,3.449850082E-1,3.377566099E0,3.629990426E0
6.508902317E0,-1.404705048E0,2.447810024E-1,3.185689926E0,3.490234135E0
6.513824702E0,-1.420933962E0,1.734600067E-1,3.028898954E0,3.350129934E0
6.518746935E0,-1.440451026E0,1.263169944E-1,2.778393030E0,3.132143511E0
6.523669318E0,-1.427044034E0,2.279179990E-1,2.532583952E0,2.915884559E0
6.528591550E0,-1.394966006E0,2.388460040E-1,2.336920977E0,2.732064645E0
6.533513704E0,-1.240991950E0,1.328430027E-1,2.143394947E0,2.480292358E0
6.538436164E0,-1.137249947E0,7.522200048E-2,2.116800070E0,2.404129432E0
6.543358548E0,-9.808620214E-1,2.527100034E-2,2.149005890E0,2.362404547E0
6.548280713E0,-7.958409786E-1,9.069799632E-2,2.007625103E0,2.161515104E0
6.553202944E0,-5.249540210E-1,5.596400052E-2,2.116053104E0,2.180914816E0
6.558125414E0,-2.520020008E-1,1.202700008E-2,1.947535992E0,1.963809078E0
6.563047875E0,6.600099802E-2,-5.195000209E-3,1.994820952E0,1.995919275E0
6.567970031E0,3.667759895E-1,4.259900004E-2,1.922526002E0,1.957663283E0
6.572892491E0,7.341099977E-1,7.162500173E-2,1.953048944E0,2.087689586E0
6.577814723E0,1.084331989E0,5.320100114E-2,1.832432032E0,2.129885762E0
6.582737106E0,1.405719995E0,-1.418289989E-1,1.847447991E0,2.325774764E0
6.587659315E0,1.753211975E0,-1.878490001E-1,1.878059983E0,2.576072355E0
6.592581697E0,1.973631024E0,-1.829849929E-1,1.739681959E0,2.637270606E0
6.597503944E0,2.155304909E0,-1.488620043E-1,1.882325053E0,2.865422613E0
6.602426098E0,2.307270050E0,-7.616899908E-2,1.911514044E0,2.997195813E0
6.607348548E0,2.443250895E0,-7.766900212E-2,1.937603951E0,3.119265375E0
6.612270932E0,2.497955084E0,-3.395299986E-2,1.839208961E0,3.102196320E0
6.617193204E0,2.645364046E0,-3.636600077E-2,1.849341035E0,3.227899578E0
6.622115587E0,2.748507023E0,-2.054000087E-2,1.736619949E0,3.251240009E0
6.627037819E0,2.821135998E0,1.018010005E-1,1.686213970E0,3.288234985E0
6.631960173E0,2.670927048E0,1.435759962E-1,1.583891988E0,3.108565455E0
6.636882406E0,2.576668978E0,2.528080046E-1,1.245674014E0,2.873123502E0
6.641804788E0,2.486818075E0,2.616559863E-1,9.919890165E-1,2.690124570E0
6.646727235E0,2.563296080E0,3.063200116E-1,5.310180187E-1,2.635583214E0
6.651649391E0,2.600260973E0,1.832630038E-1,1.909330040E-1,2.613694295E0
6.656571622E0,2.499356985E0,-2.369190007E-1,3.597959876E-1,2.536211565E0
6.661494004E0,2.258049011E0,-3.820399940E-1,2.162079960E-1,2.300322976E0
6.666416160E0,1.811665058E0,-2.451860011E-1,-2.988199890E-1,1.852441590E0
6.671338380E0,1.229432940E0,-9.494499862E-2,-6.310539842E-1,1.385189171E0
6.676260841E0,5.395100117E-1,-1.018470004E-1,-1.117092013E0,1.244724239E0
6.681183250E0,-2.898199856E-1,-3.741439879E-1,-2.067670107E0,2.121140971E0
6.686105406E0,-1.015210032E0,-7.779229879E-1,-2.375514030E0,2.697940417E0
6.691027865E0,-1.330600977E0,-1.303511024E0,-2.552488089E0,3.159879015E0
6.695950006E0,-1.340312958E0,-1.960060000E0,-2.894587994E0,3.743916890E0
6.700872237E0,-1.195863962E0,-2.583960056E0,-3.106904030E0,4.214236923E0
6.705794697E0,-1.106109977E0,-3.009166956E0,-3.308342934E0,4.606918495E0
6.710717072E0,-9.913709760E-1,-3.184747934E0,-3.514971018E0,4.845663739E0
6.715639305E0,-7.722150087E-1,-3.242022038E0,-3.447453976E0,4.794993412E0
6.720561688E0,-5.677319765E-1,-3.272011042E0,-4.093918800E0,5.271484326E0
6.725483844E0,-2.055899948E-1,-3.254908085E0,-6.143648148E0,6.955652841E0
6.730406068E0,7.558900118E-2,-2.826809883E0,-7.069344044E0,7.613947269E0
6.735328452E0,3.773880005E-1,-2.388549089E0,-4.780385017E0,5.357207236E0
6.740250665E0,9.213730097E-1,-1.824401021E0,-1.587651968E0,2.588050633E0
6.745173047E0,1.611134052E0,-1.318853021E0,3.733500093E-2,2.082431302E0
6.750095280E0,2.239460945E0,-1.152922988E0,-1.346269995E-1,2.522407812E0
6.755017653E0,2.800723076E0,-1.036219001E0,-7.899969816E-1,3.088995759E0
6.759939886E0,3.142698050E0,-1.152083039E0,-1.787292957E0,3.794504246E0
6.764862263E0,3.420051098E0,-1.443874955E0,-3.665576935E0,5.217085265E0
6.769784725E0,3.311074972E0,-1.588011026E0,-4.174180031E0,5.559566118E0
6.774706957E0,2.931915045E0,-1.516435027E0,-4.010094166E0,5.193896056E0
6.779629355E0,2.665692091E0,-1.413128018E0,-3.328639030E0,4.492514097E0
6.784551588E0,2.555478096E0,-1.263425946E0,-1.478045940E0,3.211126473E0
6.789473756E0,2.592096090E0,-1.103978992E0,7.502390146E-1,2.915577187E0
6.794396138E0,2.538944006E0,-1.079689026E0,2.575141907E0,3.774032445E0
6.799318385E0,2.298437119E0,-1.188619971E0,4.793330193E0,5.447168527E0
6.804240768E0,1.977098942E0,-9.963380098E-1,5.967280865E0,6.364750629E0
6.809162987E0,1.617490053E0,-5.441020131E-1,6.075640202E0,6.310762627E0
6.814085369E0,1.243471980E0,-9.170000441E-3,6.078094959E0,6.203994277E0
6.819007602E0,1.067688942E0,6.489650011E-1,5.916749954E0,6.047234514E0
6.823929985E0,8.980600238E-1,1.487506032E0,5.474082947E0,5.743236902E0
6.828852217E0,9.783530235E-1,2.286047935E0,4.809737206E0,5.414495525E0
6.833774672E0,1.138942003E0,2.927138090E0,4.276478767E0,5.305996319E0
6.838697059E0,1.212978959E0,3.408269882E0,3.935364008E0,5.345531912E0
6.843619289E0,1.226001978E0,3.724706888E0,3.675576925E0,5.374605845E0
6.848541667E0,1.318961024E0,3.912537098E0,3.609143972E0,5.483933346E0
6.853463823E0,1.497041941E0,3.866643906E0,3.573246002E0,5.473587184E0
6.858386052E0,1.522218943E0,3.752784014E0,3.735728979E0,5.509646937E0
6.863308436E0,1.451130033E0,3.645479918E0,3.865247011E0,5.507761492E0
6.868230669E0,1.246996045E0,3.439460993E0,3.965493917E0,5.395371448E0
6.873153129E0,9.254469872E-1,3.098885059E0,4.092589855E0,5.216208629E0
6.878075515E0,4.967739880E-1,2.721682072E0,4.274048805E0,5.091348631E0
6.882997741E0,4.520000145E-2,2.379208088E0,4.255074024E0,4.875277337E0
6.887920124E0,-3.521389961E-1,2.066253901E0,4.152031898E0,4.651104809E0
6.892842366E0,-5.682089925E-1,1.660333037E0,3.985052109E0,4.354332046E0
6.897764749E0,-7.898030281E-1,1.175593972E0,4.029936790E0,4.271557157E0
6.902686982E0,-9.985859990E-1,7.887319922E-1,3.992415905E0,4.190305110E0
6.907609340E0,-1.061653018E0,5.042139888E-1,4.025235176E0,4.193310995E0
6.912531573E0,-8.920109868E-1,1.589040011E-1,4.153756142E0,4.251426133E0
6.917453956E0,-6.199949980E-1,-1.396259964E-1,4.226406097E0,4.273920649E0
6.922376117E0,-2.460339963E-1,-3.674769998E-1,4.302642822E0,4.325310085E0
6.927298345E0,2.588309944E-1,-7.136399746E-1,4.334407806E0,4.400382543E0
6.932220832E0,6.465349793E-1,-9.958099723E-1,4.173455238E0,4.339052155E0
6.937143217E0,8.774639964E-1,-1.268797040E0,4.062160015E0,4.345219555E0
6.942065373E0,9.428930283E-1,-1.515604973E0,4.158936977E0,4.525799651E0
6.946987617E0,8.770939708E-1,-1.721724987E0,4.076434135E0,4.511202282E0
6.951910077E0,6.665160060E-1,-1.860605955E0,3.853410006E0,4.330688950E0
6.956832233E0,3.812330067E-1,-2.008670092E0,3.763130903E0,4.282668366E0
6.961754697E0,-1.908699982E-2,-1.995808959E0,3.583143950E0,4.101528773E0
6.966677082E0,-4.720489979E-1,-1.915462017E0,3.593960047E0,4.099801680E0
6.971599315E0,-8.103569746E-1,-1.784623981E0,3.503720045E0,4.014674997E0
6.976521692E0,-1.139423013E0,-1.600862026E0,3.348211050E0,3.882210873E0
6.981443848E0,-1.267971039E0,-1.349836946E0,3.335530043E0,3.815176405E0
6.986366063E0,-1.275264978E0,-9.764339924E-1,3.482028961E0,3.834612079E0
6.991288524E0,-1.374578953E0,-5.860930085E-1,3.658436060E0,3.951851049E0
6.996210680E0,-1.395838976E0,-1.309490055E-1,3.048460007E0,3.355387087E0
7.001133063E0,-1.491981983E0,1.907210052E-1,2.838952065E0,3.212792176E0
7.006055296E0,-1.560390949E0,4.699209929E-1,2.548187971E0,3.024716117E0
7.010977769E0,-1.649337053E0,7.018899918E-1,2.295336008E0,2.912306589E0
7.015899848E0,-1.752081990E0,8.578940034E-1,2.075074911E0,2.848106267E0
7.020822077E0,-1.833392978E0,1.057495952E0,1.661821961E0,2.690962603E0
7.025744798E0,-1.970415950E0,1.123489976E0,1.385421991E0,2.657849288E0
7.030667031E0,-1.998443961E0,1.168270946E0,1.099488020E0,2.562715196E0
7.035589414E0,-1.910231948E0,1.067370057E0,9.428650141E-1,2.382700016E0
7.040511661E0,-1.633751988E0,8.662400246E-1,9.350050092E-1,2.072136990E0
7.045433814E0,-1.306947947E0,7.876780033E-1,5.356150270E-1,1.617230048E0
7.050356279E0,-9.044650197E-1,7.268999815E-1,4.633069932E-1,1.249437443E0
7.055278435E0,-4.544929862E-1,5.857599974E-1,7.282720208E-1,1.039258767E0
7.060200608E0,-9.296800196E-2,3.762429953E-1,1.039054036E0,1.108979319E0
7.065123067E0,2.305780053E-1,3.089250028E-1,1.209447026E0,1.269394731E0
7.070045529E0,4.087069929E-1,2.904720008E-1,1.357051015E0,1.446721413E0
7.074967613E0,6.309400201E-1,3.015800118E-1,1.573722959E0,1.722103296E0
7.079890072E0,8.151509762E-1,3.181760013E-1,1.880393028E0,2.074026283E0
7.084812228E0,9.943029881E-1,3.255760074E-1,2.152647018E0,2.393434218E0
7.089734707E0,1.151196003E0,3.499769866E-1,2.399864912E0,2.684601968E0
7.094656939E0,1.328191996E0,3.120659888E-1,2.528516054E0,2.873129408E0
7.099579322E0,1.534129024E0,2.858609855E-1,2.621989965E0,3.051245605E0
7.104501551E0,1.622262955E0,1.346870065E-1,2.766141891E0,3.209582317E0
7.109423933E0,1.741760015E0,-1.231400017E-2,2.877823114E0,3.363888444E0
7.114346093E0,1.921687961E0,-1.385650039E-1,2.244518995E0,2.958031507E0
7.119268553E0,1.954022050E0,-2.676129937E-1,1.957301021E0,2.778641066E0
7.124190709E0,1.857962012E0,-3.012129962E-1,1.671234965E0,2.517097221E0
7.129112939E0,1.757886052E0,-3.375369906E-1,1.465201974E0,2.313203713E0
7.134035399E0,1.615553021E0,-3.861759901E-1,1.193264961E0,2.045244418E0
7.138957546E0,1.424028039E0,-4.615449905E-1,8.630959988E-1,1.727950907E0
7.143879929E0,1.312747955E0,-6.259949803E-1,5.853059888E-1,1.567724469E0
7.148802390E0,1.382735968E0,-6.472799778E-1,2.575820088E-1,1.548314767E0
7.153724618E0,1.517333031E0,-6.185960174E-1,-1.412680000E-1,1.644663250E0
7.158647000E0,1.666905999E0,-6.377580166E-1,-1.253769994E-1,1.789142334E0
7.163569233E0,1.764955997E0,-5.252320170E-1,-6.923040152E-1,1.967288284E0
7.168491611E0,2.006099939E0,-3.813039958E-1,-1.348724008E0,2.447220087E0
7.173413767E0,2.055440903E0,-4.495140016E-1,6.809999794E-2,2.105121790E0
7.178335900E0,2.015476942E0,-2.328969985E-1,-5.933079720E-1,2.113859661E0
7.183258361E0,2.377517939E0,-1.167970002E-1,-1.793215036E0,2.980243825E0
7.188180746E0,2.402133942E0,-2.815699950E-2,-4.462819993E-1,2.443400891E0
7.193102992E0,2.449668884E0,1.326519996E-1,-7.806999981E-2,2.454499770E0
7.198025375E0,2.584126949E0,3.366410136E-1,-1.379690021E-1,2.609611984E0
7.202947608E0,2.894007921E0,4.834229946E-1,-5.069419742E-1,2.977577842E0
7.207869991E0,3.018155098E0,4.995679855E-1,5.368300080E-1,3.105964395E0
7.212792223E0,2.862699986E0,7.122280002E-1,5.005789995E-1,2.992139580E0
7.217714606E0,2.865588903E0,8.550940156E-1,8.727599680E-2,2.991722353E0
7.222636839E0,3.134620905E0,9.480050206E-1,1.016649976E-1,3.276415344E0
7.227559221E0,2.952137947E0,1.104094028E0,1.268041015E0,3.397362226E0
7.232481454E0,2.722455025E0,1.203080058E0,1.832764030E0,3.495452328E0
7.237403813E0,2.576936960E0,1.082268000E0,2.099060059E0,3.495420039E0
7.242325969E0,2.165925980E0,8.451179862E-1,2.045901060E0,3.096961561E0
7.247248389E0,1.695242047E0,3.315219879E-1,2.600997925E0,3.122329680E0
7.252170622E0,1.308305979E0,-2.111590058E-1,2.726501942E0,3.031512081E0
7.257093015E0,6.665490270E-1,-6.046659946E-1,3.363492966E0,3.481808941E0
7.262015247E0,4.881000146E-3,-8.816490173E-1,3.714464903E0,3.817666608E0
7.266937401E0,-7.882729769E-1,-1.128538013E0,4.192303181E0,4.412525160E0
7.271859789E0,-1.434435010E0,-1.182090044E0,4.470726967E0,4.841729059E0
7.276782250E0,-2.065154076E0,-1.314013004E0,4.594718933E0,5.206047791E0
7.281704483E0,-2.404654980E0,-1.440130949E0,4.414196968E0,5.228907878E0
7.286626866E0,-2.949071884E0,-1.656834006E0,3.832669973E0,5.111896226E0
7.291549099E0,-2.993841887E0,-1.703413963E0,2.679805040E0,4.364179582E0
7.296471481E0,-2.754683971E0,-2.358464003E0,1.687811017E0,3.999917782E0
7.301393641E0,-1.941568971E0,-3.466319084E0,1.269595981E0,4.170962960E0
7.306315870E0,-1.042029977E0,-4.614767075E0,5.923539996E-1,4.767891031E0
7.311238259E0,-3.268890083E-1,-5.716067791E0,-5.558599904E-2,5.725677010E0
7.316160492E0,-2.127899975E-2,-6.359055996E0,-4.348239899E-1,6.373940528E0
7.321082976E0,-2.144940048E-1,-6.264431000E0,-3.373630047E-1,6.277174303E0
7.326005132E0,-4.812459946E-1,-5.608400822E0,4.415490031E-1,5.646301711E0
7.330927514E0,-8.458719850E-1,-4.507521152E0,1.663112044E0,4.878441147E0
7.335849747E0,-1.374611974E0,-3.260817051E0,2.704638958E0,4.453937338E0
7.340772130E0,-1.982717037E0,-2.069870949E0,3.253287077E0,4.335828571E0
7.345694591E0,-2.528728962E0,-9.766200185E-1,3.113852978E0,4.128478799E0
7.350616824E0,-3.064368963E0,-7.365100086E-2,1.969620943E0,3.643513177E0
7.355539207E0,-3.346285105E0,5.342829823E-1,1.343263030E0,3.645193805E0
7.360461439E0,-3.193188906E0,1.158383965E0,1.048146009E0,3.554844421E0
7.365383593E0,-2.855441093E0,1.750939012E0,1.349820018E0,3.611280291E0
7.370305966E0,-2.441498995E0,2.258744001E0,2.262548923E0,4.022681871E0
7.375228199E0,-1.996909976E0,2.693798065E0,3.409495115E0,4.782139104E0
7.380150687E0,-1.639453053E0,3.033684015E0,4.408498764E0,5.596955098E0
7.385072920E0,-1.368433952E0,3.195139885E0,4.550164223E0,5.725864548E0
7.389995303E0,-1.061740994E0,3.377084017E0,4.807892799E0,5.970579835E0
7.394917522E0,-8.398069739E-1,3.691734076E0,4.630709171E0,5.981441604E0
7.399839904E0,-5.706779957E-1,3.856559992E0,4.453031063E0,5.918463820E0
7.404762137E0,-2.345010042E-1,3.783269882E0,4.458910942E0,5.852350683E0
7.409684591E0,4.925899953E-2,3.511042118E0,4.701852798E0,5.868327099E0
7.414606978E0,2.328410000E-1,2.985208035E0,4.950979233E0,5.786007026E0
7.419529209E0,2.962589860E-1,2.273006916E0,5.176496029E0,5.661310887E0
7.424451552E0,1.780000031E-1,1.582682014E0,5.133807182E0,5.375178373E0
7.429373708E0,9.438200295E-2,9.186769724E-1,5.031501770E0,5.115553284E0
7.434295942E0,4.125700146E-2,3.283819854E-1,4.657925129E0,4.669668444E0
7.439218098E0,1.500180066E-1,-2.173990011E-1,4.223519802E0,4.231771171E0
7.444140582E0,3.994759917E-1,-8.147230148E-1,3.737247944E0,3.845825900E0
7.449062966E0,6.147189736E-1,-1.406121016E0,2.935921907E0,3.312807446E0
7.453985122E0,8.853970170E-1,-1.938802958E0,2.039067030E0,2.949691363E0
7.458907577E0,1.293630004E0,-2.360191107E0,7.769610286E-1,2.801365575E0
7.463829809E0,1.766363978E0,-2.619574070E0,-3.939290047E-1,3.183926832E0
7.468752192E0,2.183471918E0,-2.701953888E0,-1.242717981E0,3.689505714E0
7.473674659E0,2.463855028E0,-2.650034904E0,-1.810735941E0,4.046236677E0
7.478596814E0,2.767123938E0,-2.324893951E0,-2.018559933E0,4.139648653E0
7.483519274E0,3.045046091E0,-1.698076010E0,-2.216718912E0,4.131538523E0
7.488441522E0,3.284882069E0,-8.749899864E-1,-2.082808971E0,3.986746906E0
7.493363676E0,3.649941921E0,-1.069770008E-1,-1.797322035E0,4.069875502E0
7.498285809E0,4.050397873E0,5.890030265E-1,-1.361207962E0,4.313413336E0
7.503208192E0,4.467957020E0,1.210338950E0,-5.576930046E-1,4.662465205E0
7.508130645E0,4.749910831E0,1.728034973E0,5.860710144E-1,5.088343248E0
7.513052877E0,4.967918873E0,2.069921970E0,1.390045047E0,5.558508804E0
7.517975260E0,5.112462997E0,2.310024023E0,1.837113976E0,5.903259832E0
7.522897478E0,5.162209988E0,2.551214933E0,2.129333973E0,6.139313704E0
7.527819937E0,5.069346905E0,2.695275068E0,2.030581951E0,6.089831590E0
7.532742093E0,4.661292076E0,2.816381931E0,1.678285003E0,5.698797378E0
7.537664495E0,3.877307892E0,3.091624022E0,8.671590090E-1,5.034244762E0
7.542586728E0,2.488254070E0,3.288599014E0,1.477549970E-1,4.126514672E0
7.547509110E0,8.769239783E-1,3.366365910E0,-3.446799889E-2,3.478879582E0
7.552431562E0,2.255450040E-1,3.384639025E0,4.207900167E-2,3.392406597E0
7.557353718E0,3.755800128E-1,3.037193060E0,2.284999937E-2,3.060412415E0
7.562275938E0,6.838740110E-1,2.697969913E0,1.898300052E-1,2.789759980E0
7.567198321E0,1.159201980E0,2.413006067E0,1.091350019E-1,2.679227120E0
7.572120569E0,1.554141045E0,2.113343954E0,-1.922329962E-1,2.630309978E0
7.577042951E0,1.853513956E0,1.746628046E0,-2.671889961E-1,2.560783762E0
7.581965184E0,1.865005970E0,1.487912059E0,8.698599786E-2,2.387403637E0
7.586887552E0,1.748121023E0,1.483466029E0,3.954299986E-1,2.326577627E0
7.591809785E0,1.537665963E0,1.568086982E0,2.315330058E-1,2.208375179E0
7.596732167E0,1.630377054E0,1.545719981E0,-1.599020064E-1,2.252320637E0
7.601654644E0,1.869454980E0,1.267547965E0,-3.507249951E-1,2.285726971E0
7.606576877E0,2.152209997E0,9.989719987E-1,-2.318399996E-1,2.384051743E0
7.611499030E0,2.377190113E0,7.424769998E-1,-9.849900007E-2,2.492389813E0
7.616421490E0,2.398464918E0,5.914419889E-1,8.300399780E-2,2.471705333E0
7.621343646E0,2.296556950E0,4.810659885E-1,3.485620022E-1,2.372149611E0
7.626266062E0,2.117552042E0,4.595670104E-1,3.096579909E-1,2.188861932E0
7.631188294E0,1.866713047E0,4.195330143E-1,1.463999972E-3,1.913276690E0
7.636110677E0,1.696740985E0,1.645590067E-1,-3.871159852E-1,1.748104237E0
7.641032910E0,1.611525059E0,-4.450999945E-2,-8.778539896E-1,1.835652958E0
7.645955064E0,1.510828018E0,-1.334500015E-1,-1.449491978E0,2.097960247E0
7.650877514E0,1.426079035E0,-2.220059931E-1,-1.994732976E0,2.462102297E0
7.655799899E0,1.312631965E0,-3.484399915E-1,-2.434834003E0,2.787979506E0
7.660722055E0,8.508759737E-1,-4.285799861E-1,-2.719748020E0,2.881787643E0
7.665644586E0,2.805860043E-1,-2.781150043E-1,-2.799391031E0,2.827130455E0
7.670566973E0,-1.726949960E-1,-1.105090007E-1,-2.647835970E0,2.655761873E0
7.675489203E0,-2.528999932E-2,-1.341110021E-1,-2.144769907E0,2.149107559E0
7.680411581E0,2.853089869E-1,-1.190389991E-1,-1.537091017E0,1.567871262E0
7.685333506E0,5.429829955E-1,1.313800067E-1,-9.379900098E-1,1.091749283E0
7.690255860E0,7.901769876E-1,3.896859884E-1,-3.441739976E-1,9.458808498E-1
7.695178321E0,9.236299992E-1,5.236060023E-1,1.704680026E-1,1.075320864E0
7.700100491E0,1.060989022E0,4.617800117E-1,5.695090294E-1,1.289681751E0
7.705022722E0,1.090700030E0,3.554300070E-1,8.301470280E-1,1.416015937E0
7.709945105E0,1.296398044E0,1.066349968E-1,8.891710043E-1,1.575640817E0
7.714867337E0,1.444376945E0,-1.478790045E-1,7.255970240E-1,1.623140167E0
7.719789720E0,1.312407970E0,-4.366309941E-1,3.990010023E-1,1.439535726E0
7.724711953E0,1.080484986E0,-7.524560094E-1,-1.147359982E-1,1.321666448E0
7.729634427E0,1.056743026E0,-9.377459884E-1,-7.444610000E-1,1.596964477E0
7.734556814E0,9.753280282E-1,-1.328137040E0,-1.288552046E0,2.091788501E0
7.739479274E0,8.218129873E-1,-1.593379974E0,-1.891340971E0,2.606032808E0
7.744401405E0,6.817110181E-1,-1.762449026E0,-2.479438066E0,3.117462046E0
7.749323559E0,5.758230090E-1,-1.847486973E0,-3.022286892E0,3.588732131E0
7.754245768E0,5.390589833E-1,-1.891937017E0,-3.336847067E0,3.873571816E0
7.759168153E0,6.157850027E-1,-1.881664038E0,-3.388081074E0,3.924148835E0
7.764090385E0,8.101869822E-1,-1.732851982E0,-3.257245064E0,3.777409740E0
7.769012783E0,9.648650289E-1,-1.545883060E0,-3.017971039E0,3.525459991E0
7.773935016E0,1.265391946E0,-1.356832027E0,-2.579770088E0,3.177644353E0
7.778857398E0,1.578477979E0,-1.114819050E0,-2.002413988E0,2.782818000E0
7.783779621E0,2.013835907E0,-8.889200091E-1,-1.432543993E0,2.626384613E0
7.788702004E0,2.508949041E0,-6.741269827E-1,-9.527029991E-1,2.767113204E0
7.793624465E0,2.999727011E0,-4.507560134E-1,-6.556940079E-1,3.103462221E0
7.798546708E0,3.524976015E0,-2.171369940E-1,-5.731049776E-1,3.577856020E0
7.803469091E0,4.066949844E0,-1.427000016E-2,-6.845380068E-1,4.124181974E0
7.808391324E0,4.492414951E0,1.890379936E-1,-9.439880252E-1,4.594414092E0
7.813313492E0,4.927966118E0,3.926379979E-1,-1.277456045E0,5.105967940E0
7.818235874E0,5.321520805E0,5.245069861E-1,-1.630663991E0,5.590416470E0
7.823158097E0,5.775963783E0,5.580070019E-1,-1.944960952E0,6.120130925E0
7.828080556E0,6.186468124E0,5.193449855E-1,-2.218540907E0,6.592725599E0
7.833002941E0,6.558380127E0,3.773140013E-1,-2.437374115E0,7.006818702E0
7.837925194E0,6.807954788E0,2.731829882E-1,-2.603357077E0,7.293856690E0
7.842847348E0,7.057344913E0,2.970799990E-2,-2.627820015E0,7.530766085E0
7.847769807E0,7.298903942E0,-1.926629990E-1,-2.593240976E0,7.748291202E0
7.852692211E0,7.496286869E0,-3.772110045E-1,-2.455432892E0,7.897199228E0
7.857614444E0,7.615901947E0,-5.168219805E-1,-2.199033976E0,7.943854093E0
7.862536840E0,7.564846039E0,-6.833959818E-1,-1.830595016E0,7.813130216E0
7.867459073E0,7.540365219E0,-8.189889789E-1,-1.422968030E0,7.717038849E0
7.872381485E0,7.460762978E0,-8.424149752E-1,-1.203696966E0,7.604047185E0
7.877303641E0,7.127008915E0,-6.295639873E-1,-1.245108008E0,7.262293084E0
7.882226090E0,6.612230778E0,-2.911610007E-1,-1.239732981E0,6.733744014E0
7.887148323E0,6.463558197E0,-3.371199965E-2,-1.416564941E0,6.617052010E0
7.892070682E0,6.443818092E0,1.522759944E-1,-1.451871037E0,6.607110495E0
7.896992837E0,6.584785938E0,1.968799978E-1,-1.425891042E0,6.740276912E0
7.901915052E0,6.894610882E0,1.190520003E-1,-1.889225006E0,7.149755500E0
7.906837437E0,7.168530941E0,-5.744399875E-2,-2.599344015E0,7.625465558E0
7.911759670E0,7.417358875E0,-4.476029873E-1,-3.758869886E0,8.327464437E0
7.916682047E0,8.061512947E0,-8.430150151E-1,-4.839033127E0,9.440069222E0
7.921604509E0,8.335017204E0,-1.372419953E0,-4.545666218E0,9.592660199E0
7.926526742E0,7.298802853E0,-1.812582016E0,-3.851996899E0,8.449606899E0
7.931449119E0,5.909952164E0,-2.309416056E0,-2.488270044E0,6.815601581E0
7.936371352E0,5.165537834E0,-2.982738018E0,-1.593910009E-1,5.966985226E0
7.941293506E0,5.142664909E0,-3.693562031E0,2.956773996E0,6.987983637E0
7.946215898E0,5.232172012E0,-4.247763157E0,6.297521114E0,9.223767559E0
7.951138131E0,5.188254833E0,-4.530419827E0,9.486538887E0,1.172335754E1
7.956060523E0,5.035215855E0,-4.599096775E0,1.186921787E1,1.368880648E1
7.960982756E0,4.545757771E0,-4.396472931E0,1.245268154E1,1.396646575E1
7.965905138E0,4.038046837E0,-4.229128838E0,1.210567665E1,1.344391164E1
7.970827371E0,3.734172106E0,-4.343729019E0,1.254373646E1,1.378975516E1
7.975749754E0,3.369673014E0,-4.474586010E0,1.290345287E1,1.406683021E1
7.980671986E0,2.827862978E0,-4.487865925E0,1.185951996E1,1.299176521E1
7.985594451E0,2.447267056E0,-4.570263863E0,9.792903900E0,1.108049614E1
7.990516838E0,2.018981934E0,-4.709276199E0,7.665750027E0,9.220482300E0
7.995439068E0,1.522848010E0,-4.887591839E0,5.844035149E0,7.769193450E0
8.000361437E0,1.105959058E0,-5.058860779E0,4.093980789E0,6.601204172E0
8.005283593E0,9.307860136E-1,-5.282832146E0,2.212491035E0,5.802567937E0
8.010206023E0,9.718539715E-1,-5.381641865E0,4.647629857E-1,5.488403587E0
8.015128179E0,1.258286953E0,-5.337640762E0,-1.251294017E0,5.624893926E0
8.020050424E0,1.640830040E0,-5.193037033E0,-2.535962105E0,6.007583594E0
8.024972807E0,1.759685040E0,-4.791413784E0,-3.228348017E0,6.039566905E0
8.029895020E0,1.789227962E0,-4.379106045E0,-2.722873926E0,5.458200149E0
8.034817403E0,1.921205044E0,-3.924973011E0,-8.581830263E-1,4.453416673E0
8.039739636E0,1.589930058E0,-3.302921057E0,1.408043027E0,3.926798984E0
8.044661990E0,1.131041050E0,-2.490350008E0,3.024672985E0,4.077958274E0
8.049584451E0,6.119239926E-1,-1.530848026E0,4.584877014E0,4.872272969E0
8.054506684E0,-1.128960028E-1,-5.950109959E-1,5.307994843E0,5.342433232E0
8.059429037E0,-7.770569921E-1,1.105979979E-1,6.460627079E0,6.508129665E0
8.064351193E0,-1.649163961E0,7.044789791E-1,7.174095154E0,7.394841018E0
8.069273395E0,-2.146131992E0,1.156613946E0,7.086686134E0,7.494315093E0
8.074195778E0,-2.094667912E0,1.342381001E0,6.771578789E0,7.214145805E0
8.079117934E0,-1.244492054E0,1.214679003E0,5.708150864E0,5.967176203E0
8.084040408E0,-9.473549724E-1,1.072010994E0,4.156442165E0,4.395759376E0
8.088962564E0,-1.202008009E0,1.117171049E0,3.147758961E0,3.549828289E0
8.093885024E0,-1.302214980E0,1.153970003E0,3.313836098E0,3.742849223E0
8.098807280E0,-8.289710283E-1,1.444105983E0,4.030391216E0,4.360812815E0
8.103729663E0,-6.714379787E-1,1.767459035E0,4.422293186E0,4.809513221E0
8.108651910E0,-9.702180028E-1,1.939836025E0,4.327109814E0,4.840265088E0
8.113574369E0,-1.228492022E0,2.217685938E0,3.906035900E0,4.656655454E0
8.118496525E0,-1.363067031E0,2.534179926E0,3.897989988E0,4.845033083E0
8.123418918E0,-1.571120024E0,2.838987112E0,4.098978043E0,5.227799436E0
8.128341151E0,-1.791913986E0,3.110083103E0,4.185644150E0,5.513908740E0
8.133263542E0,-1.861482978E0,3.239403963E0,4.301407814E0,5.697452597E0
8.138185775E0,-1.766581059E0,3.296232939E0,4.587045193E0,5.918356514E0
8.143108154E0,-1.579419971E0,3.270911932E0,4.506231785E0,5.787880200E0
8.148030386E0,-1.311401963E0,3.216331005E0,4.923461914E0,6.025366168E0
8.152952769E0,-8.761469722E-1,3.050956964E0,5.918272018E0,6.715795977E0
8.157875036E0,-4.627560079E-1,2.726468086E0,6.711181164E0,7.258630998E0
