"Time (s)","Linear Acceleration x (m/s^2)","Linear Acceleration y (m/s^2)","Linear Acceleration z (m/s^2)","Absolute acceleration (m/s^2)"
1.699873000E-2,1.769839823E-1,-8.114492893E-2,-8.320369720E-1,8.545135179E-1
3.381571700E-2,5.301985145E-2,-3.178454638E-1,-1.011656761E0,1.061737371E0
5.061487100E-2,-1.399639547E-1,-1.740760803E-1,-1.326325417E0,1.345002417E0
6.741155200E-2,-6.258633733E-2,-1.499143839E-1,-8.310470581E-1,8.467765850E-1
8.421747200E-2,6.744730473E-2,1.567418575E-1,-2.859849930E-1,3.330233701E-1
1.010211940E-1,1.770542860E-1,3.086538315E-1,5.977630615E-2,3.608165942E-1
1.178344370E-1,1.914210618E-1,3.374567032E-1,1.176688194E0,1.238997238E0
1.346344650E-1,1.314146817E-1,6.572837830E-1,2.484386444E0,2.573221287E0
1.514649500E-1,1.803798079E-1,1.270196199E0,3.627392769E0,3.847585419E0
1.682556410E-1,1.926297247E-1,1.479307890E0,4.725457191E0,4.955340928E0
1.850803380E-1,9.379324317E-2,1.172508240E0,5.998218536E0,6.112462544E0
2.018886170E-1,-2.663353086E-2,8.092117310E-1,7.171767235E0,7.217324867E0
2.186615980E-1,-2.228598893E-1,1.383339882E0,7.572318077E0,7.700863381E0
2.354869660E-1,-3.788165152E-1,2.260001898E0,6.833880424E0,7.207845183E0
2.522998930E-1,1.123054698E-1,2.566193819E0,8.009784698E0,8.411576199E0
2.691045310E-1,1.221855521E0,2.321832418E0,9.528746605E0,9.883362209E0
2.859109480E-1,2.535701513E0,2.101043701E0,1.147202492E1,1.193530571E1
3.027176390E-1,2.600764990E0,2.087569475E0,1.279556274E1,1.322302351E1
3.195240880E-1,2.238918066E0,2.142963648E0,9.914627075E0,1.038772725E1
3.363308810E-1,1.466799378E0,1.968526363E0,3.092366219E0,3.948331963E0
3.531374310E-1,4.451314211E-1,6.566105485E-1,-4.592817783E0,4.660821235E0
3.699440720E-1,-1.755153537E-1,-1.138606146E-1,-8.660523415E0,8.663050023E0
3.867469280E-1,-1.219732761E-1,-4.103642106E-1,-9.199485779E0,9.209441615E0
4.056389580E-1,-3.700244129E-1,-1.010195136E0,-7.633358002E0,7.708798004E0
4.224544900E-1,-7.122397423E-1,-1.032527566E0,-8.360177994E0,8.453755066E0
4.392593710E-1,-5.638265610E-1,-6.046673059E-1,-1.032541180E1,1.035845798E1
4.560675180E-1,-1.556893289E-1,-1.461297870E-1,-1.149769783E1,1.149968036E1
4.728731150E-1,-7.071541250E-2,1.954811215E-1,-1.152871037E1,1.153058438E1
4.896795180E-1,5.968067050E-2,-5.917348862E-1,-1.081608105E1,1.083241991E1
5.065017120E-1,-2.096015215E-2,-1.377849340E0,-1.005903435E1,1.015298380E1
5.233081240E-1,-6.491498649E-2,-1.096233845E0,-9.724452019E0,9.786261271E0
5.401113730E-1,-9.527900815E-2,-5.817835331E-1,-9.161659241E0,9.180607290E0
5.569060710E-1,-1.868855357E-1,-3.977349699E-1,-8.738482475E0,8.749525432E0
5.737113850E-1,-3.978991807E-1,-3.439437747E-1,-8.468867302E0,8.485183231E0
5.905208140E-1,-4.517059326E-1,-3.604947925E-1,-8.669743538E0,8.688984277E0
6.073251920E-1,-5.120699406E-1,-2.879273891E-1,-7.774805546E0,7.796968583E0
6.241192740E-1,2.207815647E-2,-2.664436698E-1,-5.609841347E0,5.616208651E0
6.409390790E-1,1.016795754E0,4.957050085E-1,-1.985445023E0,2.285079648E0
6.577585270E-1,2.276328087E0,3.182668686E-1,3.412121773E0,4.114065915E0
6.745686470E-1,3.536797523E0,-1.503284454E0,9.558508873E0,1.030213050E1
6.913561080E-1,4.793393612E0,-1.533380508E0,1.275082970E1,1.370808287E1
7.081778090E-1,5.808621883E0,2.058502674E0,1.679878426E1,1.789348132E1
7.249590900E-1,4.426445484E0,1.373004794E0,1.873818588E1,1.930280218E1
7.417797730E-1,1.916481018E0,1.159117699E0,1.713006592E1,1.727586790E1
7.585844530E-1,3.112508059E-1,2.575902224E0,1.752622223E1,1.771724061E1
7.753922620E-1,1.651440740E0,2.010960340E0,1.744525909E1,1.763826190E1
7.921999870E-1,2.594091654E0,1.372752190E0,1.721749115E1,1.746584557E1
8.090053160E-1,1.865473390E0,-2.163897753E-1,1.503114223E1,1.514800490E1
8.258274700E-1,3.032910824E-1,-1.255995989E0,8.315369606E0,8.415157936E0
8.426324630E-1,-1.851140022E0,2.036097050E-1,-9.954996109E-1,2.111680792E0
8.594212470E-1,-2.746821404E0,2.337877274E0,-1.013949871E1,1.076197622E1
8.762453430E-1,-3.019618988E0,3.637168407E0,-1.489196014E1,1.562426222E1
8.930536070E-1,-2.989947081E0,3.683157206E0,-1.388160324E1,1.466984455E1
9.098554830E-1,-2.790061474E0,2.741812706E0,-1.156081009E1,1.220468393E1
9.266488020E-1,-2.521979332E0,1.023618221E0,-1.089131451E1,1.122625965E1
9.434729250E-1,-2.263049603E0,3.341007829E-1,-1.022671223E1,1.047943986E1
9.602784470E-1,-1.926623225E0,-1.264381111E-1,-9.328339577E0,9.526058099E0
9.770835160E-1,-1.649616122E0,-2.771553993E-1,-9.767890930E0,9.910082830E0
9.938931480E-1,-1.513949871E0,-1.281709075E-1,-1.059320068E1,1.070160608E1
1.010698589E0,-1.255164027E0,-2.469640374E-1,-9.774551392E0,9.857904589E0
1.027503810E0,-1.013080359E0,-8.311312795E-1,-8.700453758E0,8.798579807E0
1.044296353E0,-6.128478050E-1,-1.426396608E0,-8.578230858E0,8.717581911E0
1.061106021E0,7.594650984E-2,-1.114978909E0,-8.566033363E0,8.638626825E0
1.077911156E0,4.476688504E-1,3.418281078E-1,-1.081888199E1,1.083353411E1
1.094718417E0,5.252248645E-1,5.559253693E-1,-1.004398632E1,1.007306187E1
1.111524600E0,1.209011316E0,-2.036882877E0,-6.267741680E0,6.700387003E0
1.128332356E0,2.904690981E0,-4.014853954E0,-2.426633835E-1,4.961367502E0
1.145163294E0,6.859404564E0,-2.283530712E0,6.484105110E0,9.711311063E0
1.161955968E0,8.004871368E0,2.802983284E0,9.987494469E0,1.310285185E1
1.178749364E0,8.770510554E-1,7.078778744E-1,1.269545746E1,1.274538935E1
1.195574844E0,-5.841553211E-1,-2.350986719E0,2.371096992E1,2.383439680E1
1.212354111E0,4.258907318E0,2.318867922E0,3.218115997E1,3.254446953E1
1.229169359E0,4.894390106E0,3.162134886E0,3.054197884E1,3.109287093E1
1.245964647E0,2.450985193E0,9.914574623E-1,2.158725166E1,2.174855744E1
1.262785244E0,2.103722572E0,5.076544285E-1,1.629091454E1,1.643402745E1
1.279577736E0,2.761177063E0,1.347679257E0,1.489201164E1,1.520566832E1
1.296396426E0,1.267907500E0,9.996502995E-1,1.007727718E1,1.020580254E1
1.313205519E0,-1.153285265E0,-8.989036083E-3,6.007137299E-1,1.300386362E0
1.330024957E0,-2.794180155E0,-3.437701166E-1,-9.909709930E0,1.030184311E1
1.346816894E0,-3.177320004E0,3.103435040E-3,-1.624026108E1,1.654815554E1
1.363635731E0,-3.189108849E0,8.646440506E-1,-1.643906975E1,1.676785731E1
1.380446493E0,-2.825489044E0,1.017654777E0,-1.384880257E1,1.417068601E1
1.397251267E0,-2.531766891E0,4.556698799E-1,-1.185989094E1,1.213567022E1
1.414030441E0,-2.547553062E0,3.100250959E-1,-1.135713005E1,1.164347651E1
1.430850496E0,-2.110374212E0,-7.459938526E-2,-1.080540466E1,1.100981445E1
1.447657152E0,-1.689961553E0,-2.042790055E-1,-1.022912693E1,1.036979931E1
1.464464851E0,-1.704970360E0,-6.976543069E-1,-9.719792366E0,9.892826143E0
1.481270180E0,-1.775387883E0,-1.120146871E0,-9.395713806E0,9.627365635E0
1.498077121E0,-1.587352037E0,-1.122705936E0,-8.903536797E0,9.113348594E0
1.514885349E0,-1.288095474E0,-4.847574830E-1,-8.510531425E0,8.621097663E0
1.531701419E0,-6.945644021E-1,3.281471729E-1,-8.316871643E0,8.352272398E0
1.548497029E0,-1.791769862E-1,1.090633750E0,-8.168437004E0,8.242872646E0
1.565303543E0,-4.256859124E-1,-7.185280323E-2,-8.166811943E0,8.178214269E0
1.582110438E0,-4.515717626E-1,-1.080897570E0,-7.758549690E0,7.846486469E0
1.598917629E0,3.381811380E-1,-1.682972908E-1,-5.004088402E0,5.018325537E0
1.615723562E0,1.855070353E0,1.017969608E0,-1.581115723E0,2.641491068E0
1.632531785E0,3.122976065E0,4.939146042E-1,1.565258980E0,3.528025908E0
1.649348939E0,3.102794170E0,5.602554083E-1,6.556940079E0,7.275622378E0
1.666154574E0,2.549899101E0,4.180569649E-1,1.022261429E1,1.054412632E1
1.682963416E0,2.676722527E0,2.590071678E0,1.516042805E1,1.561127456E1
1.699754759E0,4.604446411E0,4.719086170E0,2.419705009E1,2.507923313E1
1.716574934E0,6.658311844E0,2.633351088E-1,3.183468628E1,3.252460165E1
1.733357801E0,5.612105370E0,-3.237385035E0,3.149277878E1,3.215231724E1
1.750176462E0,3.892739296E0,-2.583721161E0,2.130339622E1,2.180971630E1
1.766983149E0,3.593361378E0,2.451856375E0,1.043182087E1,1.130251000E1
1.783789962E0,2.287480831E0,5.263032913E0,7.031376839E0,9.075921124E0
1.800591090E0,7.012367249E-2,3.058196545E0,4.947489738E0,5.816797929E0
1.817404572E0,-2.152302742E0,5.558761358E-1,-1.858780861E0,2.897666589E0
1.834213492E0,-3.506119728E0,-7.755349278E-1,-1.065716267E1,1.124586351E1
1.851026099E0,-3.867150307E0,-3.190250397E-1,-1.670436096E1,1.714911962E1
1.867851163E0,-2.975951433E0,1.682988167E0,-1.681472015E1,1.715877472E1
1.884641832E0,-2.604134798E0,1.952191949E0,-1.311508560E1,1.351288429E1
1.901450193E0,-2.105603218E0,-1.584692001E-1,-1.009983444E1,1.031820397E1
1.926656574E0,-1.982102156E0,-1.754739285E0,-1.119562531E1,1.150434113E1
1.943468382E0,-1.507233858E0,-1.995899200E0,-1.146654606E1,1.173614272E1
1.960272349E0,-9.393727779E-1,-2.121797085E0,-1.040922928E1,1.066473151E1
1.977081859E0,-6.983286738E-1,-2.343644381E0,-9.004628181E0,9.330790996E0
1.993885666E0,-4.926954210E-1,-3.240907192E0,-7.075509071E0,7.798016211E0
2.010677867E0,-6.224745512E-1,-3.454855680E0,-7.194064140E0,8.004877338E0
2.027497310E0,-5.742992163E-1,-1.935613394E0,-8.499103546E0,8.735627046E0
2.044281892E0,1.059522331E-1,-6.025445461E-1,-9.721733093E0,9.740964025E0
2.061098147E0,-1.434854865E-1,-9.433318377E-1,-1.104556370E1,1.108670106E1
2.077885012E0,3.736010194E-1,-2.370316982E0,-7.788300037E0,8.149576541E0
2.094709938E0,1.613134623E0,-1.887653470E0,-1.659461021E0,2.986511312E0
2.111514173E0,3.327435255E0,-8.629968166E-1,4.346320152E0,5.541397635E0
2.128325860E0,3.290637016E0,-2.983198643E0,7.255836487E0,8.507345605E0
2.145145826E0,5.966669321E-1,-5.912216663E0,9.964642525E0,1.160191441E1
2.161933868E0,3.232747912E-1,-2.787142754E0,1.508285999E1,1.534162106E1
2.178758947E0,3.083596945E0,3.462869167E0,2.564974785E1,2.606548671E1
2.195561365E0,2.837452888E0,7.374266386E-1,2.724776840E1,2.740503275E1
2.212374171E0,5.663220882E-1,-3.473895073E0,2.351427650E1,2.377624586E1
2.229163266E0,8.822922707E-1,-1.267325878E0,2.115577316E1,2.121205536E1
2.245972709E0,2.881970882E0,6.208592653E-1,1.836488914E1,1.860001010E1
2.262777823E0,2.024953842E0,2.611978292E0,1.174314880E1,1.219936115E1
2.279584561E0,5.988349915E-1,4.353867531E0,3.461599350E0,5.594411129E0
2.296391071E0,8.244824409E-2,5.624560356E0,-4.263034821E0,7.058041003E0
2.313197945E0,-1.651036739E-1,4.499009609E0,-1.003140736E1,1.099533902E1
2.330020221E0,-7.996268272E-1,3.342145920E0,-1.432824707E1,1.473458539E1
2.346825036E0,-1.249957919E0,3.499669075E0,-1.662578392E1,1.703604324E1
2.363608579E0,-1.098735332E0,2.347530603E0,-1.461313629E1,1.484122204E1
2.380440256E0,-1.156686068E0,4.093531370E-1,-1.203620052E1,1.209857908E1
2.397243306E0,-7.845841646E-1,-9.518738985E-1,-1.020806217E1,1.028232316E1
2.414048635E0,-1.798671484E-2,-5.651096106E-1,-9.628314972E0,9.644901326E0
2.430844555E0,9.982487559E-2,3.104625940E-1,-9.199967384E0,9.205745592E0
2.447651074E0,-1.895096749E-1,-1.314693451E0,-9.909902573E0,9.998524981E0
2.464457577E0,-5.360668898E-1,-2.874638557E0,-1.050560284E1,1.090498077E1
2.481264178E0,-3.305635750E-1,-1.798429728E0,-1.095497227E1,1.110653137E1
2.498070712E0,1.738496274E-1,1.189910173E0,-1.147917747E1,1.154199400E1
2.514877419E0,7.414383888E-1,1.705018282E0,-9.663898468E0,9.841125537E0
2.531683983E0,8.808279037E-1,-1.207894206E0,-6.152390480E0,6.331411756E0
2.548490828E0,1.360714555E0,-3.547024250E0,-4.838441372E0,6.151702207E0
2.565279347E0,1.667183161E0,-2.944571972E0,-5.445988178E0,6.411613762E0
2.582103932E0,1.248959303E0,1.061704159E-1,-5.014764786E0,5.169046078E0
2.598901336E0,1.010368943E0,2.229773998E-2,-3.309793472E-1,1.063433082E0
2.615717255E0,2.439100266E0,-3.829385996E0,7.878483772E0,9.093069546E0
2.632519547E0,4.860367775E0,-4.432533264E0,2.128174210E1,2.227516718E1
2.649344595E0,6.431029320E0,-2.389555693E0,3.277432632E1,3.348469173E1
2.666134355E0,7.449257851E0,-3.636813641E0,3.569516373E1,3.664508930E1
2.682958080E0,5.857091904E0,-3.288177013E0,3.297322083E1,3.365042236E1
2.699762673E0,3.764645576E0,-1.471573591E0,2.414828491E1,2.448423471E1
2.716568311E0,2.899843931E0,4.922893047E-1,1.528061581E1,1.556112666E1
2.733364947E0,1.981985450E0,2.139122486E0,9.410883904E0,9.852352368E0
2.750167637E0,1.274187684E0,2.744848013E0,3.198087692E0,4.402897882E0
2.766978556E0,1.679562926E-1,2.441630363E0,-4.573613167E0,5.187263782E0
2.783783706E0,-9.116249084E-1,1.647984505E0,-1.204083347E1,1.218723035E1
2.800590449E0,-1.892610073E0,1.158591151E0,-1.652533531E1,1.667366227E1
2.817396861E0,-2.285682440E0,6.040203571E-2,-1.672576714E1,1.688132930E1
2.834219442E0,-2.076924562E0,-1.352071643E0,-1.462131786E1,1.482985669E1
2.851024217E0,-2.042262793E0,-1.539309263E0,-1.406394482E1,1.429457429E1
2.867813432E0,-1.607975364E0,-1.105387688E0,-1.360407543E1,1.374330146E1
2.884621212E0,-1.023316383E0,-7.918932438E-1,-1.125107193E1,1.132523249E1
2.901430066E0,-7.826091051E-1,-1.351066113E0,-9.283027649E0,9.413419091E0
2.918236876E0,-9.068939686E-1,-2.116658688E0,-8.589076996E0,8.892409365E0
2.935043567E0,-8.665795922E-1,-2.100276470E0,-7.867974281E0,8.189453018E0
2.951850050E0,-2.488375306E-1,-1.565059662E0,-7.670999527E0,7.832979357E0
2.968656656E0,-8.739826083E-2,3.930306435E-1,-9.151662827E0,9.160515489E0
2.985479018E0,-1.461799145E-1,1.697341204E-1,-8.185792923E0,8.188857308E0
3.002282165E0,-1.291358173E-1,-1.944901824E0,-4.966817856E0,5.335597322E0
3.019089188E0,2.244137526E-1,-2.702988386E0,-3.608619213E0,4.514270747E0
3.035883250E0,1.203648567E0,-4.936943054E-1,-2.704452038E0,3.001093928E0
3.052681900E0,1.530024052E0,9.231094122E-1,-1.564191818E0,2.374826442E0
3.069496243E0,1.719275117E0,-1.371809959E0,5.361723900E0,5.795330247E0
3.086306633E0,5.560151339E-1,-9.254667759E-1,1.374522305E1,1.378755954E1
3.103109885E0,2.771423817E0,5.761462212E0,2.263989258E1,2.352530494E1
3.119899331E0,5.872663498E0,6.774808884E0,3.120000076E1,3.246269027E1
3.136735096E0,7.445866108E0,2.146106243E0,3.478017426E1,3.563295126E1
3.153525852E0,5.645876884E0,-1.455210805E0,3.148485947E1,3.202014897E1
3.170347930E0,2.665052176E0,-1.944426537E0,2.006414986E1,2.033355373E1
3.187142837E0,6.814527512E-2,8.173413277E-1,8.983624458E0,9.020986589E0
3.203959965E0,-1.161437273E0,1.635916948E0,-1.444149017E-1,2.011471219E0
3.220743602E0,-2.187871456E0,1.585456610E0,-8.991121292E0,9.388328726E0
3.237562989E0,-2.780380726E0,8.420438766E-1,-1.502563190E1,1.530389392E1
3.254369788E0,-2.665434599E0,-2.679383755E-1,-1.659810829E1,1.681289777E1
3.271176612E0,-2.096584320E0,-1.591658831E0,-1.531976700E1,1.554426919E1
3.287982653E0,-1.855205894E0,-2.856060982E0,-1.403802395E1,1.444524107E1
3.304789599E0,-1.177976131E0,-3.372623920E0,-1.318659496E1,1.366193641E1
3.321609362E0,-3.683747351E-1,-2.173151016E0,-1.125057030E1,1.146445015E1
3.338418592E0,2.264624834E-2,-1.114036083E0,-9.911757469E0,9.974192969E0
3.355223764E0,-7.801800966E-2,-9.084073305E-1,-8.844831467E0,8.891700308E0
3.372029692E0,-2.993782759E-1,-1.298417211E0,-8.282718658E0,8.389215874E0
3.388817305E0,-5.854588747E-1,-1.563105345E0,-8.541255951E0,8.702822165E0
3.405638768E0,-6.929287910E-1,-1.555387974E0,-9.007171631E0,9.166707307E0
3.422452637E0,-7.000929117E-1,-1.871654510E0,-8.982441902E0,9.202036906E0
3.445533688E0,-5.967940688E-1,-9.990103245E-1,-1.068736362E1,1.075053143E1
3.462355261E0,-1.349677444E-1,-7.727202177E-1,-9.233914375E0,9.267172574E0
3.479155748E0,5.773895979E-1,-7.704803944E-1,-5.328586578E0,5.414873379E0
3.495968339E0,8.122290373E-1,-1.641950130E0,-2.148554802E0,2.823473743E0
3.512771755E0,1.208787203E0,-1.557640791E0,-1.850852013E0,2.704267832E0
3.529578611E0,1.458685279E0,-1.091368556E0,3.488199234E0,3.935274065E0
3.546385527E0,1.351576328E0,-9.079352617E-1,1.359259033E1,1.368976322E1
3.563191547E0,2.518924475E0,2.632265091E-1,2.198431778E1,2.212971977E1
3.579998034E0,5.160184860E0,4.907637596E0,2.865242386E1,2.952412247E1
3.596805571E0,7.386992455E0,3.275200844E0,3.361616898E1,3.457370988E1
3.613612221E0,7.326577187E0,-4.524985552E-1,3.663946533E1,3.736755154E1
3.630430044E0,5.764296055E0,-1.019984603E0,3.226090622E1,3.278770422E1
3.647241944E0,3.736808062E0,1.980752349E-1,2.242089462E1,2.273102470E1
3.664029348E0,9.543973207E-1,1.252337217E0,7.599515915E0,7.760919075E0
3.680852765E0,-9.272254705E-1,1.642296314E0,-6.684267521E0,6.945236968E0
3.697644269E0,-1.803382039E0,1.377231240E0,-1.475778580E1,1.493121543E1
3.714463644E0,-1.762526870E0,2.355548143E-1,-1.678153229E1,1.687547964E1
3.731233177E0,-1.308445811E0,-4.446313381E-1,-1.630675697E1,1.636520854E1
3.748065086E0,-9.884035587E-1,-8.344759941E-1,-1.483542633E1,1.489171468E1
3.764871230E0,-8.819882274E-1,-2.078093052E0,-1.377024460E1,1.395406788E1
3.781678002E0,-6.938538551E-1,-2.695223331E0,-1.302203655E1,1.331612173E1
3.798472376E0,-6.132284999E-1,-2.984288692E0,-1.306211948E1,1.341271761E1
3.815290379E0,-6.220594049E-1,-3.446194410E0,-1.302566338E1,1.348818447E1
3.832100032E0,-1.885818839E-1,-3.403903246E0,-1.315985489E1,1.359425986E1
3.848916571E0,5.410553217E-1,-2.947388887E0,-1.211799717E1,1.248301636E1
3.865727066E0,8.633476496E-1,-3.097211361E0,-1.160595512E1,1.204310100E1
3.882533595E0,6.300104856E-1,-2.762806654E0,-1.100267410E1,1.136172748E1
3.899336636E0,9.311233759E-1,-2.098191500E0,-1.003166389E1,1.029095131E1
3.916142382E0,1.188853264E0,-1.609161735E0,-8.334784508E0,8.571546323E0
3.932955003E0,1.393269777E0,-2.024952173E0,-5.473667622E0,6.000222430E0
3.949753853E0,1.092473745E0,-2.811548948E0,-4.847211838E0,5.709095285E0
3.966567422E0,5.854604244E-1,-1.546028733E0,-4.681432724E0,4.964753881E0
3.983366728E0,1.172382593E0,4.979188442E-1,-1.163567543E0,1.725193771E0
4.000183958E0,2.128755331E0,8.924360275E-1,6.252902985E0,6.665345982E0
4.016968504E0,4.017764091E0,2.389669418E-1,1.430990601E1,1.486515871E1
4.033776469E0,6.455001354E0,1.284641743E0,2.440065384E1,2.527269781E1
4.050584494E0,5.843218327E0,3.216406584E0,2.682939911E1,2.764606895E1
4.067391113E0,4.367566109E0,4.549116135E0,2.212612534E1,2.300729262E1
4.084198101E0,4.860424995E0,4.084686279E0,2.225506210E1,2.314295103E1
4.101004284E0,7.106543541E0,1.384593487E0,2.804668999E1,2.896613332E1
4.117811139E0,6.307755470E0,-6.409323215E-1,2.866630363E1,2.935907930E1
4.134617768E0,2.504955530E0,-9.953708649E-1,1.732139969E1,1.752987315E1
4.151424613E0,3.157877922E-2,-1.156478047E0,-4.738798141E-1,1.250200293E0
4.168246707E0,-7.736290693E-1,-8.972561359E-2,-1.300852776E1,1.303182056E1
4.185051273E0,-1.134330630E0,-6.900665760E-1,-1.792004776E1,1.796916831E1
4.201858493E0,-1.273114920E0,-5.008747578E-1,-1.961500549E1,1.966265846E1
4.218647334E0,-1.600967169E0,-8.983335495E-1,-1.703099632E1,1.712965075E1
4.235460749E0,-2.095709085E0,-2.558986425E0,-1.424843597E1,1.462731472E1
4.252278375E0,-2.200595379E0,-4.080685139E0,-1.181353569E1,1.269071459E1
4.269070908E0,-2.086141109E0,-5.222937584E0,-1.048384953E1,1.189714935E1
4.285887335E0,-1.846932292E0,-5.178493023E0,-9.736756325E0,1.118178754E1
4.302684007E0,-1.517183900E0,-3.243220091E0,-1.039424896E1,1.099366795E1
4.319484361E0,-1.016639352E0,-1.654140830E0,-1.097960758E1,1.114995606E1
4.336311307E0,-4.586443305E-1,-1.175449014E0,-9.931496620E0,1.001132659E1
4.353110247E0,-1.528847069E-1,-1.734632850E0,-8.338251114E0,8.518142784E0
4.369923918E0,-4.045822471E-2,-2.057136536E0,-7.587631226E0,7.861653465E0
4.386725054E0,3.182661235E-1,-7.122962475E-1,-7.150815964E0,7.193248794E0
4.403529459E0,5.250772238E-1,1.289205551E-1,-5.822699070E0,5.847747520E0
4.420347574E0,-2.039150000E-1,5.271692276E-1,-4.508538723E0,4.543832098E0
4.437155669E0,-5.115829110E-1,1.258662462E0,5.391502380E-1,1.461722015E0
4.453923564E0,-4.534333646E-1,2.382638931E0,5.940938950E0,6.416956108E0
4.470747528E0,-1.607769489E0,4.396925926E0,1.218642521E1,1.305476310E1
4.487561189E0,-7.300060987E-1,4.630713463E0,1.832944107E1,1.891942985E1
4.504364015E0,4.109824181E0,4.060441971E0,2.618695641E1,2.681668379E1
4.521170971E0,8.598200798E0,6.175568581E0,3.310502625E1,3.475643058E1
4.537977226E0,8.467660904E0,6.426909924E0,3.390671158E1,3.553408986E1
4.554784925E0,4.626485825E0,3.471352339E0,2.303301239E1,2.374814346E1
4.571593448E0,9.825221896E-1,2.808699131E0,1.085262108E1,1.125315622E1
4.588394747E0,-1.967785209E-1,1.580895185E0,4.499811172E0,4.773494733E0
4.605202813E0,-8.045575023E-1,-4.945555925E-1,-1.905860901E-1,9.634423005E-1
4.622027897E0,-1.011836052E0,-1.348249674E0,-5.394836426E0,5.652065944E0
4.638827225E0,-1.536510944E0,-9.826653004E-1,-1.205963516E1,1.219677405E1
4.655641636E0,-1.866461754E0,-3.104507923E-1,-1.879112816E1,1.888614722E1
4.672425685E0,-1.597667336E0,-8.377625942E-1,-2.029965210E1,2.037965315E1
4.689238013E0,-1.219769359E0,-3.307563543E0,-1.668678474E1,1.705510478E1
4.706043840E0,-1.112995267E0,-5.441075325E0,-1.300961685E1,1.414546534E1
4.722851273E0,-6.089805365E-1,-5.224594116E0,-1.019306564E1,1.147021483E1
4.739657783E0,-2.684212923E-1,-3.654534101E0,-9.345564842E0,1.003828928E1
4.756464322E0,-3.862037063E-1,-2.961250782E0,-9.715642929E0,1.016424503E1
4.773257453E0,-7.039942741E-1,-2.604299068E0,-1.037922382E1,1.072409757E1
4.790077412E0,-6.188612580E-1,-2.619156837E0,-1.096761417E1,1.129298599E1
4.806883218E0,-5.982633233E-1,-2.816277981E0,-1.098482609E1,1.135586830E1
4.823707743E0,-4.639035463E-1,-3.065468311E0,-9.568008423E0,1.005778741E1
4.840494322E0,2.079736888E-1,-2.507972717E0,-8.100947380E0,8.482837300E0
4.857318024E0,1.062030196E0,-1.409177065E0,-5.190484047E0,5.482226991E0
4.874117299E0,2.378909826E0,-8.339381218E-2,-2.165497780E0,3.218003593E0
4.890901185E0,2.256452799E0,3.774974346E-1,7.837066650E-1,2.418321667E0
4.907711387E0,1.543748140E0,-1.962447166E-1,2.922054291E0,3.310599883E0
4.924526563E0,2.029448509E0,8.576347828E-1,6.789634705E0,7.138160694E0
4.941337984E0,5.076988697E0,2.133625746E0,1.816275787E1,1.897930311E1
5.025369644E0,1.960968256E0,-1.870806217E-1,1.287656975E1,1.302637494E1
5.042175908E0,1.712680578E0,-2.861194849E0,1.085923672E1,1.135969774E1
5.058983222E0,5.276626348E-2,-2.771034002E0,2.818769455E0,3.953084234E0
5.075789617E0,-8.220386505E-1,-5.997300148E-1,-9.223974228E0,9.279931260E0
5.092596411E0,-1.361440182E0,1.112599611E0,-1.899473953E1,1.907594106E1
5.109419756E0,-2.052661180E0,7.818915844E-1,-2.370635986E1,2.380790353E1
5.126220598E0,-1.705388665E0,5.123596191E-1,-2.022308731E1,2.030133304E1
5.143030871E0,-1.443016291E0,-1.590553284E0,-1.527065277E1,1.542092707E1
5.159832711E0,-1.497936010E0,-3.219723225E0,-1.136193466E1,1.190394847E1
5.176646951E0,-9.794207811E-1,-2.908121824E0,-8.591915131E0,9.123455662E0
5.193432758E0,-3.991641998E-1,-1.977267504E0,-5.900227547E0,6.235511522E0
5.210242879E0,-4.368550181E-1,-2.875631094E0,-4.472697735E0,5.335271457E0
5.227049795E0,-4.630267620E-1,-2.759674311E0,-5.572790623E0,6.235879361E0
5.243854502E0,-6.120675206E-1,-1.477052450E0,-7.336705208E0,7.508898314E0
5.260671184E0,-7.638436556E-1,-7.686951160E-1,-8.950473785E0,9.015837748E0
5.283797337E0,-7.160857320E-1,-1.682067633E0,-8.890980721E0,9.076985649E0
5.300587541E0,-6.418859959E-1,-2.147283554E0,-8.431384087E0,8.724166545E0
5.317400306E0,-3.236338496E-1,-1.405982018E0,-7.454298973E0,7.592634423E0
5.334206932E0,1.718757153E-1,-2.660272121E-1,-6.267728806E0,6.275725944E0
5.351013212E0,-2.484358847E-1,-1.411824226E-1,-5.980134010E0,5.986957128E0
5.367819609E0,4.085463285E-2,-9.178962708E-1,-4.617281437E0,4.707811650E0
5.384626961E0,9.198986888E-1,-1.561290264E0,2.893495560E-1,1.835092382E0
5.401416731E0,1.192923069E0,-7.911224365E-1,5.919835091E0,6.090434111E0
5.418239867E0,1.432928681E0,3.210742474E0,9.121836662E0,9.775993859E0
5.435046976E0,1.861144066E0,5.810776711E0,1.642546844E1,1.752212878E1
5.451849868E0,4.271700859E0,5.841736794E0,2.736022186E1,2.830114940E1
5.468647844E0,5.850935459E0,4.504277229E0,3.393741608E1,3.473140033E1
5.485453141E0,5.502657413E0,5.574940681E0,3.076659012E1,3.174810655E1
5.502258266E0,4.345868111E0,6.374462128E0,2.514230728E1,2.629935270E1
5.519066337E0,2.392182350E0,3.044590712E0,2.000692558E1,2.037815351E1
5.535872754E0,1.380136728E0,6.890962124E-1,1.247308636E1,1.256811498E1
5.552679308E0,7.394893169E-1,-2.001256943E-1,2.933076859E0,3.031473998E0
5.569484139E0,6.382235885E-1,-8.474949598E-1,-8.667469025E0,8.732158745E0
5.586292804E0,1.061831266E-1,-1.945047379E-1,-1.583914185E1,1.584069195E1
5.603098158E0,-3.476296067E-1,-7.454395294E-2,-1.810351562E1,1.810700641E1
5.619921071E0,-2.817260027E-1,-1.766758680E0,-1.760155487E1,1.769224518E1
5.636721735E0,-5.644564629E-1,-2.836625814E0,-1.646506310E1,1.671715765E1
5.653527913E0,-9.923415780E-1,-3.713143826E0,-1.696026993E1,1.739031152E1
5.670333084E0,-1.089371204E0,-3.853496313E0,-1.670825958E1,1.718144644E1
5.687144644E0,-3.841573894E-1,-3.068457127E0,-1.395659256E1,1.429508594E1
5.703939998E0,1.154589355E-1,-2.772484779E0,-1.082958508E1,1.117944165E1
5.720744921E0,3.085184097E-1,-3.879445553E0,-7.876751900E0,8.785698714E0
5.737554119E0,1.819808483E-1,-4.437339783E0,-6.047709942E0,7.503192448E0
5.754359311E0,-1.028459072E-1,-3.939251900E0,-6.534374237E0,7.630617896E0
5.771166365E0,1.624327302E-1,-2.248619318E0,-8.561264038E0,8.853130246E0
5.787970620E0,3.451026678E-1,1.173663616E0,-1.059900856E1,1.066937508E1
5.804797301E0,1.850273609E-1,1.460549593E0,-8.554024696E0,8.679791400E0
5.821597202E0,1.456916332E-3,-3.106729984E-1,-3.067734718E0,3.083426039E0
5.838407826E0,-1.579380870E0,-1.432824135E-1,4.793405533E-1,1.656726033E0
5.855211080E0,-3.632285833E0,2.880591869E0,-2.623286247E0,5.326625632E0
5.872021948E0,-4.142560482E0,4.377326488E0,-1.862954617E0,6.308121308E0
5.888824922E0,-3.052708387E0,1.052628994E0,2.869602203E0,4.319915868E0
5.905616996E0,-1.701542974E0,-6.284213543E0,7.101125717E0,9.633928316E0
5.922439556E0,4.383033752E0,-9.203365326E0,1.213648987E1,1.584952064E1
5.939246717E0,8.590097427E0,-2.715059757E0,2.351640701E1,2.518298477E1
5.956054939E0,1.184871578E1,-3.306927681E0,3.372483444E1,3.589836061E1
5.972856539E0,1.010429764E1,-3.081096411E0,3.510985184E1,3.666458348E1
5.989666685E0,6.217075825E0,3.571925163E-1,2.656686974E1,2.728696000E1
6.006457605E0,3.663875341E0,4.300943375E0,1.624529648E1,1.719976029E1
6.023266285E0,2.836309195E0,6.558637142E0,1.123316765E1,1.331331763E1
6.040072947E0,1.126172185E0,6.195755005E0,6.690485001E0,9.187939563E0
6.056879507E0,-6.113677621E-1,4.873604774E0,-3.670024872E-1,4.925493362E0
6.073685948E0,-2.115278959E0,4.198184013E0,-7.415113926E0,8.779696385E0
6.090496710E0,-2.659748793E0,4.509751320E0,-1.316522217E1,1.416810486E1
6.107315294E0,-2.573229074E0,4.519726276E0,-1.663549042E1,1.742954316E1
6.124122514E0,-2.253658295E0,3.451435089E0,-1.586681652E1,1.639351233E1
6.140924400E0,-1.632334232E0,1.729628563E0,-1.278143311E1,1.300081391E1
6.157707191E0,-1.203631878E0,2.002173662E-1,-1.011595058E1,1.018927244E1
6.174541989E0,-5.479997396E-1,-6.174539328E-1,-1.000778961E1,1.004178301E1
6.191343799E0,-7.654111385E-1,-6.444051266E-1,-1.193799400E1,1.197985029E1
6.208139490E0,-1.254434109E0,-6.467251182E-1,-1.239487839E1,1.247496968E1
6.224932850E0,-1.658674121E0,-1.169294357E0,-1.101004219E1,1.119551152E1
6.241752624E0,-1.766082048E0,-1.742207766E0,-9.328290939E0,9.652530526E0
6.258559606E0,-1.172250271E0,-7.025760412E-1,-7.922617912E0,8.039630487E0
6.275367864E0,-9.066578150E-1,1.872254908E-1,-7.033793449E0,7.094457842E0
6.292173020E0,-9.811987877E-1,-4.603529572E-1,-5.946879387E0,6.044836668E0
6.308994355E0,-9.785471559E-1,-1.297045350E0,-3.892539978E0,4.218026631E0
6.325796918E0,-3.052051067E-1,-2.479016304E0,-4.587316513E-1,2.539509150E0
6.342606477E0,-9.752815217E-2,-1.487211704E0,-1.387745857E0,2.036454998E0
6.359414910E0,4.886247814E-1,-1.864488244E0,-2.096796036E0,2.848091327E0
6.376218020E0,3.539742231E0,-3.123722553E0,7.160834312E0,8.577002140E0
6.393013029E0,5.125980377E0,-3.941721439E0,2.052588654E1,2.152033598E1
6.409818292E0,6.625400066E0,-6.283814907E0,3.545360184E1,3.661065609E1
6.426627806E0,7.764928341E0,-6.010752678E0,3.597784424E1,3.729381364E1
6.443433013E0,6.229422569E0,-3.470711708E0,2.709172058E1,2.801451176E1
6.460225897E0,4.478260994E0,6.177816391E-1,2.299294281E1,2.343313668E1
6.477032227E0,3.165921211E0,1.372852802E0,1.748107147E1,1.781840739E1
6.493854767E0,1.759137869E0,-1.967134476E-1,9.816404343E0,9.974720870E0
6.510659344E0,-1.758601069E-1,3.848944902E-1,4.350776672E-1,6.069292565E-1
6.527465888E0,-1.276693106E0,9.501513243E-1,-7.309026718E0,7.480281037E0
6.544272768E0,-1.989634871E0,7.077100277E-1,-1.249042320E1,1.266768219E1
6.561080630E0,-1.905618429E0,-4.818660021E-1,-1.808458328E1,1.819108927E1
6.577885257E0,-1.721738696E0,-4.410293102E-1,-2.278543854E1,2.285465161E1
6.594706327E0,-1.421975851E0,-2.934157848E-1,-2.198583221E1,2.203372248E1
6.611513578E0,-1.319329977E0,-1.570017815E0,-1.779687500E1,1.791464059E1
6.628319615E0,-1.294705987E0,-3.830167532E0,-1.377622986E1,1.435726144E1
6.645103102E0,-1.591394305E0,-4.989044666E0,-1.122669029E1,1.238796502E1
6.661913900E0,-1.617119074E0,-4.684477806E0,-9.944286346E0,1.111072623E1
6.678741018E0,-1.239667416E0,-3.296766758E0,-9.609210014E0,1.023437167E1
6.695531550E0,-8.665869236E-1,-2.662548304E0,-9.437469482E0,9.844082822E0
6.712320847E0,-8.675591946E-1,-2.609445810E0,-8.493028641E0,8.927116101E0
6.729145927E0,-9.723913670E-1,-2.344111443E0,-7.644420624E0,8.054661389E0
6.745939948E0,-8.672909141E-1,-6.422963142E-1,-7.557456493E0,7.634126455E0
6.762759228E0,-2.819873691E-1,1.355875731E0,-6.843181610E0,6.981908795E0
6.779568486E0,2.190755010E-1,8.778842688E-1,-3.563828468E0,3.676893827E0
6.857309774E0,2.796893835E0,-2.635539055E0,2.277612686E1,2.309806563E1
6.874100057E0,4.807960987E0,-4.197835922E0,3.399078751E1,3.458485146E1
6.890906505E0,6.244073868E0,-5.282789230E0,3.894351959E1,3.979314060E1
6.907729971E0,6.055118561E0,-2.650588989E0,3.549229813E1,3.610253882E1
6.924537457E0,3.234575510E0,-5.183369517E-1,2.558938980E1,2.579821743E1
6.941343152E0,1.167898774E0,-6.932097673E-2,1.206560421E1,1.212219443E1
6.958149529E0,6.070870161E-1,-1.239699125E-1,2.953137398E0,3.017439921E0
6.974954144E0,1.034173012E0,1.243455648E0,-3.289824009E0,3.665874763E0
6.991735853E0,1.757531643E0,1.414781690E0,-8.360239983E0,8.659338154E0
7.008555932E0,1.989414692E0,9.959635735E-1,-1.455258274E1,1.472166358E1
7.025362878E0,1.727897406E0,5.504603982E-1,-2.010660362E1,2.018821798E1
7.042165084E0,8.071179390E-1,1.075041294E0,-2.252733612E1,2.256741070E1
7.058978968E0,4.203780890E-1,7.447408438E-1,-2.019745064E1,2.021554770E1
7.075777989E0,-1.184704751E-1,-1.342027187E-1,-1.727339172E1,1.727431930E1
7.092611231E0,-4.494223595E-1,-1.544850230E0,-1.484878731E1,1.493569641E1
7.109409348E0,-5.837352872E-1,-2.709356785E0,-1.243191719E1,1.273710823E1
7.126214982E0,-4.947088063E-1,-3.113650322E0,-1.059159756E1,1.105085942E1
7.143015499E0,-3.256281912E-1,-2.418958902E0,-9.247638702E0,9.564320021E0
7.159819690E0,1.631837785E-1,-1.960989952E0,-7.397708893E0,7.654946597E0
7.176623401E0,3.645777404E-1,-1.760969043E0,-5.434813499E0,5.724607119E0
7.193429248E0,2.828577459E-1,-1.537739515E0,-4.850746632E0,5.096508040E0
7.210235960E0,-3.324285150E-1,-9.006199837E-1,-6.269107819E0,6.342187155E0
7.227042602E0,-2.079244852E-1,-7.767539024E-1,-6.887774944E0,6.934552826E0
7.243849659E0,5.872557163E-1,-6.576733589E-1,-3.627605438E0,3.733219085E0
7.260672780E0,1.177658081E0,-2.529805660E0,2.173386574E0,3.537005009E0
7.277476217E0,1.464780688E0,-4.026561737E0,6.563076019E0,7.837904613E0
7.294277415E0,1.929455519E0,-2.904006243E0,1.066841602E1,1.122368706E1
7.311094016E0,3.552282810E0,-1.332860291E-1,1.702429581E1,1.739146705E1
7.327896323E0,3.422641516E0,-2.213057995E0,2.603532791E1,2.635242683E1
7.344703076E0,4.085955620E0,-5.296516895E0,2.922319984E1,2.997905158E1
7.361509279E0,5.772361279E0,2.377644479E-1,2.665988541E1,2.727867622E1
7.378317009E0,4.941967964E0,3.719099998E0,2.492125320E1,2.567729763E1
7.395123070E0,2.532682896E0,1.128847003E0,1.789457321E1,1.810813432E1
7.411928369E0,6.971906424E-1,1.369697571E0,1.002395153E1,1.014109218E1
7.428734562E0,-7.529271841E-1,1.771253109E0,1.923395157E0,2.720971490E0
7.445543359E0,-1.384385943E0,1.872542739E0,-6.669528008E0,7.064385649E0
7.462349431E0,-1.439878225E0,2.003182650E0,-1.410799217E1,1.432206107E1
7.479158453E0,-1.440112710E0,2.293501854E0,-1.948603058E1,1.967331856E1
7.495946498E0,-1.538426399E0,2.266093254E0,-2.095449638E1,2.113274362E1
7.512756577E0,-1.687806249E0,9.154773951E-1,-1.863496971E1,1.873362979E1
7.529562415E0,-1.597051501E0,-4.330379963E-1,-1.580440140E1,1.589078975E1
7.546353289E0,-1.376807332E0,-1.431387901E0,-1.274159241E1,1.289545063E1
7.563172777E0,-1.212631702E0,-2.480332851E0,-9.146571159E0,9.554176609E0
7.579986387E0,-1.168655753E0,-2.711285114E0,-7.230792522E0,7.810325457E0
7.596803455E0,-1.454165459E0,-2.226199627E0,-8.355173111E0,8.768094415E0
7.613607248E0,-1.314494371E0,-1.160217643E0,-9.384176254E0,9.546557725E0
7.630419240E0,-7.871461511E-1,7.887374163E-1,-9.488698959E0,9.553905679E0
7.647198710E0,-2.655204535E-1,1.247672915E0,-7.847772121E0,7.950768270E0
7.664017912E0,-2.517776489E-1,2.682309747E-1,-6.511949062E0,6.522332438E0
7.680837270E0,6.028163061E-2,-5.050172806E-1,-5.513593674E0,5.537002034E0
7.697627745E0,1.062317491E0,1.164709091E0,-3.910400391E0,4.216194603E0
7.714440613E0,9.401793480E-1,2.588181734E0,-2.029407501E0,3.420689507E0
7.731244050E0,8.697457910E-1,8.960732222E-1,1.281213760E-1,1.255316712E0
7.748054261E0,1.400261521E0,-2.127218246E0,6.477960587E0,6.960586409E0
7.764871391E0,2.905077934E0,-3.616546154E0,1.510877037E1,1.580486716E1
7.781678091E0,5.364441872E0,-4.817825317E0,2.478136826E1,2.580900792E1
7.798483941E0,6.173995018E0,-6.094484806E0,3.304083252E1,3.416076072E1
7.815291862E0,6.784175873E0,-7.434984207E0,3.462067795E1,3.605406182E1
7.832097455E0,6.088911533E0,-4.469408035E0,2.936467361E1,3.032052949E1
7.848904738E0,4.396411419E0,-1.615753174E0,2.063099289E1,2.115601473E1
7.865711542E0,1.908726096E0,-1.687128782E0,1.363148975E1,1.386748542E1
7.882518435E0,4.471289217E-1,-1.337903857E0,5.729196548E0,5.900305424E0
7.899324814E0,2.552520037E-1,7.152497768E-1,-2.484344959E0,2.597827112E0
7.916131750E0,5.854640007E-1,2.947284222E0,-1.058835983E1,1.100648065E1
7.932920436E0,5.129458904E-1,3.791786194E0,-1.720101357E1,1.762145351E1
7.949744697E0,3.745936751E-1,3.919653893E0,-2.064175224E1,2.101394639E1
7.966554002E0,3.000528812E-1,3.189549446E0,-1.954849434E1,1.980926269E1
7.983341295E0,1.208813787E-1,2.033739090E0,-1.666799736E1,1.679204702E1
8.000139442E0,1.931725740E-1,3.701686859E-3,-1.444071865E1,1.444201110E1
8.016957811E0,3.998745680E-1,-1.124619365E0,-1.341153240E1,1.346454120E1
8.033753720E0,5.161006451E-1,-1.271967888E0,-1.205839443E1,1.213627366E1
8.050570920E0,5.082741380E-1,-1.947723389E0,-9.641199112E0,9.849095863E0
8.067366067E0,4.252717197E-1,-2.015085936E0,-8.141334534E0,8.397782764E0
8.084196989E0,5.557774901E-1,-1.420031428E0,-8.015481949E0,8.159248050E0
8.101028544E0,7.185135484E-1,-8.851119280E-1,-7.973691463E0,8.054777489E0
8.117804810E0,8.707032204E-1,1.240643263E-1,-8.166832924E0,8.214053571E0
8.134588522E0,1.142014384E0,7.568883896E-1,-6.614499569E0,6.754900550E0
8.151410736E0,1.102627039E0,2.992920280E-1,-3.322636604E0,3.513584510E0
8.168217754E0,9.959071875E-1,-2.286193132E0,2.128377914E0,3.278490920E0
8.185025748E0,8.919472694E-1,-3.847551584E0,7.731572151E0,8.681960093E0
8.201829358E0,-3.418257833E-1,-1.986383200E0,1.191925430E1,1.208847328E1
8.218636904E0,8.636444807E-2,-1.495782852E0,1.632339478E1,1.639201153E1
8.235444928E0,2.134108067E0,-1.695510387E0,2.522996140E1,2.537676348E1
8.252249525E0,5.275500298E0,-4.230746746E0,3.367858124E1,3.435079265E1
8.269057529E0,5.077835083E0,-4.403524399E0,3.305443954E1,3.373086732E1
8.285864282E0,2.580350637E0,-9.168289900E-1,2.503124237E1,2.518058537E1
8.302671127E0,1.765469313E-1,5.561068058E-1,1.259138680E1,1.260489766E1
8.319477493E0,-1.212238669E0,8.983671665E-1,3.102897644E0,3.450298530E0
8.336284267E0,-8.920732737E-1,1.825781345E0,-3.010551453E0,3.632174596E0
8.353091080E0,1.491616964E-1,2.691908836E0,-8.263580322E0,8.692259898E0
8.369915128E0,9.891048074E-1,2.561893940E0,-1.262160683E1,1.291691092E1
8.386716000E0,1.328631401E0,2.107673407E0,-1.584702301E1,1.604168591E1
8.403525121E0,1.827363729E0,2.163314819E0,-1.853179550E1,1.874690998E1
8.420331612E0,1.833085299E0,1.606143355E0,-1.859004974E1,1.874912925E1
8.437121550E0,1.918494463E0,-3.149038553E-1,-1.732004356E1,1.742881793E1
8.453950142E0,1.659660816E0,-1.953495502E0,-1.512835503E1,1.534398073E1
8.470747161E0,1.110422134E0,-3.963299274E0,-1.113169003E1,1.186824761E1
8.487541188E0,8.779733181E-1,-4.879611015E0,-7.984593391E0,9.398679292E0
8.504351043E0,6.706961989E-1,-3.729614258E0,-6.856153488E0,7.833689843E0
8.521158070E0,5.351822972E-1,-2.391871929E0,-7.063102245E0,7.476288166E0
8.537964142E0,2.926921248E-1,-1.562546968E0,-8.626196861E0,8.771459058E0
8.554757936E0,-1.052734852E-1,-9.071929455E-1,-9.681375504E0,9.724356698E0
8.571577627E0,-5.873966217E-2,-1.745061040E0,-7.000202179E0,7.214673861E0
8.588372285E0,-2.277043462E-1,-2.334601164E0,-2.944991112E0,3.764994623E0
8.605204959E0,-3.403251767E-1,-1.454073548E0,-2.577142715E-1,1.515443089E0
8.621992728E0,-1.010033607E0,-2.348053455E-1,3.742784500E0,3.883778734E0
8.638801455E0,-2.564798832E0,1.134410501E0,8.349733353E0,8.808128478E0
8.655595228E0,-1.498822927E0,-1.618530273E0,1.538957214E1,1.554686596E1
8.672417574E0,2.056356668E0,-3.370952606E0,3.051932907E1,3.077371234E1
8.689218225E0,4.902770519E0,-5.237531662E0,3.964445496E1,4.028835695E1
8.706026667E0,4.098536015E0,-4.956631660E0,3.340286255E1,3.401642870E1
8.722841710E0,2.696203709E0,-1.753941774E0,2.470773697E1,2.491622147E1
8.739641964E0,2.122314930E0,-1.536516190E0,1.785151863E1,1.804277751E1
8.756457251E0,1.274903059E0,-2.147118807E0,1.111391640E1,1.139098919E1
8.773278703E0,8.682637215E-1,-1.639400959E0,2.175723076E0,2.859246106E0
8.790072353E0,1.375213385E0,2.158402503E-1,-5.714530945E0,5.881637764E0
8.806890002E0,2.309245348E0,1.562398672E0,-1.143178368E1,1.176687646E1
8.823686856E0,2.727002382E0,1.950660467E0,-1.592497444E1,1.627410302E1
8.840496916E0,2.768010139E0,2.566097021E0,-1.844002724E1,1.882236273E1
8.857305732E0,2.606884241E0,2.499116421E0,-1.865028763E1,1.899670121E1
8.874091021E0,2.200367212E0,1.460803628E0,-1.719183350E1,1.739352472E1
8.890907897E0,1.807618737E0,4.314541817E-1,-1.563066864E1,1.574075730E1
8.907711446E0,1.395438552E0,-1.117644429E0,-1.374748802E1,1.386325376E1
8.924518982E0,1.138133526E0,-2.093593359E0,-1.195682335E1,1.219196890E1
8.941311372E0,1.277190685E0,-1.889966726E0,-1.015463638E1,1.040768131E1
8.958131034E0,1.463427305E0,-1.206976056E0,-8.227961540E0,8.443800198E0
8.974938895E0,1.270042062E0,-8.544791937E-1,-6.707062721E0,6.879522649E0
8.991741791E0,9.889565706E-1,-1.182593346E0,-6.557655334E0,6.736423799E0
9.008554711E0,6.840152740E-1,-9.076853991E-1,-8.131628036E0,8.210672579E0
9.025356794E0,5.119499564E-1,1.753330231E-2,-1.000707817E1,1.002018032E1
9.042164737E0,4.978806973E-1,7.054212689E-1,-9.541140556E0,9.580128782E0
9.058971979E0,4.745383859E-1,-1.505345106E-2,-5.675021648E0,5.694847144E0
9.075778994E0,4.927552938E-1,-7.455365062E-1,-1.189096451E0,1.487475321E0
9.092598830E0,9.187736511E-1,-1.368653178E0,4.206689835E0,4.518140758E0
9.109393651E0,7.582362890E-1,-2.449680328E0,9.869495392E0,1.019719546E1
9.126212610E0,8.078879714E-1,-4.938130379E0,1.482726669E1,1.564882271E1
9.142988521E0,2.581667900E0,-6.016625404E0,2.079791069E1,2.180407942E1
9.227035530E0,-2.735881805E0,2.636980057E0,7.593768120E0,8.491409031E0
9.243847380E0,-2.562756538E0,3.488111973E0,-1.100656509E0,4.466104674E0
9.260652068E0,-1.399101973E0,4.800465584E0,-5.431505203E0,7.382628592E0
9.277474659E0,-9.069340229E-1,4.855208874E0,-9.437360764E0,1.065173041E1
9.294271199E0,-1.098392010E0,4.191020489E0,-1.484447384E1,1.546381328E1
9.311092326E0,-9.249048233E-1,4.495301247E0,-1.973602867E1,2.026262594E1
9.327888500E0,-5.849380493E-1,3.562603712E0,-1.866158867E1,1.900760872E1
9.344699494E0,-1.122065067E0,1.067426443E0,-1.484483337E1,1.492539806E1
9.361501975E0,-1.163862467E0,-1.301774740E0,-1.202134323E1,1.214750536E1
9.378315391E0,-7.644190788E-1,-1.456856966E0,-1.167267227E1,1.178804677E1
9.395119021E0,-4.747544527E-1,1.013843417E-1,-1.247815323E1,1.248759299E1
9.411922976E0,-2.002309561E-1,1.031109214E0,-1.253151512E1,1.257545824E1
9.428732171E0,2.432090044E-2,8.832987547E-1,-1.152388763E1,1.155771580E1
9.445538150E0,2.373752594E-1,-6.701226234E-1,-1.013037109E1,1.015528581E1
9.470817552E0,2.707676888E-1,-1.424562693E0,-9.944113731E0,1.004928315E1
9.487534255E0,9.348643422E-1,1.755462885E-1,-1.143529224E1,1.147478525E1
9.504349198E0,1.374357224E0,7.644903660E-1,-1.027527618E1,1.039493165E1
9.521155034E0,1.833886743E0,-2.654487848E0,-4.278103352E0,5.358321996E0
9.537965367E0,1.907583475E0,-6.727150440E0,3.139026642E0,7.664653679E0
9.554765416E0,2.446957350E0,-5.696519375E0,6.469504356E0,8.960603767E0
9.571588385E0,4.455752373E0,-6.341575623E0,6.977709770E0,1.042869811E1
9.588399756E0,6.627469063E0,-1.164465141E1,1.440204811E1,1.967079669E1
9.605196835E0,7.804889679E0,-1.144704056E1,3.029078484E1,3.330889801E1
9.622011889E0,1.037583065E1,-6.964375496E0,4.896436310E1,5.053384253E1
9.638799282E0,1.109808636E1,-4.116720200E0,4.861454010E1,5.003487199E1
9.655605883E0,6.471079826E0,5.076003075E-1,3.479497528E1,3.539523749E1
9.672402525E0,2.538671017E0,3.550099373E0,1.889737129E1,1.939481111E1
9.689225360E0,2.535798252E-1,4.883069515E0,3.065404892E0,5.771081161E0
9.706029143E0,-1.135610938E0,3.274029255E0,-7.112386703E0,7.911695418E0
9.722833994E0,-2.001171827E0,2.580264807E0,-1.343002796E1,1.382129177E1
9.739642842E0,-3.365941048E0,3.812769651E0,-2.030082703E1,2.092821898E1
9.756452391E0,-3.012602806E0,4.812656403E0,-2.424864388E1,2.490450094E1
9.773269827E0,-2.539528370E0,5.190977097E0,-2.304344559E1,2.375701648E1
9.790075725E0,-2.779795408E0,2.943023920E0,-2.071501160E1,2.110687939E1
9.806883597E0,-2.760876179E0,-2.211732388E0,-1.665575981E1,1.702728787E1
9.823685751E0,-2.492961884E0,-5.291544437E0,-1.313634109E1,1.437980385E1
9.840509942E0,-1.354948759E0,-6.189249039E0,-9.743255615E0,1.162212200E1
9.857287763E0,-1.695716977E-1,-5.788633823E0,-6.502276421E0,8.707274818E0
9.874129805E0,8.049417734E-1,-4.397834301E0,-6.162654877E0,7.613618911E0
9.890916396E0,9.232337475E-1,-3.307837248E0,-7.249921322E0,8.022188416E0
9.907706658E0,5.240607262E-1,-2.388373852E0,-8.605848312E0,8.946485035E0
9.924527866E0,1.595477462E-1,-2.242741585E0,-8.709653854E0,8.995188467E0
9.941326706E0,5.526511669E-1,-1.449037313E0,-7.814818859E0,7.967215715E0
9.958143560E0,1.580441952E0,1.187960625E0,-7.213034153E0,7.479098134E0
9.974919611E0,2.032662392E0,2.990497112E0,-6.276462555E0,7.243533087E0
9.991739294E0,1.994422436E0,1.753001094E0,-3.210502625E0,4.166300612E0
1.000855280E1,1.279637575E0,-1.479041576E-2,1.081947327E0,1.675798645E0
1.002535649E1,-1.958323717E-1,5.917285681E-1,6.864051819E0,6.892292825E0
1.004216029E1,-2.309548855E0,3.371211529E0,1.432596874E1,1.489739788E1
1.005896432E1,4.178655744E-1,-1.593958497E0,2.277221107E1,2.283175229E1
1.007579353E1,4.922612190E0,-5.790095806E0,3.351377106E1,3.436466457E1
1.009259546E1,7.812027931E0,-5.376305580E0,4.185276031E1,4.291370397E1
1.010940926E1,5.837822914E0,-2.859093904E0,3.499726868E1,3.559583415E1
1.012620644E1,2.194068909E0,9.782530069E-1,1.947207260E1,1.961969747E1
1.014300337E1,1.070908308E-1,2.106631041E0,8.210947990E0,8.477560362E0
1.015980969E1,-3.157540560E-1,1.117107511E0,3.266320229E0,3.466479143E0
1.017661501E1,-1.208533049E-1,1.645013571E0,-3.045817852E0,3.463766961E0
1.019342286E1,4.179596901E-2,2.039718151E0,-1.105861282E1,1.124522630E1
1.021022962E1,-4.502916336E-2,2.460101366E0,-1.712369919E1,1.729957226E1
1.022703624E1,2.215626240E-1,2.868238449E0,-2.034884262E1,2.055118677E1
1.024385770E1,8.469914198E-1,1.860296369E0,-1.849317741E1,1.860579770E1
1.026066432E1,5.868716836E-1,-1.578159332E-1,-1.493831825E1,1.495067478E1
1.027746990E1,4.118000269E-1,-3.231499672E0,-1.308433151E1,1.348376433E1
1.029427697E1,4.974884987E-1,-4.125105381E0,-1.274132729E1,1.340169430E1
1.031108183E1,8.217005730E-1,-3.549420357E0,-1.130987358E1,1.188220590E1
1.032789105E1,1.162581086E0,-3.139994144E0,-9.345710754E0,9.927409910E0
1.034470164E1,9.196240902E-1,-3.305893183E0,-8.293008804E0,8.974889037E0
1.036150281E1,6.148185730E-1,-4.243583679E0,-7.866232872E0,8.958996814E0
1.037831110E1,6.661663055E-1,-4.157955170E0,-8.220293045E0,9.236102343E0
1.039513239E1,1.494059086E0,-3.277686596E0,-9.036935806E0,9.728394047E0
1.041192204E1,2.390377045E0,-1.867510796E0,-8.121292114E0,8.669307042E0
1.042871402E1,3.049875021E0,-1.837471128E0,-4.641921997E0,5.850254491E0
1.044553770E1,4.429996014E0,-2.915067911E0,1.053794861E0,5.406752187E0
1.046231332E1,4.730844498E0,-3.160772800E0,4.602550507E0,7.318117622E0
1.047913649E1,2.777577877E0,-2.887842178E0,8.252891541E0,9.174137022E0
1.049594210E1,5.031112432E-1,-2.956714153E0,1.920180321E1,1.943462184E1
1.051274690E1,1.612303495E0,-6.724973202E0,3.580009842E1,3.646192307E1
1.052956061E1,3.188188314E0,-8.440650940E0,4.300956345E1,4.394578115E1
1.054636339E1,2.074981689E0,-6.585739136E0,3.998725510E1,4.057903497E1
1.056318495E1,-5.318232775E-1,-2.006446600E0,2.811920547E1,2.819571564E1
1.057998902E1,-1.956310987E0,-3.099595904E-1,1.223846912E1,1.239771568E1
1.059678247E1,-1.949000359E0,-6.397176981E-1,8.119373322E-1,2.206146723E0
1.061359909E1,-5.599306822E-1,2.314566612E0,-7.018156528E0,7.411157941E0
1.063041419E1,4.384517670E-3,5.589887619E0,-1.239458084E1,1.359678260E1
1.064719980E1,1.445478201E-1,7.943594933E0,-1.769433784E1,1.939616422E1
1.066399421E1,9.078687429E-2,7.727298737E0,-1.859282112E1,2.013485498E1
1.068082015E1,-7.781688571E-1,5.773459911E0,-1.794209480E1,1.886417642E1
1.069762375E1,-1.343716621E0,1.837368488E0,-1.558280277E1,1.574818210E1
1.071441779E1,-1.273865938E0,-1.748632908E0,-1.353115749E1,1.370301699E1
1.073123696E1,-7.427640557E-1,-3.777006626E0,-1.173787117E1,1.235293880E1
1.074804314E1,-1.809982061E-1,-5.178515434E0,-1.061667633E1,1.181370385E1
1.076485068E1,1.145852447E0,-4.409584045E0,-1.163166046E1,1.249211489E1
1.078167470E1,2.755216837E0,-4.718442917E0,-9.637262344E0,1.107843621E1
1.079847733E1,3.340797901E0,-3.941383362E0,-7.338105202E0,8.974587532E0
1.081528174E1,3.190178156E0,-3.195040226E0,-6.682199478E0,8.064571196E0
1.083209138E1,2.907645226E0,-2.325289488E0,-7.951919556E0,8.780341484E0
1.084889732E1,2.821021557E0,-8.186180592E-1,-1.240187454E1,1.274499079E1
1.086570455E1,2.153207302E0,5.527138710E-1,-1.388174534E1,1.405861472E1
1.088249033E1,2.352411270E0,-1.253309846E0,-7.342844963E0,7.811657731E0
1.089930433E1,2.615231514E0,-2.178044319E0,3.220121384E0,4.685348936E0
1.091609739E1,2.323775530E0,-5.633021593E-1,1.038826942E1,1.065989604E1
1.093293254E1,-4.828677773E-1,7.053720951E-1,1.395409203E1,1.398025019E1
1.094972051E1,-1.240940094E0,-1.693522096E0,1.964120293E1,1.975309601E1
1.096653067E1,1.605897307E0,-4.012497425E0,3.117161560E1,3.146980554E1
1.104215990E1,8.155244589E-1,-1.182088852E0,7.530511856E0,7.666226126E0
1.105898318E1,-3.161956072E-1,-1.806163311E0,-4.009017467E0,4.408449458E0
1.107578514E1,3.326992393E-1,-1.395898938E0,-9.921417236E0,1.002465673E1
1.109257698E1,1.129983664E0,-7.017374039E-1,-1.559680939E1,1.565342651E1
1.110938317E1,1.846192837E0,8.904821873E-1,-1.927802277E1,1.938668482E1
1.112617985E1,2.116984129E0,2.175432920E0,-2.056829834E1,2.079108046E1
1.114300041E1,2.109016418E0,3.978455067E-1,-1.766746330E1,1.779734505E1
1.115980905E1,1.830327153E0,-3.702150822E0,-1.563291073E1,1.616922744E1
1.117661670E1,1.658442378E0,-5.735880852E0,-1.343000412E1,1.469747498E1
1.119340660E1,2.377481461E0,-4.817789078E0,-1.140883923E1,1.261051633E1
1.121024261E1,2.559662104E0,-2.104584694E0,-1.157635021E1,1.204130521E1
1.122703253E1,2.377336502E0,-5.947903395E-1,-1.215721512E1,1.240174922E1
1.124385392E1,1.936621428E0,-1.398084164E0,-9.486657143E0,9.782729968E0
1.126065906E1,1.522951245E0,-1.716410279E0,-6.418922901E0,6.816745261E0
1.127746925E1,1.227259517E0,-1.531653643E0,-3.912418842E0,4.377116631E0
1.129424878E1,1.114385128E0,-7.527767420E-1,-2.837892532E0,3.140407786E0
1.131107679E1,1.098582149E0,8.893667459E-1,-3.909206867E0,4.156892382E0
1.132790686E1,5.896621943E-1,8.903526068E-1,-5.412850857E0,5.517189834E0
1.134467817E1,3.946493566E-1,-5.500793457E-3,-1.948541641E0,1.988112899E0
1.136150013E1,-1.172513962E-1,1.173298359E-1,5.477190971E0,5.479702101E0
1.137830335E1,-2.164377570E-1,5.182734728E-1,9.649788857E0,9.666120094E0
1.139511925E1,-1.596120119E0,2.535981178E0,1.131377411E1,1.170385768E1
1.141191178E1,-2.550348043E0,2.648733139E0,2.098982811E1,2.130945674E1
1.142873160E1,1.007780790E0,-2.786531925E0,3.231948471E1,3.245503773E1
1.144553044E1,4.692738533E0,2.285838127E-2,3.378599548E1,3.411034752E1
1.146232769E1,5.490867615E0,4.915661335E0,2.607009125E1,2.709175172E1
1.147913426E1,3.711961985E0,2.183052063E0,1.678958511E1,1.733304781E1
1.149593984E1,2.238518000E0,-2.111282349E0,1.271756744E1,1.308453277E1
1.151274737E1,1.721837640E0,-1.649626493E0,8.374835014E0,8.707689357E0
1.152955232E1,9.013066292E-1,-7.332646847E-1,-1.536278725E0,1.926183547E0
1.154636229E1,4.436502457E-1,4.951230884E-1,-1.002490520E1,1.004692474E1
1.156318392E1,-5.436402559E-2,2.249041557E0,-1.407707405E1,1.425570613E1
1.157998741E1,3.682411909E-1,2.238768816E0,-1.465530777E1,1.482989323E1
1.159679454E1,-3.105188608E-1,1.769460917E0,-1.643709946E1,1.653498269E1
1.161360148E1,-1.470348239E-1,-6.911237240E-1,-1.574249840E1,1.575834785E1
1.163040730E1,-7.024339437E-1,-2.956372738E0,-1.319981480E1,1.354506050E1
1.164721221E1,-2.275280356E-1,-4.735975266E0,-1.156338692E1,1.249772570E1
1.166400512E1,1.660913229E-1,-4.530531883E0,-1.243707848E1,1.323760652E1
1.168082808E1,4.684896767E-1,-2.007105827E0,-1.399648380E1,1.414742080E1
1.169763414E1,9.558571577E-1,-9.325031042E-1,-1.350759983E1,1.357344754E1
1.171442498E1,1.253060579E0,-1.996607661E0,-1.111138916E1,1.135867827E1
1.173124806E1,1.409099340E0,-3.577084064E0,-8.698606491E0,9.510354685E0
1.174804216E1,1.465864182E0,-3.828171730E0,-9.040000916E0,9.925989782E0
1.176486098E1,1.437515020E0,-3.083380938E0,-1.139917564E1,1.189600323E1
1.178163590E1,1.944233537E0,-2.513576031E0,-1.289934349E1,1.328499797E1
1.179847423E1,1.476706028E0,-2.363355160E0,-1.129937363E1,1.163795311E1
1.181525865E1,1.824496508E0,-5.301300526E0,-5.512069225E0,7.862282233E0
1.183208600E1,2.434930325E0,-4.959494591E0,4.042167664E-1,5.539753016E0
1.184887643E1,2.943823576E0,-1.863726616E0,6.678977013E0,7.533147289E0
1.186570118E1,3.176360607E0,-1.482947826E0,1.551852512E1,1.590952617E1
1.188251286E1,5.375925064E0,-7.436349392E0,2.708718491E1,2.859922112E1
1.189931915E1,8.357626915E0,-8.501207352E0,4.086968994E1,4.257290230E1
1.191611672E1,8.618681908E0,-3.447028637E0,4.169446564E1,4.271524493E1
1.193292282E1,4.643722057E0,3.741616309E-1,2.710372162E1,2.750119774E1
1.194972371E1,1.345285296E0,1.381502271E0,2.125808716E1,2.134536509E1
1.196652287E1,1.131593466E0,-1.197929159E-1,2.120801926E1,2.123852478E1
1.198333825E1,9.339260459E-1,-2.481323719E0,1.665511513E1,1.686481678E1
1.200014101E1,-1.296479106E0,-1.379071355E0,4.541669846E0,4.920311053E0
1.201694842E1,-1.380015492E0,2.222034454E0,-9.460909843E0,9.815838983E0
1.203375288E1,-1.303873658E0,4.334357262E0,-1.677434540E1,1.737427417E1
1.205057886E1,-8.816646934E-1,2.130288601E0,-1.817635727E1,1.832199295E1
1.206738163E1,-7.826220989E-1,-1.105160713E-1,-1.802386093E1,1.804118272E1
1.208418928E1,-1.201609612E0,-2.463095188E-1,-1.767661476E1,1.771912084E1
1.210098895E1,-9.949467182E-1,-4.350235462E-1,-1.700317955E1,1.703781909E1
1.211780579E1,5.594456196E-2,-8.701360822E-1,-1.719224167E1,1.721433822E1
1.213460592E1,6.902176142E-1,-1.107611656E0,-1.624667549E1,1.629900820E1
1.215141976E1,1.325488567E0,-2.152002096E0,-1.236065102E1,1.261640704E1
1.216822010E1,1.631631136E0,-3.254631042E0,-8.826916695E0,9.548261712E0
1.218502903E1,1.039323330E0,-4.186615944E0,-7.904236794E0,9.004715728E0
1.220183525E1,9.278596640E-1,-4.266057968E0,-7.947638512E0,9.067807456E0
1.221864192E1,9.927673936E-1,-2.260917664E0,-8.917809486E0,9.253359488E0
1.223545712E1,2.615555525E-1,-1.100250006E0,-1.020665359E1,1.026911578E1
1.225223016E1,8.503479958E-1,-5.424946547E-1,-8.485636711E0,8.545374337E0
1.226904048E1,1.516725659E0,-6.403740048E-1,-5.858176708E0,6.085126945E0
1.228585616E1,2.315991879E0,-1.442895055E0,-6.669120789E-1,2.809009833E0
1.230265788E1,2.667506456E0,-2.156002045E0,5.404920578E0,6.401335952E0
1.231947037E1,2.407909155E0,-1.478798628E0,1.133805180E1,1.168487443E1
1.233626623E1,9.833559394E-2,3.202639818E-1,1.257891560E1,1.258337620E1
1.235308480E1,1.160438061E-1,-1.545135140E0,2.274893951E1,2.280164814E1
1.236987403E1,3.416649580E0,-1.178055763E0,3.492320633E1,3.510970877E1
1.238670931E1,7.080945015E0,2.666165829E-1,3.683426285E1,3.750964924E1
1.240350505E1,7.103598595E0,2.181177139E0,3.364908600E1,3.445982640E1
1.242032328E1,4.081583023E0,1.998391867E0,2.326271439E1,2.370246339E1
1.243713120E1,1.052603483E0,9.013447762E-1,1.062040901E1,1.071043809E1
1.245391814E1,-4.858259857E-1,1.236489773E0,-5.324907303E-1,1.431251279E0
1.247073320E1,-6.064749360E-1,2.233551979E0,-6.731637001E0,7.118391883E0
1.248753698E1,-6.538655758E-1,2.451385021E0,-9.589070320E0,9.919027085E0
1.250434474E1,-8.108164072E-1,1.666681528E0,-1.195581150E1,1.209862303E1
1.252115094E1,-9.665883780E-1,1.543841362E0,-1.464046383E1,1.475333591E1
1.253795733E1,-1.156695247E0,1.613669991E0,-1.642695236E1,1.654649929E1
1.255476534E1,-1.537063718E0,3.573302031E-1,-1.676620483E1,1.684030505E1
1.257157073E1,-1.429906726E0,-1.166551828E0,-1.570866585E1,1.581668926E1
1.258837764E1,-8.575901985E-1,-1.754351377E0,-1.366095352E1,1.379981380E1
1.260518312E1,-1.185495257E-1,-1.630686998E0,-1.149541855E1,1.161110855E1
1.262199138E1,3.042037189E-1,-1.687490463E0,-9.369872093E0,9.525474634E0
1.263879760E1,1.623280942E-1,-2.847681046E0,-7.054715633E0,7.609510524E0
1.265562145E1,-5.391900241E-2,-3.748626232E0,-6.270401478E0,7.305685497E0
1.267242289E1,-1.977383047E-1,-3.485899210E0,-7.267786980E0,8.062959836E0
1.268923265E1,-2.196484208E-1,-1.219118357E0,-9.601555824E0,9.681134708E0
1.270603799E1,-2.540601492E-1,-6.079622507E-1,-8.246008873E0,8.272292729E0
1.272284519E1,9.659940004E-2,-1.379470825E0,-6.197706699E0,6.350105474E0
1.273965012E1,2.569570839E-1,-9.877468348E-1,-4.733127594E0,4.841917758E0
1.275645872E1,8.220188022E-1,3.187043667E-1,-4.874120712E0,4.953215128E0
1.277326488E1,1.018126085E-1,1.124853134E0,-3.390909195E0,3.574062891E0
1.279006083E1,1.703109890E-1,-1.279218435E0,2.706463814E0,2.998391571E0
1.280687683E1,8.146405220E-1,-1.551608443E0,8.565023422E0,8.742468425E0
1.282368567E1,1.501811147E0,7.234117985E-1,1.099444962E1,1.112010268E1
1.284049205E1,3.223523378E0,1.127827406E0,1.430069351E1,1.470282056E1
1.285728211E1,4.555744648E0,5.612771511E-1,2.015588188E1,2.067194756E1
1.287410570E1,6.508688450E0,-1.238436699E0,2.550190735E1,2.634851095E1
1.289087575E1,8.232208252E0,-7.174320221E-1,2.717082214E1,2.839960453E1
1.290770504E1,7.550835133E0,2.403818607E0,2.576121521E1,2.695243336E1
1.292451094E1,4.841813564E0,2.405786991E0,2.204806900E1,2.270128446E1
1.294131599E1,2.975133181E0,1.044998050E0,1.513692474E1,1.546188634E1
1.295812817E1,1.308546066E0,1.681289673E-1,7.392582893E0,7.509383596E0
1.297493150E1,7.208614945E-1,6.018037796E-1,-1.878506660E0,2.100141985E0
1.299172525E1,5.428065658E-1,1.207946658E0,-7.782007217E0,7.893884369E0
1.300854463E1,4.271087945E-1,1.420687556E0,-1.061174011E1,1.071493366E1
1.302535310E1,2.414360046E-1,1.267168522E0,-1.297309303E1,1.303706831E1
1.304217115E1,3.351023793E-1,8.602628708E-1,-1.632582855E1,1.635191193E1
1.305896622E1,1.335424185E-2,-2.347807884E-1,-1.585378265E1,1.585552663E1
1.307577206E1,-2.084789872E-1,-2.313729048E0,-1.356003189E1,1.375758956E1
1.309257916E1,-5.043239594E-1,-3.949367762E0,-1.432739258E1,1.487030687E1
1.310937229E1,-2.211840749E-1,-4.553594589E0,-1.430401516E1,1.501296093E1
1.312619084E1,6.199750900E-1,-3.589996099E0,-1.392527008E1,1.439394275E1
1.314299884E1,1.098638058E0,-2.187196255E0,-1.158121872E1,1.183703764E1
1.315981882E1,1.375968456E0,-3.557409763E0,-8.104585648E0,8.957274247E0
1.317663023E1,7.932761908E-1,-4.653318882E0,-6.777142525E0,8.259075283E0
1.319343353E1,5.234742165E-2,-3.484366179E0,-9.216707230E0,9.853488726E0
1.321023921E1,2.356296778E-1,-1.940715790E0,-9.719209671E0,9.913875920E0
1.322704650E1,1.064320922E0,-6.461293697E-1,-7.297936440E0,7.403386959E0
1.324384874E1,1.949643970E0,-2.509751320E-1,-1.996861458E0,2.802062777E0
1.326062790E1,3.065395594E0,-8.510376215E-1,4.606421471E0,5.598217033E0
1.327745793E1,2.100655317E0,-1.151453614E0,3.945092201E0,4.615446963E0
1.329426285E1,1.246809006E0,7.852435112E-2,3.356384277E0,3.581342512E0
1.331106265E1,-1.944524050E-1,3.371148586E0,8.071926117E0,8.749768326E0
1.332787296E1,-1.648570538E0,4.681773186E0,1.571936893E1,1.648439701E1
1.334467924E1,-9.217042327E-1,1.879194736E0,2.578857803E1,2.587337760E1
1.336148624E1,4.556938648E0,2.479360104E-1,3.040806961E1,3.074862370E1
1.337829207E1,7.284066677E0,7.811017036E-1,3.283920288E1,3.364641130E1
1.339511276E1,5.817660809E0,-1.188017130E0,2.597951508E1,2.664942336E1
1.341188435E1,3.654716253E0,-1.743711948E0,1.707939148E1,1.755286574E1
1.342872282E1,2.119182825E0,-2.445677757E0,5.024557114E0,5.976491423E0
1.344551868E1,3.366240859E-1,1.386842728E-1,-8.395752907E0,8.403643018E0
1.346232567E1,2.289070487E-1,2.337194204E0,-1.102011108E1,1.126755180E1
1.347913335E1,1.011806726E-2,8.097255230E-1,-1.095207024E1,1.098196705E1
1.349593722E1,-4.292273819E-1,-1.216235399E0,-1.272167110E1,1.278688314E1
1.351274880E1,-6.167289019E-1,-1.325059533E0,-1.451748276E1,1.459086848E1
1.352955031E1,-3.976395130E-1,-1.136760831E0,-1.590249443E1,1.594803033E1
1.354637929E1,-3.098030686E-1,-2.384445667E0,-1.379907703E1,1.400700132E1
1.356315849E1,9.591913223E-2,-4.463439465E0,-1.096719074E1,1.184106267E1
1.357997623E1,4.417463839E-1,-4.917911530E0,-9.113862038E0,1.036549444E1
1.359677973E1,1.021707296E0,-3.920752764E0,-6.800128937E0,7.915676951E0
1.361358674E1,1.344267130E0,-2.929025650E0,-6.056666851E0,6.860718528E0
1.363039312E1,1.195299149E0,-2.062747478E0,-7.589162827E0,7.954813613E0
1.364720019E1,8.060379624E-1,-2.009233475E0,-9.799391747E0,1.003567611E1
1.366400714E1,6.251025200E-1,-1.773375273E0,-1.077258396E1,1.093545510E1
1.368081039E1,1.119595528E0,-1.995664001E0,-6.910294533E0,7.279308997E0
1.369763261E1,8.123206496E-1,-2.285393476E0,-4.580591202E0,5.183117203E0
1.371444016E1,3.079955578E-1,-8.759121895E-1,-4.408006191E0,4.504731070E0
1.373124614E1,6.442617178E-1,7.860319614E-1,-2.607932091E0,2.798969309E0
1.374805363E1,3.197634816E-1,3.534464836E-1,2.753524780E-1,5.504471710E-1
1.383208676E1,5.942369461E0,-6.624659538E0,3.047755814E1,3.175026644E1
1.384889125E1,4.863564491E0,-5.108155727E0,2.828429222E1,2.915044941E1
1.386567029E1,4.568199635E0,-1.640875816E0,2.298906326E1,2.349591350E1
1.388250262E1,3.567555904E0,1.076041102E0,1.492097950E1,1.537923759E1
1.389931287E1,1.804960251E0,2.944764137E0,4.845807076E0,5.950744789E0
1.391611832E1,-2.923743725E-1,3.585634232E0,-2.918799400E0,4.632671535E0
1.393291332E1,-1.303082943E0,2.717010975E0,-7.835885525E0,8.395312725E0
1.394971781E1,-1.674857378E0,1.649916053E0,-1.182653618E1,1.205795705E1
1.396652934E1,-1.899758101E0,1.602000952E0,-1.536202812E1,1.556172856E1
1.398333125E1,-1.860604525E0,1.628104210E0,-1.645111465E1,1.663585723E1
1.400013896E1,-1.516089439E0,6.587712765E-1,-1.535644150E1,1.544515465E1
1.401694101E1,-1.170287132E0,-6.781525612E-1,-1.393646049E1,1.400194251E1
1.403375682E1,-5.979409218E-1,-2.270648003E0,-1.113324833E1,1.137816304E1
1.405055826E1,-2.566304207E-1,-2.799210548E0,-7.515257835E0,8.023748451E0
1.406736590E1,5.722707510E-2,-3.016361713E0,-5.086351395E0,5.913770661E0
1.408416916E1,2.861983776E-1,-2.866987944E0,-5.146267414E0,5.897931644E0
1.410098058E1,-3.204596043E-2,-1.677040219E0,-6.977124214E0,7.175914795E0
1.411779856E1,-4.263657331E-2,-1.989805937E0,-9.735085487E0,9.936449818E0
1.414310270E1,1.122753322E-1,-3.670373917E0,-7.258349419E0,8.134364555E0
1.415981319E1,4.809513688E-2,-3.464108467E0,-4.980765343E0,6.067156172E0
1.417664602E1,3.718988597E-1,-1.726385117E0,-4.108597755E0,4.472056557E0
1.419343080E1,7.048748732E-1,-1.479408741E-1,-5.233818531E0,5.283142200E0
1.421023000E1,1.982926488E0,3.914225101E-1,-4.381774426E0,4.825469527E0
1.422704425E1,2.919818878E0,-1.964007258E0,-4.001560211E-1,3.541580386E0
1.424383057E1,3.124061584E0,-4.429882050E0,6.698280334E0,8.616877346E0
1.426065375E1,1.609858274E0,-2.165565252E0,1.282647991E1,1.310724622E1
1.427743474E1,1.567102671E0,1.066686392E0,1.267067337E1,1.281169756E1
1.429425706E1,2.464882851E0,2.342229605E0,1.565435696E1,1.601938135E1
1.431106672E1,4.203293324E0,2.462968349E0,2.003868484E1,2.062238537E1
1.432787377E1,7.284417152E0,-8.742053509E-1,2.468895340E1,2.575599713E1
1.434467416E1,6.736039639E0,-3.232722282E0,2.354167366E1,2.469888909E1
1.436148053E1,3.758280754E0,-3.829494953E0,1.501421261E1,1.594416150E1
1.437829271E1,1.182400227E0,-3.858736515E0,6.058442116E0,7.279604293E0
1.439511179E1,-1.028188109E0,-1.509586811E0,7.266569138E-1,1.965719563E0
1.441192058E1,-2.456174374E0,5.500753522E-1,-3.955657005E0,4.688560311E0
1.442870750E1,-3.025989056E0,1.428574085E0,-9.086408615E0,9.682987927E0
1.444551753E1,-3.263961315E0,1.585509658E0,-1.181243992E1,1.235722546E1
1.446232235E1,-2.957242489E0,9.809385538E-1,-1.247423744E1,1.285745400E1
1.447912717E1,-2.627576351E0,3.031110764E-1,-1.163155556E1,1.192850026E1
1.449593753E1,-2.094814062E0,-4.256020188E-1,-9.630139351E0,9.864530752E0
1.451274448E1,-1.558865428E0,-7.299796939E-1,-7.398548126E0,7.596146796E0
1.452955083E1,-1.226335287E0,-7.201589346E-1,-5.688009262E0,5.863102975E0
1.454635796E1,-1.055222511E0,-9.008845091E-1,-5.233928680E0,5.414711154E0
1.456316427E1,-1.291055202E0,-7.802510262E-1,-5.922092438E0,6.111202340E0
1.457997125E1,-1.300341249E0,-6.311181784E-1,-7.211115837E0,7.354548874E0
1.459677292E1,-1.446280718E0,-2.105156183E-1,-8.413681984E0,8.539677351E0
1.461358459E1,-1.387432456E0,2.131134272E-1,-9.053429604E0,9.161603230E0
1.463040855E1,-1.185471535E0,3.937098384E-1,-8.699081421E0,8.788308584E0
1.464721179E1,-9.316259623E-1,-1.251003146E-1,-7.709458828E0,7.766552159E0
1.466400197E1,-5.793886185E-1,-6.685802937E-1,-6.784633636E0,6.842071643E0
1.468082520E1,-3.960300088E-1,-2.377732992E-1,-6.721270561E0,6.737125045E0
1.469760205E1,9.607198834E-2,2.177470922E-1,-6.310503960E0,6.314990408E0
1.471443857E1,5.544257164E-1,-1.271586180E0,-3.960543633E0,4.196453878E0
1.473124320E1,6.950263977E-1,-2.885697842E0,-7.457876205E-1,3.060475927E0
1.474804844E1,1.503077507E0,-3.841899872E0,4.427650452E0,6.051737365E0
1.476484929E1,2.873752594E0,-1.786939859E0,8.916741371E0,9.537289170E0
1.478166372E1,4.051815987E0,-1.649443030E0,1.660528564E1,1.717187778E1
1.479845699E1,5.211545467E0,-7.940848827E0,3.071707535E1,3.215207620E1
1.481527839E1,5.567287922E0,-1.237819004E1,3.779681396E1,4.015984847E1
1.483206881E1,4.617906570E0,-8.983537674E0,3.285872650E1,3.437622605E1
1.484888653E1,2.772521496E0,-5.034504890E0,2.103631592E1,2.180733139E1
1.486570297E1,2.281116009E0,-1.075873017E0,1.032508564E1,1.062865873E1
1.488250108E1,2.627945662E0,2.451984644E0,5.905492783E0,6.913260598E0
1.489929647E1,2.306846142E0,3.755968571E0,3.706528664E0,5.759096610E0
1.491610450E1,1.273362279E0,2.717520952E0,-1.071961403E0,3.186765267E0
1.493291182E1,3.319966793E-2,2.620318651E0,-8.660615921E0,9.048394343E0
1.494972574E1,-1.309698582E0,3.856042862E0,-1.579837990E1,1.631481487E1
1.496652542E1,-2.441854239E0,3.964544535E0,-1.804128075E1,1.863244687E1
1.498333205E1,-3.082964420E0,2.389906883E0,-1.590109539E1,1.637257338E1
1.500013878E1,-3.344118595E0,2.478623986E-1,-1.318650627E1,1.360619391E1
1.501694542E1,-3.603909016E0,-9.965678453E-1,-1.117110920E1,1.178027964E1
1.503375221E1,-3.456646919E0,-1.134166479E0,-1.023249722E1,1.085996044E1
1.505055880E1,-3.150246859E0,-7.205494046E-1,-1.032913303E1,1.082285711E1
1.506736551E1,-2.760487556E0,-1.991848648E-1,-1.002960968E1,1.040447195E1
1.508417223E1,-2.522868156E0,2.528342605E-1,-9.442538261E0,9.777030107E0
1.510097886E1,-2.215098858E0,2.789950371E-2,-8.709882736E0,8.987185244E0
1.511778908E1,-1.926029682E0,-2.694833279E-1,-7.811794281E0,8.050238598E0
1.513460329E1,-1.479098558E0,8.404997587E-1,-7.533414841E0,7.723115405E0
1.515142555E1,-9.142508507E-1,1.734418631E0,-7.511530876E0,7.763192559E0
1.516821781E1,-7.362835407E-1,1.258303642E0,-6.883353233E0,7.036049548E0
1.518501025E1,2.366503775E-1,-1.903964996E0,-2.757882595E0,3.359613447E0
1.520183359E1,1.386090040E0,-4.971901417E0,4.127877235E0,6.609116414E0
1.521862305E1,3.582548618E0,-5.379599571E0,8.346321106E0,1.055631669E1
1.523544416E1,5.899789810E0,-4.923001766E0,1.020930958E1,1.277785069E1
1.525222999E1,7.139123917E0,-6.012161255E0,1.894698143E1,2.112110979E1
1.526906288E1,1.122218037E1,-1.088452148E1,3.724882507E1,4.039659775E1
1.528583289E1,1.465599155E1,-9.528540611E0,4.238199615E1,4.584566253E1
1.530266582E1,1.363111973E1,-1.337080359E0,3.148294640E1,3.433323641E1
1.531946331E1,8.866136551E0,3.538262844E0,1.796387863E1,2.034277800E1
1.533627272E1,3.321029902E0,2.113483429E0,8.939113617E0,9.767487091E0
1.535307975E1,1.667714119E-2,1.368723512E0,-1.534845352E0,2.056558395E0
1.536988329E1,-1.571045995E0,1.255419612E0,-1.223292828E1,1.239712862E1
1.538669635E1,-2.400342703E0,1.745200157E-1,-1.927485847E1,1.942452758E1
1.540351266E1,-2.426091433E0,2.170348167E-2,-2.317843628E1,2.330507024E1
1.542030763E1,-1.976557970E0,9.798462391E-1,-2.403936005E1,2.414037513E1
1.543711337E1,-1.362151027E0,3.090441227E-1,-2.198707199E1,2.203139347E1
1.545392001E1,-1.335510015E0,-1.394240737E0,-1.853429413E1,1.863457950E1
1.547072655E1,-1.290359974E0,-3.273047924E0,-1.436975861E1,1.479418244E1
1.548753335E1,-1.264390469E0,-4.378746986E0,-1.017928505E1,1.115302437E1
1.550434002E1,-1.266232371E0,-4.206540585E0,-8.014341354E0,9.139365156E0
1.552114696E1,-1.342659116E0,-2.470705986E0,-7.467097759E0,7.979014383E0
1.553795331E1,-1.014206529E0,-7.224456072E-1,-8.380399704E0,8.472404720E0
1.555475877E1,-1.191555738E0,8.506596088E-2,-9.932166100E0,1.000374753E1
1.557156680E1,-1.279664874E0,-1.428781152E0,-9.725955009E0,9.913281930E0
1.558837357E1,-9.721449614E-1,-2.238473654E0,-8.177459717E0,8.533854788E0
1.560518046E1,-1.345647275E-1,7.602548599E-2,-5.879940033E0,5.881970956E0
1.562200351E1,8.846190572E-1,-3.662495613E-1,-2.343114853E0,2.531180916E0
1.563880733E1,2.359982014E0,-3.111167908E0,4.196511269E0,5.732328295E0
1.565561468E1,4.841862679E0,-4.285114288E0,9.006514549E0,1.108707098E1
1.567242444E1,7.188101292E0,-2.234258652E0,1.623703766E1,1.789698589E1
1.568922570E1,1.087444305E1,-5.170504093E0,3.229159546E1,3.446352799E1
1.570602140E1,1.516808605E1,-9.757159233E0,4.350681305E1,4.709687646E1
1.572284160E1,1.469464207E1,-1.002773666E1,4.103795242E1,4.472808455E1
1.573963144E1,9.214191437E0,-3.129460812E0,2.872208786E1,3.032578408E1
1.575645530E1,4.773694038E0,-4.367587566E-1,1.595280647E1,1.665745921E1
1.577328112E1,1.374004841E0,3.065386415E-1,8.000837326E0,8.123746252E0
1.579006794E1,-8.415019512E-1,2.405590773E0,2.102839470E0,3.304077229E0
1.580686855E1,-2.559934616E0,4.456073761E0,-5.010670662E0,7.177512040E0
1.582368184E1,-4.017594337E0,4.413754463E0,-1.179241562E1,1.321678323E1
1.584047128E1,-4.812911510E0,4.079473495E0,-1.709363174E1,1.822082510E1
1.585729013E1,-5.063839912E0,3.913113594E0,-1.955895615E1,2.057930267E1
1.587410356E1,-5.156494617E0,2.487907648E0,-1.779094124E1,1.868948130E1
1.589090678E1,-4.801645756E0,2.033863068E-1,-1.489952850E1,1.565545009E1
1.590771664E1,-4.033255577E0,-1.542460918E0,-1.213504601E1,1.288043779E1
1.592450218E1,-3.006064892E0,-1.850854635E0,-9.385566711E0,1.002750974E1
1.594131741E1,-2.154285669E0,-1.419588804E0,-8.065168381E0,8.467769490E0
1.595812131E1,-1.753817201E0,-1.181600928E0,-7.828702927E0,8.109293745E0
1.597492793E1,-1.516799450E0,-8.097996712E-1,-7.517645836E0,7.711773790E0
1.599173478E1,-1.493730187E0,-1.242896080E0,-6.609089375E0,6.888837558E0
1.600854495E1,-1.473180890E0,-1.934110403E0,-5.880112171E0,6.362921038E0
1.602534254E1,-1.407052517E0,-1.969419003E0,-6.429512978E0,6.870010562E0
1.604215728E1,-1.130616784E0,-8.311047554E-1,-7.699530125E0,7.826352507E0
1.605894804E1,-8.845301867E-1,-3.761079013E-1,-7.668385506E0,7.728388388E0
1.607576873E1,-7.017512321E-1,-1.837113380E0,-5.767066002E0,6.093151125E0
1.609257500E1,-2.377349138E-2,-2.746006012E0,-4.683406830E0,5.429126424E0
1.610938169E1,1.205642700E0,-1.903028011E0,-4.569128513E0,5.094313036E0
1.612620369E1,2.320410490E0,-2.832475305E-1,-3.330417633E0,4.068932983E0
1.614300939E1,3.889192104E0,-1.216258049E0,1.846061707E0,4.473593934E0
1.615981211E1,6.972283363E0,-4.070298195E0,1.055741501E1,1.329056336E1
1.617662620E1,9.032260895E0,-4.768453121E0,2.174057770E1,2.402025397E1
1.619342685E1,6.264108181E0,-4.184631348E0,2.571245193E1,2.679328974E1
1.621023642E1,5.552285671E0,-5.530897141E0,2.106101799E1,2.247187527E1
1.622702699E1,5.856609344E0,-8.292895555E-1,2.062051392E1,2.145211384E1
1.624384967E1,7.233928680E0,2.510233879E0,2.362860489E1,2.483831651E1
1.626063351E1,6.563364983E0,2.753040791E0,2.590118408E1,2.686127939E1
1.627745988E1,3.061487436E0,1.525840998E0,2.213684464E1,2.239957112E1
1.629423190E1,-6.408355236E-1,7.391309738E-1,1.200827694E1,1.204805793E1
1.631104928E1,-2.899997234E0,1.677438259E0,-5.547971725E-1,3.395818454E0
1.632785695E1,-3.373441696E0,3.011470795E0,-1.296199799E1,1.372816291E1
1.634467451E1,-2.798768044E0,4.476859093E0,-2.221849060E1,2.283717790E1
1.636148368E1,-2.938194752E0,5.093293190E0,-2.427189636E1,2.497397800E1
1.637828580E1,-2.812241077E0,3.158977747E0,-2.028350639E1,2.071976042E1
1.639509903E1,-2.595367432E0,-1.134074926E-1,-1.416001511E1,1.439634749E1
1.641188621E1,-2.285760880E0,-2.178977013E0,-1.034553337E1,1.081677883E1
1.642871269E1,-2.140175819E0,-3.342280865E0,-8.440783501E0,9.327272915E0
1.644551202E1,-2.470134735E0,-3.599186420E0,-8.956768036E0,9.963904965E0
1.646232541E1,-3.003542423E0,-3.639125109E0,-1.021949673E1,1.125622548E1
1.647912621E1,-3.004963636E0,-3.049848080E0,-1.169765854E1,1.245658842E1
1.649593938E1,-2.489212513E0,-1.870356798E0,-1.237461376E1,1.276030874E1
1.651275762E1,-1.560791016E0,-7.733978033E-1,-1.072931957E1,1.086979812E1
1.652954640E1,-8.898669481E-1,-9.094266295E-1,-7.761263847E0,7.864867226E0
1.654635628E1,-1.626821160E-1,-1.226891518E0,-5.503706932E0,5.641145120E0
1.656316311E1,-8.573031425E-2,-1.223593831E0,-6.549878120E0,6.663740312E0
1.657996974E1,1.483106613E-2,-7.734529972E-1,-8.327360153E0,8.363215687E0
1.659677655E1,4.568147063E-1,-3.735700846E-1,-8.843862534E0,8.863528575E0
1.661358318E1,2.520182848E0,-1.241853237E0,-5.336419106E0,6.030828295E0
1.663040716E1,4.881434917E0,-3.574234247E0,1.171657562E0,6.162494523E0
1.664720788E1,7.231217384E0,-5.214416981E0,4.813196182E0,1.013151059E1
1.666400109E1,8.254220963E0,-6.829977989E0,8.763447762E0,1.384119864E1
1.668081973E1,1.098681355E1,-1.303922749E1,2.211788940E1,2.792727264E1
1.669763476E1,1.252676964E1,-1.295565033E1,3.701357269E1,4.116762559E1
1.671443751E1,1.098572826E1,-8.250040054E0,4.204621506E1,4.423385114E1
1.673124424E1,5.909281731E0,-6.057137012E0,3.762027359E1,3.856025810E1
1.674804589E1,-1.689904928E-1,-3.152833939E0,2.418543243E1,2.439065521E1
1.676485490E1,-3.091879129E0,-1.388027668E-1,1.415499401E1,1.448940434E1
1.678166414E1,-3.830979824E0,1.438802600E0,1.113457870E1,1.186277380E1
1.679847105E1,-3.680094004E0,2.086200714E0,9.381612778E0,1.029125763E1
1.681527743E1,-3.976147175E0,3.253517628E0,2.660444260E0,5.785593052E0
1.683208184E1,-3.363108873E0,3.519288540E0,-7.346126556E0,8.812574454E0
1.684886161E1,-2.740760565E0,4.198794365E0,-1.682611465E1,1.755732830E1
1.686569742E1,-2.346876621E0,5.271831512E0,-2.263916397E1,2.336304310E1
1.688250844E1,-1.562368751E0,4.851590157E0,-2.000615311E1,2.064521943E1
1.689930559E1,-1.276696563E0,2.010399103E0,-1.497934055E1,1.516747514E1
1.691609007E1,-1.667042017E0,-1.332634926E0,-1.250671387E1,1.268750711E1
1.693291441E1,-1.964080811E0,-2.410708666E0,-1.283027840E1,1.320171100E1
1.694971727E1,-1.948256254E0,-1.724385858E0,-1.219042587E1,1.246497862E1
1.696651956E1,-1.580122232E0,-2.003114939E0,-9.775820732E0,1.010326317E1
1.698333426E1,-9.647797346E-1,-1.842151165E0,-7.949243546E0,8.216738635E0
1.700013438E1,-4.595929384E-1,-5.176964998E-1,-7.730097294E0,7.761033405E0
1.701696193E1,-8.013045788E-2,1.668677926E-1,-7.762567520E0,7.764774321E0
1.703375091E1,5.490584373E-1,4.370315969E-1,-8.341987610E0,8.371452626E0
1.705055793E1,1.036853194E0,9.031413198E-1,-8.771896362E0,8.879014280E0
1.706736446E1,1.122998476E0,9.058820605E-1,-7.759262562E0,7.892268583E0
1.708416982E1,8.623893261E-1,-4.425719380E-1,-6.017768383E0,6.095336052E0
1.710097826E1,8.212180734E-1,-1.115924001E0,-4.845878601E0,5.040061995E0
1.711778749E1,1.756668091E0,-1.449925303E-1,-4.610913277E0,4.936337393E0
1.713460612E1,2.087320328E0,-3.580398858E-1,-3.338246822E0,3.953351813E0
1.715141150E1,1.192829609E0,-3.500359535E0,8.019981384E-1,3.783987363E0
1.716820227E1,2.035524845E0,-4.930961132E0,4.347908974E0,6.882009265E0
1.718502542E1,3.576826096E0,-2.591345310E0,8.577108383E0,9.647566722E0
1.720183239E1,4.739436626E0,-4.017648697E0,1.752819824E1,1.859681409E1
1.721863729E1,6.521500587E0,-6.196833611E0,2.659716034E1,2.807738689E1
1.723544576E1,9.176305771E0,-6.740773678E0,3.590435791E1,3.766650414E1
1.725225188E1,1.013156223E1,-6.025401592E0,4.092020035E1,4.258423199E1
1.726906921E1,6.481481552E0,-4.942139626E0,3.338891220E1,3.436937307E1
1.728586335E1,1.728211641E0,-2.746815920E0,2.115378952E1,2.140127389E1
1.730265224E1,-6.698072553E-1,-1.434699416E0,1.012711811E1,1.025014758E1
1.731946839E1,-7.318665385E-1,-1.537197232E0,4.339409828E0,4.661446301E0
1.733625283E1,-7.070106268E-1,-4.283308983E-1,-2.208309174E-1,8.556270676E-1
1.735307867E1,-1.401312709E0,1.194753945E-1,-6.359017372E0,6.512684056E0
1.736987531E1,-2.413297892E0,6.909581423E-1,-1.482742119E1,1.503841245E1
1.738669221E1,-2.791963339E0,8.691355586E-1,-2.206600571E1,2.225890976E1
1.740348569E1,-2.799656153E0,1.068964720E0,-2.568898773E1,2.586319491E1
1.742030535E1,-2.491632700E0,-8.775365353E-2,-2.195736313E1,2.209845537E1
1.743711250E1,-2.067131042E0,-2.121110439E0,-1.470213699E1,1.499749887E1
1.745391885E1,-1.584552169E0,-3.661676168E0,-9.950340271E0,1.072044539E1
1.747072575E1,-1.026569605E0,-3.312024355E0,-8.173919678E0,8.878981551E0
1.748753071E1,-8.776590228E-1,-1.860470533E0,-8.294897079E0,8.546166013E0
1.750435864E1,-8.950929046E-1,-8.469104171E-1,-9.360890388E0,9.441648025E0
1.752113981E1,-7.924019694E-1,7.278329134E-2,-9.686029434E0,9.718660632E0
1.753794257E1,-6.049846411E-1,9.389089346E-1,-9.016964912E0,9.085879849E0
1.755476198E1,-1.552548409E-1,8.095625043E-1,-6.868155956E0,6.917446187E0
1.757156360E1,2.786350548E-1,2.105594277E-1,-4.330766201E0,4.344825503E0
1.758837262E1,-3.531453013E-2,-1.061165333E-2,-3.874275208E0,3.874450685E0
1.760517835E1,-3.569853008E-1,1.393564343E-1,-5.983510017E0,5.995769413E0
1.762200129E1,-2.701293826E-1,3.299292922E-1,-7.897002220E0,7.908506008E0
1.763880680E1,6.287512183E-2,4.936219454E-1,-7.980068207E0,7.995567803E0
1.765561314E1,8.441823721E-1,-4.017846882E-1,-5.245551109E0,5.328215579E0
1.767239172E1,1.934736252E0,-1.692802191E0,-3.231455803E0,4.129296578E0
1.768922699E1,3.442595959E0,-1.252389431E0,-5.746612549E-1,3.708123755E0
1.770603347E1,5.335665226E0,4.495253563E-1,2.896407127E0,6.087739375E0
1.772283812E1,8.136291504E0,-6.114504337E0,1.256678009E1,1.617128209E1
1.773964760E1,9.201705933E0,-6.942284584E0,2.352225113E1,2.619471331E1
1.775645430E1,8.553010941E0,-2.192264080E0,2.920694733E1,3.051238749E1
1.777326023E1,7.271042824E0,-3.614498615E0,2.675382042E1,2.795889073E1
1.779007700E1,4.225625992E0,-2.065489769E0,2.077138138E1,2.129724037E1
1.780687460E1,1.019196033E0,-1.253025532E-1,1.875688362E1,1.878497124E1
1.782367000E1,1.400256157E0,2.019798279E0,2.059706497E1,2.074317690E1
1.784048736E1,1.860575914E0,7.223021984E-1,2.079705811E1,2.089260848E1
1.785728028E1,8.458022475E-1,-2.961275101E0,1.481573963E1,1.513243776E1
1.787410146E1,-1.318531513E0,-3.820013762E0,6.292892456E0,7.478738259E0
1.789087726E1,-2.017869949E0,-1.988725781E0,-6.595518112E0,7.178278940E0
1.790769683E1,-1.753177166E0,3.214352608E0,-1.412571144E1,1.459251235E1
1.792451211E1,-2.098944187E0,5.052508354E0,-1.329951859E1,1.438091103E1
1.794131075E1,-2.450574875E0,2.746674299E0,-1.187515354E1,1.243257047E1
1.795812402E1,-3.226220846E0,5.505175591E-1,-1.276083946E1,1.317386027E1
1.797492719E1,-3.406712055E0,-2.162085056E0,-1.370064163E1,1.428243256E1
1.799173416E1,-2.064589977E0,-3.931415081E0,-1.268007946E1,1.343513943E1
1.800855453E1,-9.718059897E-1,-3.548460484E0,-1.191422653E1,1.246935333E1
1.802534780E1,-6.204010248E-1,-3.018172026E0,-1.093086433E1,1.135685057E1
1.804214973E1,-7.044166327E-1,-2.359223366E0,-9.593835831E0,9.904737434E0
1.805896437E1,-8.982299566E-1,-1.815239787E0,-8.216653824E0,8.462583093E0
1.807576789E1,-1.404724836E0,-1.116991162E0,-7.692716599E0,7.899291727E0
1.809257439E1,-1.714081526E0,-5.111460686E-1,-7.904501915E0,8.104350455E0
1.810936927E1,-1.311190128E0,1.794939041E-1,-8.521024704E0,8.623183845E0
1.812620529E1,-1.228753448E0,1.809726715E0,-9.620557785E0,9.866107536E0
1.814300844E1,-1.181573987E0,1.728103280E0,-9.266651154E0,9.500172716E0
1.815981087E1,-9.302096367E-1,8.179607987E-1,-7.319527149E0,7.423599364E0
1.817662380E1,-6.329005957E-1,-4.026943445E-2,-6.096831799E0,6.129726158E0
1.819342880E1,-4.037399292E-1,-4.692122638E-1,-6.865585327E0,6.893433685E0
1.821023540E1,7.767552137E-2,1.728082061E0,-1.026645470E1,1.041116675E1
1.822704191E1,-5.250376463E-2,2.931198597E0,-1.169933605E1,1.206105907E1
1.824384654E1,7.354702353E-1,6.780648232E-1,-3.589019775E0,3.725822234E0
1.826065606E1,3.113751650E0,-2.889173031E0,7.252289772E0,8.404669956E0
1.827746227E1,4.385645866E0,1.134450912E0,1.198077202E1,1.280858176E1
1.829426845E1,5.175958157E0,1.787863135E0,2.066492081E1,2.137816525E1
1.831106749E1,6.237932205E0,-2.606259108E0,2.661594200E1,2.746111348E1
1.832787167E1,8.846096992E0,-2.599595308E0,2.876026344E1,3.020205425E1
1.834466201E1,1.069210339E1,-6.263971329E-2,2.922264862E1,3.111732943E1
1.836148150E1,9.367560387E0,-4.194426537E-1,2.502987480E1,2.672866911E1
1.837828888E1,6.890127659E0,-1.601483345E0,1.935533142E1,2.060746133E1
1.839509512E1,5.575780869E0,-4.421547890E0,2.046989250E1,2.167154625E1
1.841191370E1,4.119833946E0,-5.535079956E0,1.926560974E1,2.046396493E1
1.842870660E1,1.586022854E0,-3.690564632E0,1.089640045E1,1.161323721E1
1.844550470E1,5.324869752E-1,-6.709160805E-1,5.435667038E-1,1.014463172E0
1.846232204E1,3.331939280E-1,2.139524221E0,-1.096193027E1,1.117374143E1
1.847912916E1,1.873266995E-1,4.076062679E0,-1.777886391E1,1.824109043E1
1.849594664E1,-1.927696168E-1,4.425687790E0,-1.687494850E1,1.744671200E1
1.851276065E1,-7.993215322E-1,1.966755867E0,-1.240668774E1,1.258701490E1
1.852954550E1,-2.712127209E0,-6.192429066E-1,-9.674304962E0,1.006634354E1
1.854635608E1,-4.306468010E0,-3.051004648E0,-9.628021240E0,1.097966708E1
1.856315867E1,-5.114392281E0,-4.822011948E0,-1.152921867E1,1.350302525E1
1.857997208E1,-5.267066479E0,-5.104699612E0,-1.014107132E1,1.251564121E1
1.859677590E1,-4.877921104E0,-4.778142929E0,-7.700560570E0,1.029190931E1
1.861358268E1,-4.539636612E0,-3.532690287E0,-8.104017258E0,9.937972476E0
1.863039943E1,-4.332565308E0,-1.739501476E0,-1.001267529E1,1.104765377E1
1.864721549E1,-3.690111399E0,9.048223495E-2,-1.169406509E1,1.226280015E1
1.866400028E1,-2.598248243E0,2.918983698E-1,-1.134983730E1,1.164709858E1
1.868081479E1,-1.884057760E0,-1.247924566E0,-8.094278336E0,8.403828362E0
1.869760866E1,-1.436361790E0,-2.833842039E0,-5.630569458E0,6.465068315E0
1.871443689E1,-1.129560590E0,-3.682054043E0,-5.706919670E0,6.884937271E0
1.873124212E1,-1.228958368E0,-2.560132027E0,-9.244362831E0,9.670721732E0
1.874805113E1,-7.148743868E-1,9.970092773E-2,-1.280935669E1,1.282967671E1
1.876485832E1,-1.456495225E-1,8.764147758E-1,-1.154627609E1,1.158040622E1
1.878166358E1,7.621046901E-1,-1.606723785E0,-7.187877655E0,7.404589797E0
1.879847068E1,1.615858316E0,-3.158053637E0,-3.423334122E0,4.929859773E0
1.881527526E1,2.412125826E0,-1.266623259E0,-3.679378986E0,4.578265524E0
1.883208460E1,3.571532249E0,1.181049466E0,-5.913058281E0,7.008207951E0
1.884889030E1,7.351706505E0,-3.928384781E0,-3.234494209E0,8.941014949E0
1.886569076E1,1.222268295E1,-6.841364861E0,1.078230286E1,1.767643365E1
1.888250232E1,1.552427673E1,-2.423178196E0,4.278023529E1,4.557437320E1
1.889928075E1,1.693423080E1,-5.455410480E0,6.127704620E1,6.380757062E1
1.891610048E1,1.179996872E1,-6.837499142E-2,4.505471039E1,4.657435845E1
1.893290060E1,4.030553341E0,6.197959900E0,2.733795166E1,2.832002239E1
1.894971706E1,1.502056599E0,5.468145847E0,2.104416275E1,2.179480624E1
1.896650485E1,1.727645993E0,5.009251118E0,1.647821045E1,1.730921076E1
1.898333064E1,2.388704777E0,3.172799110E0,1.222869301E1,1.285742966E1
1.900015977E1,1.421057105E0,2.281252384E0,5.030648232E0,5.703589867E0
1.901695466E1,-3.875565231E-1,2.247402668E0,-8.133321762E0,8.447007855E0
1.903375088E1,-1.509914994E0,1.738116264E0,-2.007762527E1,2.020920404E1
1.905055747E1,-2.084023476E0,2.606206894E0,-2.535998154E1,2.557858737E1
1.906735213E1,-1.414561749E0,2.291668653E0,-2.015588379E1,2.033500385E1
1.908417018E1,-1.442894578E0,-3.135067225E-1,-1.242949772E1,1.251689437E1
1.910097845E1,-1.591248035E0,-3.343506813E0,-9.598943710E0,1.028838318E1
1.911778733E1,-1.386687160E0,-4.423240662E0,-1.030419636E1,1.129886816E1
1.913460357E1,-5.841447115E-1,-3.675904274E0,-1.090970802E1,1.152715170E1
1.915140774E1,-2.363679111E-1,-2.728754282E0,-1.046298409E1,1.081554463E1
1.916821848E1,-2.284039259E-1,-2.823764563E0,-9.474076271E0,9.888576027E0
1.918501205E1,-2.955252528E-1,-3.309929848E0,-8.533025742E0,9.157264825E0
1.920181783E1,-6.635649204E-1,-2.911576509E0,-8.692241669E0,9.190901011E0
1.921862514E1,-4.487453699E-1,-1.880488873E0,-1.022024536E1,1.040149153E1
1.923543167E1,1.948333383E-1,-9.072301388E-1,-1.129830933E1,1.133634951E1
1.925223816E1,6.381273866E-1,9.994626045E-2,-1.156402397E1,1.158204845E1
1.926904477E1,1.042120337E0,-2.474162579E-1,-1.004080200E1,1.009776879E1
1.928586937E1,1.407414556E0,-2.017699480E0,-8.669225693E0,9.011514913E0
1.930267225E1,2.150290966E0,-2.376397133E0,-7.855673313E0,8.484257055E0
1.931947260E1,2.802751541E0,1.017444134E-1,-5.839105129E0,6.477724665E0
1.933625810E1,3.250874758E0,9.759275913E-1,-2.595862865E0,4.273069783E0
1.935308686E1,3.914093971E0,-6.910731792E-1,2.184681892E0,4.535476681E0
1.936988540E1,5.101519585E0,1.616590023E-1,9.356888771E0,1.065847096E1
1.938669233E1,4.835603237E0,3.804578781E0,2.033208847E1,2.124268580E1
1.940349872E1,4.273838043E0,-1.395929098E0,3.553949738E1,3.582276069E1
1.942029179E1,6.998455048E0,-3.524328470E0,3.701357651E1,3.783390160E1
1.943711221E1,8.210753441E0,3.243687868E0,2.480134392E1,2.632574108E1
1.945392698E1,9.382690430E0,8.803588867E0,2.205625534E1,2.553461291E1
1.947072566E1,8.740394592E0,8.851399422E0,2.529966736E1,2.819246243E1
1.948753313E1,6.037186146E0,2.178479910E0,2.324783897E1,2.411753321E1
1.950435330E1,2.116082907E0,-2.670613527E0,1.201577568E1,1.248954958E1
1.952111953E1,-1.253240705E-1,-2.613891840E0,-2.995963573E0,3.977930920E0
1.953795342E1,-1.985959411E0,2.094041109E0,-1.323390770E1,1.354493839E1
1.955475889E1,-3.940296173E0,3.907534838E0,-1.804458618E1,1.887860834E1
1.957156584E1,-5.063258171E0,8.747115135E-1,-1.654465103E1,1.732417909E1
1.958837306E1,-5.525247097E0,-2.643807650E0,-1.390552902E1,1.519479555E1
1.960517924E1,-5.496708393E0,-4.641883850E0,-1.234540176E1,1.428880098E1
1.962200197E1,-4.269757748E0,-5.126003265E0,-1.133700752E1,1.315425712E1
1.963879886E1,-2.768445492E0,-3.972716331E0,-1.053384590E1,1.159347553E1
1.965562166E1,-2.250355721E0,-4.038075924E0,-9.572704315E0,1.063046687E1
1.967241613E1,-1.994737148E0,-4.564437866E0,-8.057186127E0,9.472661590E0
1.968923117E1,-1.561708093E0,-4.924010277E0,-6.567784786E0,8.355872568E0
1.970603344E1,-5.441840291E-1,-3.833368301E0,-6.562150002E0,7.619229714E0
1.972284027E1,2.760710716E-1,-1.274632931E0,-7.637867928E0,7.748414730E0
1.973962623E1,6.737067699E-1,-4.900407791E-2,-8.852633476E0,8.878367061E0
1.975646152E1,8.771381378E-1,-1.455421209E0,-9.012131691E0,9.170939964E0
1.977325849E1,1.012625694E0,-3.622810602E0,-9.658066750E0,1.036476825E1
1.979006770E1,1.142843008E0,-4.716866493E0,-1.025378704E1,1.134438488E1
1.980687366E1,1.806447029E0,-2.551793098E0,-9.972246170E0,1.045086564E1
1.982367399E1,2.394534111E0,3.885533810E-1,-8.956563950E0,9.279267488E0
1.984049191E1,2.252963781E0,7.226481438E-1,-8.397081375E0,8.724049619E0
1.985728984E1,2.307565689E0,-9.393720627E-1,-8.966615677E0,9.306313770E0
1.987410105E1,2.667910337E0,-2.860786915E0,-8.990208626E0,9.804371396E0
1.989089062E1,3.684167624E0,-1.547295570E0,-4.226571083E0,5.816452336E0
1.990770006E1,6.637872219E0,-3.707112074E-1,7.171480179E0,9.779003137E0
1.992450733E1,1.191582012E1,-2.758012533E0,2.380137253E1,2.676002124E1
1.994130085E1,1.551063156E1,-7.561859131E0,4.414237976E1,4.739526449E1
1.995812043E1,1.458993435E1,-4.486579895E0,4.892065048E1,5.124671333E1
1.997491975E1,1.104707050E1,7.271502614E-1,3.574656296E1,3.742169528E1
1.999175133E1,7.787416458E0,5.800856113E0,2.449738312E1,2.635176591E1
2.000853534E1,5.465176582E0,4.787209511E0,2.234463882E1,2.349613615E1
2.002534811E1,4.010375977E0,1.142338753E0,1.790093231E1,1.838019127E1
2.004213534E1,1.172741652E0,4.985766411E-1,6.285700798E0,6.413574368E0
2.005896104E1,-1.649133682E0,2.694704056E0,-1.316930962E1,1.354296081E1
2.007578119E1,-3.523510218E0,4.329526901E0,-2.374896240E1,2.439617066E1
2.009256985E1,-4.202319145E0,4.201399803E0,-2.260288239E1,2.337095502E1
2.010938460E1,-4.054754257E0,2.129813910E0,-1.984545517E1,2.036711149E1
2.012620303E1,-4.474779606E0,-9.130014181E-1,-1.606473160E1,1.670128215E1
2.014301060E1,-4.430209637E0,-3.707498550E0,-1.341245556E1,1.460363883E1
2.015980706E1,-3.519429922E0,-5.044290543E0,-1.142799664E1,1.297807232E1
2.017662997E1,-2.696541309E0,-4.673469067E0,-9.497255325E0,1.092293490E1
2.019342471E1,-2.681972265E0,-3.689239025E0,-8.190886497E0,9.375184341E0
2.021023960E1,-2.250260830E0,-2.869653702E0,-7.765892506E0,8.579491394E0
2.022703631E1,-1.550942302E0,-2.469869852E0,-9.159606934E0,9.612704005E0
2.024385270E1,-3.646741509E-1,-1.898045301E0,-9.987778664E0,1.017306669E1
2.026065147E1,3.192449510E-1,-1.296500444E0,-9.020008087E0,9.118298999E0
2.027746648E1,7.067478895E-1,-1.649558902E0,-7.015422821E0,7.241318561E0
2.029426937E1,7.052310705E-1,-1.757299066E0,-4.300555706E0,4.698960550E0
2.031107605E1,1.458030462E0,-1.976228356E0,-3.535787106E0,4.305011243E0
2.032787858E1,2.222524405E0,-1.164580584E0,-5.427809715E0,5.979714121E0
2.034466396E1,3.438714981E0,-1.002963066E0,-3.939105988E0,5.324213709E0
2.036148206E1,4.182568550E0,-2.432846308E0,1.454313278E0,5.052489282E0
2.037828919E1,3.808038235E0,-3.529174089E0,4.400538445E0,6.805950599E0
2.039509581E1,3.453654289E0,-1.612020969E0,3.714992523E0,5.322359346E0
2.041190088E1,4.184860706E0,1.947137117E0,7.545909882E0,8.845629318E0
2.042870928E1,3.707505941E0,2.588202238E0,1.740846252E1,1.798607680E1
2.044551585E1,3.537968397E0,-7.232837677E-1,2.616790390E1,2.641589586E1
2.046232239E1,4.478796482E0,5.598864555E-1,2.475989342E1,2.516794415E1
2.047914574E1,7.502349854E0,4.087842941E0,2.118780327E1,2.284554050E1
2.049593361E1,8.741757393E0,3.325057030E0,2.230972672E1,2.419087085E1
2.051275673E1,7.851899147E0,-5.095827579E-1,2.116518021E1,2.258045278E1
2.052953240E1,5.018321991E0,-8.275152445E-1,1.456464577E1,1.542715928E1
2.054635496E1,2.112730980E0,-8.336782455E-2,6.297586441E0,6.643054822E0
2.056315538E1,4.975811243E-1,1.024048924E-1,-2.647301197E0,2.695603340E0
2.057996913E1,-1.729676723E-1,1.636933923E0,-7.631076813E0,7.806587206E0
2.059677698E1,-1.206403971E-1,3.349766254E0,-1.037709141E1,1.090502243E1
2.061358428E1,-1.171373129E-1,3.162584782E0,-1.152124310E1,1.194800009E1
2.063040577E1,-1.020526886E-2,1.527088523E0,-1.211067390E1,1.220657716E1
2.064720630E1,1.949051619E-1,7.041779757E-1,-1.176967239E1,1.179232983E1
2.066404689E1,4.896645546E-1,-4.297351837E-2,-1.142190266E1,1.143247473E1
2.068081814E1,8.726830482E-1,-6.277642250E-1,-1.067484951E1,1.072884317E1
2.069763452E1,1.349218845E0,-6.865317822E-1,-1.005076694E1,1.016413467E1
2.071443714E1,1.670791388E0,-8.831858635E-1,-9.846542358E0,1.002626339E1
2.073121713E1,1.873715878E0,-1.080883026E0,-9.605594635E0,9.846144809E0
2.074804722E1,2.222736359E0,-1.228909254E0,-8.305717468E0,8.685373771E0
2.076486131E1,2.502044916E0,-1.580411911E0,-6.213136196E0,6.881932284E0
2.078166431E1,2.908343315E0,-2.360055685E0,-4.833757877E0,6.115025666E0
2.079847044E1,2.649226665E0,-2.208760023E0,-7.298221588E0,8.072240155E0
2.081527771E1,2.156656027E0,-1.142276645E0,-9.138949394E0,9.459194320E0
2.083208291E1,2.045381308E0,-1.459376693E0,-7.352583885E0,7.770061442E0
2.084889256E1,1.961072206E0,-2.019282818E0,-4.893880844E0,5.645651159E0
2.086569593E1,2.290956497E0,-1.867360115E0,-2.269939423E0,3.726679548E0
2.088248764E1,2.281371593E0,-1.587481856E0,5.943384171E-1,2.842181054E0
2.089929754E1,1.123460293E0,4.762368202E-1,2.791672707E0,3.046703307E0
2.091610417E1,-2.557022572E-1,3.635726213E0,7.748841286E0,8.563202089E0
2.093289824E1,1.051084399E0,5.978055954E0,1.628560257E1,1.737995347E1
2.094971714E1,1.934320450E0,5.848608971E0,2.243708611E1,2.326737319E1
2.096652477E1,4.607160091E0,4.551535606E0,2.506396675E1,2.588715569E1
2.098336882E1,7.211010933E0,7.547308922E0,2.630261993E1,2.829820429E1
2.100014954E1,4.845520496E0,6.192833424E0,2.481394577E1,2.603002419E1
2.101693846E1,4.023858070E0,1.856835604E0,1.944425392E1,1.994287549E1
2.103375120E1,4.748174191E0,3.533327579E-1,1.282788754E1,1.368300774E1
2.105054174E1,4.275530815E0,-6.143934727E-1,6.835759163E0,8.086114421E0
2.106736499E1,3.289913177E0,-9.407198429E-1,-1.488569260E0,3.731530648E0
2.108415221E1,1.774693847E0,-1.690034866E-1,-9.805236816E0,9.965980607E0
2.110098196E1,7.511948347E-1,-4.133644104E-1,-1.323438835E1,1.326213402E1
2.111778730E1,8.643772602E-1,-2.370944977E0,-1.356329155E1,1.379606487E1
2.113460801E1,2.453339100E-2,-2.781975746E0,-1.263340759E1,1.293611141E1
2.115140976E1,3.604716063E-1,-2.714827299E0,-1.272936726E1,1.302063815E1
2.116821487E1,7.890577316E-1,-2.840414762E0,-1.247973824E1,1.282319908E1
2.118502757E1,1.358342409E0,-3.110620260E0,-1.180189514E1,1.228030054E1
2.120182506E1,1.705487013E0,-3.676709175E0,-1.094542313E1,1.167172497E1
2.121863044E1,1.839230537E0,-4.457953453E0,-1.041638470E1,1.147855340E1
2.123545167E1,2.093247890E0,-5.178915501E0,-9.880954742E0,1.135059995E1
2.125224907E1,2.373904467E0,-4.831709385E0,-9.891036034E0,1.126114700E1
2.126905520E1,2.906031847E0,-2.867190599E0,-1.108092880E1,1.180901292E1
2.128587005E1,3.188717604E0,-1.468652487E0,-1.061411476E1,1.117963739E1
2.130267308E1,3.261465549E0,-1.587587237E0,-9.034962654E0,9.735920138E0
2.131947800E1,2.830605984E0,-3.426470518E0,-7.300153732E0,8.546652851E0
2.133628560E1,2.665493965E0,-4.741151810E0,-5.846495628E0,7.985292086E0
2.135306293E1,2.749364614E0,-4.187444210E0,-6.253739357E0,8.012674381E0
2.136988585E1,3.123578310E0,-1.076358557E0,-5.463504314E0,6.384760653E0
2.138669289E1,1.589320660E0,4.013872147E-1,-1.766975403E0,2.410239393E0
2.140349918E1,2.094165087E-1,-7.626681328E-1,3.618432045E0,3.703858585E0
2.142030621E1,5.914080143E-2,3.282818794E-1,9.768484116E0,9.774177640E0
2.143711280E1,1.830315590E-1,3.044638872E0,1.696589661E1,1.723789355E1
2.145391927E1,1.102419972E0,5.444499969E0,2.130983353E1,2.202196437E1
2.147072680E1,4.569390297E0,5.247922897E0,2.548092842E1,2.641396857E1
2.148754698E1,8.574633598E0,3.256734133E0,3.408698273E1,3.529947662E1
2.150436119E1,9.308778763E0,1.343099594E0,3.804319000E1,3.918853894E1
2.152114377E1,6.988801956E0,-1.106269360E-1,3.003380966E1,3.083642836E1
2.153794119E1,4.528870106E0,3.753123283E-1,1.643479538E1,1.705151087E1
2.155476160E1,4.083173752E0,3.529733419E0,4.294739723E0,6.897544142E0
2.157155485E1,4.016772270E0,4.612302303E0,1.246518135E0,6.241922738E0
2.158837318E1,3.256466389E0,1.162151337E0,-1.932016850E0,3.960790095E0
2.160515759E1,2.650174618E0,-2.317298412E0,-8.935150146E0,9.603655844E0
2.162200183E1,1.646111131E0,-3.100334644E0,-1.505022049E1,1.545415457E1
2.163879067E1,1.189334869E0,-1.681681395E0,-2.205854607E1,2.215450348E1
2.165561539E1,1.386445880E0,-1.286066771E0,-1.994083023E1,2.003029980E1
2.167241943E1,1.963907003E0,-4.070880413E0,-1.363563347E1,1.436521835E1
2.168922418E1,1.640297174E0,-6.494178772E0,-1.146978760E1,1.328235522E1
2.170603660E1,1.518038034E0,-6.167814255E0,-1.369107437E1,1.509277607E1
2.172284059E1,2.016142368E0,-4.979021549E0,-1.308066750E1,1.414069828E1
2.173964767E1,2.423434258E0,-4.175659657E0,-1.175503254E1,1.270786989E1
2.175644928E1,2.264062405E0,-4.305147648E0,-9.864422798E0,1.099850499E1
2.177326618E1,1.744693041E0,-4.366369247E0,-8.613024712E0,9.812916432E0
2.179006381E1,1.591069698E0,-5.011899948E0,-7.792209148E0,9.400487609E0
2.180687832E1,1.693263412E0,-4.238605499E0,-8.120931625E0,9.315709743E0
2.182367936E1,2.102525234E0,-1.321305513E0,-8.672164917E0,9.020693153E0
2.184048863E1,2.363170624E0,5.594015121E-2,-7.205570221E0,7.583399429E0
2.185729428E1,1.880298376E0,-1.632040977E0,-4.535214424E0,5.173707530E0
2.187408434E1,2.393009663E0,-3.745753527E0,-2.829151154E-1,4.453897809E0
2.189089435E1,2.365523815E0,-1.262472868E0,3.362289429E0,4.300526812E0
2.190770073E1,1.845579624E0,4.016316414E0,6.828481674E0,8.134194715E0
2.192450822E1,3.390729427E-2,4.344481468E0,9.454974174E0,1.040539310E1
2.194131452E1,-1.425377369E0,1.576507092E-1,1.539376163E1,1.546041564E1
2.195812126E1,-1.506152153E-1,-8.456728458E-1,2.469512177E1,2.471005638E1
2.197490926E1,4.788546562E0,2.080820084E0,3.110848618E1,3.154358734E1
2.199175005E1,7.423577309E0,6.380623817E0,3.410684586E1,3.548378213E1
2.200855462E1,5.971834183E0,4.520421982E0,2.950988770E1,3.044553317E1
2.202535167E1,3.923905849E0,1.260867834E0,2.320820236E1,2.357132753E1
2.204215508E1,2.972854614E0,2.888720036E-1,1.519927788E1,1.548997610E1
2.205894961E1,2.412788868E0,-5.558757782E-1,6.317461967E0,6.785342564E0
2.207576834E1,1.897995234E0,-3.332629204E-1,-1.717330933E0,2.581215917E0
2.209255760E1,1.745062113E0,3.063764572E-1,-6.663065910E0,6.894603371E0
2.210938195E1,1.061794162E0,6.991117001E-1,-9.644269943E0,9.727697916E0
2.212618495E1,1.929377317E-1,1.095962524E-2,-1.295953846E1,1.296097921E1
2.214298257E1,2.953691483E-1,-1.387140751E0,-1.438643265E1,1.445616985E1
2.215979819E1,4.641777873E-1,-2.119666576E0,-1.339691162E1,1.357150281E1
2.217662353E1,5.787407160E-1,-3.047361135E0,-1.196240330E1,1.235801130E1
2.219341592E1,6.636065245E-1,-3.402328014E0,-1.184389591E1,1.234074876E1
2.221023891E1,7.441544533E-1,-4.529793739E0,-1.270543861E1,1.350929190E1
2.222702210E1,9.282623529E-1,-5.340579033E0,-1.292463493E1,1.401533601E1
2.224384585E1,1.347648263E0,-5.304532528E0,-1.229252625E1,1.345586945E1
2.226066025E1,1.616060376E0,-3.984855413E0,-1.153753281E1,1.231281394E1
2.227745748E1,2.036561966E0,-3.000822306E0,-1.136635208E1,1.193090436E1
2.229425658E1,2.220458508E0,-2.302663803E0,-1.130898285E1,1.175269287E1
2.231107241E1,2.378154278E0,-2.744933367E0,-9.949517250E0,1.059165570E1
2.232788701E1,2.410950661E0,-4.078143120E0,-8.830772400E0,1.002130109E1
2.234469072E1,2.238578796E0,-4.417723179E0,-8.409068108E0,9.759095222E0
2.236146889E1,2.494397163E0,-2.719375610E0,-6.230489254E0,7.241271799E0
2.237829255E1,2.459782362E0,-1.904284716E0,-4.396796703E0,5.385967954E0
2.239509644E1,1.759033918E0,-2.180760622E0,-1.393810272E0,3.129316905E0
2.241190169E1,6.500360966E-1,-2.379692554E0,1.747390747E0,3.023054416E0
2.242871296E1,-4.310600758E-1,-1.628239870E0,4.463478088E0,4.770703775E0
2.244551359E1,-5.572476983E-1,8.836913109E-2,9.349942207E0,9.366950058E0
2.246232488E1,-3.230509162E-1,3.067659616E0,1.472743988E1,1.504700578E1
2.247914263E1,2.988078594E0,6.224628448E0,2.013352585E1,2.128458306E1
2.249595196E1,7.509108543E0,6.720368862E0,2.871989441E1,3.043653074E1
2.251275754E1,1.086903954E1,2.973742008E0,3.467871475E1,3.646357660E1
2.252954698E1,1.091491413E1,7.326889038E-1,3.000839615E1,3.194019447E1
2.254635694E1,9.182215691E0,2.218456507E0,1.990882874E1,2.203624505E1
2.256316358E1,7.830659866E0,2.805686712E0,1.026855469E1,1.321492820E1
2.257997730E1,4.385387897E0,-4.577789307E-1,4.808999062E0,6.524389668E0
2.259677580E1,1.935458779E0,-3.320960999E0,2.125699043E0,4.392422915E0
2.261358380E1,2.042250156E0,-5.081201553E0,-4.713420868E-1,5.496504188E0
2.263040745E1,1.676045179E0,-4.425539017E0,-4.496156693E0,6.527629588E0
2.264719421E1,7.275122404E-1,-8.291316032E-1,-1.047010326E1,1.052804804E1
2.266400148E1,-1.250289917E0,2.068909168E0,-1.476044846E1,1.495708690E1
2.268080934E1,-2.064677238E0,2.116869450E0,-1.579890060E1,1.607324761E1
2.269762751E1,-1.895926714E0,6.685904264E-1,-1.478438377E1,1.492044084E1
2.271442564E1,-1.971695423E0,3.681448698E-1,-1.350370216E1,1.365185283E1
2.273123939E1,-1.635484457E0,3.590012789E-1,-1.190794659E1,1.202509390E1
2.274805555E1,-4.941707253E-1,2.312636375E-2,-1.003743362E1,1.004961757E1
2.276485443E1,1.146757126E0,-5.429452658E-1,-1.055752754E1,1.063349563E1
2.278166804E1,1.304630876E0,-9.718185663E-1,-1.137751579E1,1.149323099E1
2.279847047E1,7.840105891E-1,-5.009800792E-1,-1.051432800E1,1.055541316E1
2.281526311E1,5.020365715E-1,-2.555783987E-1,-8.990544319E0,9.008176741E0
2.283207134E1,4.345680475E-1,-3.039374352E-1,-7.546125412E0,7.564736353E0
2.284887833E1,9.716252089E-1,-8.324880004E-1,-5.897583961E0,6.034781554E0
2.286568476E1,1.804600596E0,-1.285052299E0,-7.090974808E0,7.428988252E0
2.288249154E1,2.429890633E0,-1.711629152E0,-8.665315628E0,9.160880841E0
2.289928799E1,2.032673836E0,-1.438954949E0,-6.801220894E0,7.242855785E0
2.291610376E1,1.871964693E0,-1.691659689E0,-2.258012772E0,3.385939455E0
2.293290854E1,2.362668037E0,-3.254741430E0,3.682985306E0,5.453432203E0
2.294972194E1,3.156931877E0,-3.717651367E0,1.150158882E1,1.249294585E1
2.296654310E1,2.997804165E0,-2.223641396E0,1.632430267E1,1.674557460E1
2.298334259E1,2.529825449E0,4.175362587E-1,1.885564041E1,1.902917572E1
2.300015616E1,5.619586468E0,6.343122721E-1,2.393741035E1,2.459637613E1
2.301695611E1,8.850941658E0,-3.215092659E0,3.073971367E1,3.214974316E1
2.303375204E1,9.405077934E0,-5.451080322E0,3.204685974E1,3.384037510E1
2.305055901E1,5.107410908E0,-3.810390949E0,2.245515823E1,2.334178349E1
2.306736553E1,1.534618616E0,-3.122265339E0,9.904154778E0,1.049742240E1
2.308417251E1,-9.363130927E-1,-1.113447428E0,-4.792709351E-1,1.531714076E0
2.310097877E1,-1.691867113E0,1.730205894E0,-7.990563869E0,8.348960277E0
2.311778923E1,-1.837587357E0,3.486358881E0,-1.326293278E1,1.383606922E1
2.313459023E1,-2.161709547E0,3.180758953E0,-1.491473579E1,1.540258288E1
2.315141334E1,-2.540942430E0,2.444499493E0,-1.497395897E1,1.538347859E1
2.316821271E1,-2.250719070E0,2.369924784E0,-1.490365410E1,1.525782374E1
2.318502720E1,-1.781352878E0,2.391166687E0,-1.489472008E1,1.519024629E1
2.320182457E1,-1.318234682E0,1.707854986E0,-1.333948898E1,1.351282641E1
2.321864059E1,-9.006220102E-1,7.616760731E-1,-1.042804813E1,1.049454422E1
2.323542731E1,-8.739829063E-1,-3.992022276E-1,-7.021981716E0,7.087413898E0
2.325225599E1,-4.900675714E-1,-9.196774960E-1,-6.566213131E0,6.648392874E0
2.326906036E1,-2.736188471E-1,-7.776028514E-1,-7.307952881E0,7.354298660E0
2.328586796E1,3.124068379E-1,-6.670123339E-1,-8.590473175E0,8.621991235E0
2.330267340E1,1.054678917E0,8.997732401E-2,-9.140861511E0,9.201945050E0
2.331947258E1,1.467149973E0,-1.334190369E-2,-7.645488262E0,7.784998254E0
2.333629855E1,1.514942765E0,-1.622255087E0,-4.448366642E0,4.971391046E0
2.335308421E1,1.741047382E0,-2.710547209E0,-2.456042767E0,4.050982378E0
2.336987798E1,2.935184002E0,-2.597937346E0,-1.544144630E0,4.212952197E0
2.338669343E1,2.739681482E0,-3.261499882E0,-4.633617401E-1,4.284616693E0
2.340350039E1,2.876518250E0,-7.967142582E0,2.099382401E0,8.726804949E0
2.342030682E1,2.763395786E0,-8.269214630E0,5.318326950E0,1.021277966E1
2.343710077E1,5.686427593E0,-1.375982046E0,1.124571609E1,1.267654984E1
2.345392057E1,7.744431019E0,8.666790724E-1,1.972686768E1,2.121029591E1
2.347073048E1,8.680771828E0,-4.462895870E0,2.578237343E1,2.756817039E1
2.348754547E1,9.716467857E0,-8.210309029E0,3.506381989E1,3.730000519E1
2.350435521E1,6.468541622E0,-7.826235294E0,3.684128571E1,3.821481810E1
2.352114452E1,2.878349066E0,-4.821135998E0,2.811057091E1,2.866587592E1
2.353795416E1,7.969122529E-1,1.233543158E0,1.438742447E1,1.446218105E1
2.355475951E1,2.496766448E-1,1.613935471E0,3.986017227E0,4.307604841E0
2.357156797E1,2.300452441E-1,6.735525131E-1,-3.209383011E0,3.287359596E0
2.358837426E1,-3.432811499E-1,5.460414290E-2,-9.374056816E0,9.380499174E0
2.360518118E1,-1.448030829E0,9.843562841E-1,-1.482206345E1,1.492512363E1
2.362198833E1,-1.325775623E0,2.015053272E0,-1.939921951E1,1.954860196E1
2.363880819E1,-1.742472410E0,1.663542986E0,-1.859930992E1,1.875467715E1
2.365561507E1,-2.292742014E0,-1.453472972E-1,-1.414265633E1,1.432803265E1
2.367242210E1,-2.321401834E0,-2.180197716E0,-1.012626362E1,1.061524298E1
2.368922547E1,-2.342174053E0,-3.195424080E0,-9.428834915E0,1.022738687E1
2.370603550E1,-2.610053062E0,-2.306204796E0,-9.816912651E0,1.041646445E1
2.372283837E1,-2.567425728E0,-1.510841131E0,-9.532697678E0,9.987324006E0
2.373965073E1,-2.495995522E0,-1.223918319E0,-8.237573624E0,8.693997291E0
2.375643646E1,-2.246200562E0,-2.320033550E0,-5.997113705E0,6.811266066E0
2.377326875E1,-1.895335793E0,-4.462263107E0,-5.023855209E0,6.981633833E0
2.379004586E1,-1.408518314E0,-5.246974945E0,-5.592734814E0,7.797009209E0
2.380687016E1,-9.063417912E-1,-3.135529518E0,-7.426331043E0,8.111929090E0
2.382368647E1,-2.077022493E-1,-2.074288845E0,-7.866476059E0,8.138013272E0
2.384048156E1,7.298837900E-1,-2.934636116E0,-6.946696281E0,7.576371738E0
2.385728612E1,1.199374080E0,-1.715494752E0,-6.438066483E0,6.769794713E0
2.387408410E1,2.127037048E0,4.700713158E-1,-4.474353790E0,4.976454108E0
2.389089911E1,3.357377052E0,-7.426382303E-1,-2.953634262E-1,3.451192803E0
2.390769889E1,3.892893076E0,-6.392749310E0,6.753742218E0,1.008141330E1
2.392451233E1,4.647222996E0,-6.798791885E0,8.137340546E0,1.157741611E1
2.394132700E1,4.200386524E0,-8.414030075E-2,8.129406929E0,9.150824201E0
2.395814324E1,3.134284019E0,2.309721947E0,1.350530434E1,1.405531206E1
2.397494280E1,4.136837006E0,-2.138915539E0,2.565381813E1,2.607310424E1
2.399174994E1,3.748965025E0,-3.842524767E0,2.915041351E1,2.964061982E1
2.400855484E1,1.234639406E0,-3.065783024E0,2.314402771E1,2.337882329E1
2.402534612E1,1.657585144E0,-3.341531038E0,1.941988754E1,1.977486916E1
2.404215622E1,3.152442217E0,-1.951966763E0,1.655072784E1,1.696097457E1
2.405896288E1,2.764311552E0,-2.263509274E0,1.404505348E1,1.449235729E1
2.407577007E1,2.245402336E0,-5.780363083E-1,6.211157799E0,6.629814388E0
2.409257633E1,2.526084661E0,1.930431366E0,-3.815380573E0,4.966366669E0
2.410938312E1,2.037429571E0,3.788643599E0,-9.213411331E0,1.016818017E1
2.412620901E1,1.021474838E0,4.096443653E0,-1.096898651E1,1.175342191E1
2.414300325E1,1.299699247E-1,3.814084291E0,-1.300673294E1,1.355504456E1
2.415981322E1,-7.914794087E-1,2.468269825E0,-1.389435768E1,1.413407128E1
2.417660343E1,-1.169397712E0,4.136548042E-1,-1.373348522E1,1.378938786E1
2.419342889E1,-1.188286781E0,-8.768163919E-1,-1.276554966E1,1.285068444E1
2.421023318E1,-9.464146495E-1,-2.088582754E0,-1.133558273E1,1.156517680E1
2.422704875E1,-4.115784168E-1,-2.869333982E0,-1.035247326E1,1.075063611E1
2.424383016E1,-2.998274565E-2,-2.574706078E0,-9.557978630E0,9.898735568E0
2.426065603E1,-7.294994593E-2,-1.685417891E0,-9.671262741E0,9.817294850E0
2.427745714E1,-5.219024420E-2,-9.634851217E-1,-1.057424545E1,1.061817754E1
2.429426705E1,5.308894515E-1,-1.173398018E0,-1.014689827E1,1.022830636E1
2.431106505E1,1.037506819E0,-2.604929447E0,-8.388148308E0,8.844382955E0
2.432788038E1,1.200694680E0,-2.680984259E0,-8.678609848E0,9.162293010E0
2.434469062E1,1.759571791E0,-9.221680164E-1,-1.040460587E1,1.059255918E1
2.436148140E1,2.633183956E0,1.306533456E0,-1.076651669E1,1.116058103E1
2.437828056E1,2.209069252E0,2.648055553E-1,-4.356176376E0,4.891460065E0
2.439509476E1,2.185004950E0,-2.516211033E0,1.487921715E0,3.649585678E0
2.441190630E1,1.568726897E0,-2.467037201E0,3.832258224E0,4.820101630E0
2.442871121E1,8.474483490E-1,-3.532757759E0,8.031184196E0,8.814673317E0
2.444551671E1,1.678121209E0,-5.546895981E0,1.599866772E1,1.701591944E1
2.446232471E1,3.782657623E0,-1.819670200E0,2.157364273E1,2.197821101E1
2.447914861E1,7.578429222E0,9.939863682E-1,2.560855103E1,2.672486640E1
2.449595206E1,1.000167465E1,1.634494781E0,2.646291733E1,2.833709693E1
2.451275632E1,1.168008995E1,2.949372053E0,2.675967216E1,2.934626639E1
2.452954854E1,1.124319553E1,3.439855099E0,2.417457581E1,2.688219047E1
2.454635833E1,8.407590866E0,1.114107609E0,1.730081749E1,1.926777376E1
2.456316506E1,5.121704102E0,4.433965683E-1,1.097336578E1,1.211788802E1
2.457997195E1,2.260286331E0,9.996507168E-1,4.409208298E0,5.054632891E0
2.459677859E1,-1.399407387E-1,4.835274220E-1,-2.507392406E0,2.557420352E0
2.461358508E1,-1.909990311E0,-4.488216639E-1,-9.453350067E0,9.654808717E0
2.463040014E1,-2.876910210E0,-1.649356246E0,-1.431085205E1,1.469004679E1
2.464721148E1,-3.741148233E0,-2.681465626E0,-1.619319534E1,1.683466731E1
2.466400295E1,-3.680200100E0,-3.576397181E0,-1.612323380E1,1.692019969E1
2.468082631E1,-3.048773289E0,-4.530905724E0,-1.456126499E1,1.555167397E1
2.469761612E1,-2.413763523E0,-5.046524048E0,-1.306879807E1,1.421573572E1
2.471443986E1,-1.617762089E0,-4.839365959E0,-1.178027248E1,1.283789067E1
2.473122777E1,-1.213671803E0,-4.638498306E0,-1.094458008E1,1.194874466E1
2.474805310E1,-1.384720325E0,-4.520870209E0,-1.094548988E1,1.192306448E1
2.476483836E1,-1.640701890E0,-4.467478752E0,-1.071772957E1,1.172689201E1
2.478167292E1,-1.648692369E0,-4.063625813E0,-1.067537117E1,1.154100476E1
2.479845397E1,-1.452433825E0,-3.509781361E0,-1.029479885E1,1.097319519E1
2.481527592E1,-1.151378751E0,-2.286599159E0,-1.017687607E1,1.049395136E1
2.483207362E1,-8.197093010E-1,-1.636370897E0,-9.453328133E0,9.628865241E0
2.484887324E1,-2.974844575E-1,-2.521490812E0,-8.581471443E0,8.949193542E0
2.486568974E1,5.368915796E-1,-3.937377453E0,-6.233846664E0,7.392701672E0
2.488248722E1,1.389956117E0,-3.507861853E0,-2.472642899E0,4.511212219E0
2.489930545E1,2.432183027E0,-1.440161586E0,7.617406845E-1,2.927426949E0
2.491610312E1,4.456246853E0,-1.169131279E0,4.298324585E0,6.300841071E0
2.493291676E1,5.143612862E0,-3.214491367E0,8.243321419E0,1.023435665E1
2.494971999E1,5.063488007E0,-3.413758039E0,1.177929783E1,1.326817667E1
2.496652282E1,6.637728214E0,-1.393145561E0,1.958801270E1,2.072897807E1
2.498333347E1,8.975214005E0,-1.931080461E0,2.568578720E1,2.727715532E1
2.500014040E1,1.155633259E1,-2.142673492E0,2.657639694E1,2.905933150E1
2.501694349E1,1.234036446E1,1.608349085E-1,2.564971161E1,2.846433151E1
2.503374597E1,1.000793552E1,1.042376757E0,2.081218338E1,2.311692669E1
2.505056029E1,6.472550392E0,8.508127332E-1,1.404549217E1,1.548850029E1
2.506736710E1,3.211549044E0,3.780305386E-1,8.211080551E0,8.824896496E0
2.508417246E1,5.350058079E-1,5.170039535E-1,2.796336174E0,2.893617165E0
2.510098043E1,-1.337708950E0,8.761560321E-1,-3.115830898E0,3.502215986E0
2.511779010E1,-2.741615534E0,1.724337339E0,-8.567363739E0,9.159122034E0
2.513460459E1,-3.701124191E0,1.909220457E0,-1.225727844E1,1.294543618E1
2.515141156E1,-4.186122894E0,1.217069983E0,-1.319660282E1,1.389802901E1
2.516822139E1,-4.415760040E0,-9.310173988E-2,-1.290646362E1,1.364127589E1
2.518500853E1,-4.214399338E0,-1.038897872E0,-1.214633560E1,1.289860222E1
2.520183484E1,-4.058374405E0,-1.185560346E0,-1.138295746E1,1.214280349E1
2.521866325E1,-3.245770454E0,-1.344261765E0,-1.063122654E1,1.119665322E1
2.523544854E1,-2.451972485E0,-6.148055792E-1,-1.011039639E1,1.042162511E1
2.525225407E1,-1.789054990E0,4.950153828E-2,-9.204383850E0,9.376771844E0
2.526906229E1,-1.759953737E0,-3.554569483E-1,-7.813033104E0,8.016687164E0
2.528585646E1,-1.538281679E0,-2.228433132E0,-6.202070713E0,6.767415007E0
2.530267601E1,-1.173357248E0,-1.968360186E0,-6.513940811E0,6.905261323E0
2.531946588E1,-9.818947315E-1,-9.547829628E-2,-8.113544464E0,8.173300260E0
2.533628730E1,-4.323657453E-1,9.307682514E-1,-9.346799850E0,9.402974908E0
2.535308005E1,-9.669771791E-2,1.216914296E0,-8.142084122E0,8.233089620E0
2.536988827E1,9.726768732E-1,-6.404573917E-1,-2.452646732E0,2.715098887E0
2.538667866E1,2.194538593E0,-1.788320065E0,3.897598267E0,4.817194260E0
2.540350079E1,2.319617033E0,-8.150565624E-2,8.268578529E0,8.588169610E0
2.542031173E1,5.909245610E-1,1.931899667E0,1.175003529E1,1.192244763E1
2.543711398E1,-1.279562593E0,2.932267189E0,1.693271255E1,1.723230181E1
2.545392318E1,3.918992519E0,7.090027332E-1,3.308223343E1,3.332109476E1
2.547072834E1,1.141592216E1,-4.542272091E-1,4.381094742E1,4.527613847E1
2.548755325E1,1.326799202E1,-3.177537918E-1,3.468790054E1,3.714015379E1
2.550435578E1,1.105409908E1,1.087169647E-1,2.010309982E1,2.294209120E1
2.552113246E1,8.100737572E0,5.573167801E-1,1.315466404E1,1.545890479E1
2.553795617E1,5.423859119E0,-1.871953011E-1,9.365144730E0,1.082401153E1
2.555476252E1,3.457401752E0,-2.559675694E0,3.547820091E0,5.576073344E0
2.557156933E1,2.289392948E0,-3.783733368E0,-4.469576836E0,6.287692372E0
2.558837609E1,1.125257134E0,-4.737843037E0,-1.370737743E1,1.454666822E1
2.560518142E1,2.487777472E-1,-5.382268906E0,-1.946319962E1,2.019521845E1
2.562200476E1,-4.184602797E-1,-4.864604473E0,-2.075206757E1,2.131871933E1
2.563880225E1,-1.083363295E0,-5.024527550E0,-1.985727310E1,2.051172465E1
2.573125247E1,3.535915911E-1,-3.564332724E0,-9.669236183E0,1.031133469E1
2.574804644E1,5.622789860E-1,-4.118644238E0,-8.248673439E0,9.236882673E0
2.576540021E1,-3.559430838E-1,-4.403978348E0,-7.707713604E0,8.884287803E0
2.578167346E1,-9.401011467E-1,-4.513298988E0,-8.048433304E0,9.275286334E0
2.579846742E1,-1.223975062E0,-4.440199375E0,-8.784849167E0,9.919025170E0
2.581528002E1,-6.958044171E-1,-2.697197914E0,-9.164587021E0,9.578552899E0
2.583208430E1,-8.279140294E-2,-1.200190783E0,-9.026955605E0,9.106768901E0
2.584888010E1,2.825312018E-1,-2.052070618E0,-8.331657410E0,8.585297484E0
2.586568798E1,1.641679108E-1,-2.996845722E0,-8.015309334E0,8.558809444E0
2.588249358E1,1.112266183E0,-1.398380876E0,-6.248888016E0,6.499323547E0
2.589930040E1,4.299838066E0,1.484718204E0,-2.960529327E-1,4.558579042E0
2.591610812E1,6.789569855E0,-2.283837318E0,7.828059196E0,1.061096991E1
2.593291690E1,7.638980389E0,-1.003301048E1,1.495563126E1,1.956236762E1
2.594973454E1,7.586599350E0,-6.212868214E0,1.532938099E1,1.819742132E1
2.596654153E1,9.859288216E0,8.813662529E-1,1.782760048E1,2.039131456E1
2.598334622E1,1.364941978E1,-6.709267497E-1,2.581457520E1,2.920871609E1
2.600015604E1,1.339891052E1,-5.661750317E0,3.448427200E1,3.742661133E1
2.601695809E1,8.173334122E0,-5.879070759E0,3.385938263E1,3.532456165E1
2.603375433E1,4.072786331E0,-2.492465496E0,2.575002670E1,2.618900242E1
2.605054816E1,3.019855976E0,1.133256078E0,1.930279922E1,1.957043324E1
2.606736813E1,2.269311905E0,3.210164070E0,1.566568470E1,1.615142740E1
2.608417204E1,7.341122627E-1,5.094749451E0,8.234237671E0,9.710718964E0
2.610098139E1,-1.070000052E0,5.430353165E0,-2.046310425E0,5.900933990E0
2.611780004E1,-2.715345860E0,4.367786884E0,-1.101051807E1,1.215245546E1
2.613458914E1,-3.911415577E0,3.400102615E0,-1.629844856E1,1.710261077E1
2.615140465E1,-4.243235588E0,1.696541905E0,-1.680551910E1,1.741576226E1
2.616820798E1,-3.832449913E0,5.062436461E-1,-1.491788006E1,1.541061648E1
2.618501573E1,-3.457846880E0,-6.565107107E-1,-1.368760204E1,1.413287519E1
2.620181874E1,-3.011315584E0,-8.494042158E-1,-1.286287022E1,1.323793561E1
2.621863152E1,-2.212534428E0,-1.150149107E0,-1.088808441E1,1.116998360E1
2.623545313E1,-1.494024634E0,-1.559667826E0,-8.887290955E0,9.145961614E0
2.625225627E1,-1.430520177E0,-2.240352631E0,-7.509647369E0,7.966201824E0
2.626905944E1,-1.632637262E0,-2.762939930E0,-7.327552795E0,7.999523202E0
2.628587229E1,-1.903603673E0,-2.393633366E0,-8.142881393E0,8.698258735E0
2.630267046E1,-1.828314304E0,-1.218798876E0,-9.171665192E0,9.431205982E0
2.631948667E1,-1.781881690E0,2.495266199E-1,-9.672452927E0,9.838379516E0
2.633627270E1,-2.071678877E0,5.890643597E-2,-8.848134995E0,9.087618842E0
2.635308243E1,-2.054149866E0,-1.504693747E0,-6.844277382E0,7.302586379E0
2.636988960E1,-1.989597917E0,-1.682865381E0,-3.303052902E0,4.207219300E0
2.638668346E1,-1.528594732E0,1.862331867E0,2.251977921E-1,2.419833855E0
2.640350275E1,-1.061441779E0,3.902917862E0,3.404338837E0,5.286676593E0
2.642030932E1,6.516905427E-1,-1.376568079E0,1.023656368E1,1.034924520E1
2.643711642E1,2.552533150E0,-4.331341743E0,1.359423637E1,1.449410947E1
2.645392286E1,4.265652180E0,-4.432775974E-1,1.015713978E1,1.102541482E1
2.647072999E1,6.498485088E0,-1.612384439E0,9.736287117E0,1.181631833E1
2.648755033E1,7.993866444E0,-1.867907166E0,1.165617752E1,1.425683879E1
2.650435996E1,9.026391029E0,1.314922094E0,1.750627136E1,1.974016951E1
2.652114698E1,1.008272934E1,8.085381985E-1,2.138069153E1,2.365267713E1
2.653795697E1,8.398779869E0,6.954119205E-1,2.145131111E1,2.304738270E1
2.655476316E1,4.519221306E0,4.352748394E-1,1.929363823E1,1.982062818E1
2.657156872E1,2.099609375E0,4.333105087E-1,1.786019516E1,1.798840428E1
2.658837683E1,1.862340331E0,3.769079447E-1,1.692956543E1,1.703586090E1
2.660517475E1,1.967141867E0,-2.630589008E-1,1.240372467E1,1.256149803E1
2.662200404E1,1.992536783E0,-2.608399391E-1,4.300389290E0,4.746745027E0
2.663881117E1,1.243093491E0,2.094476223E-1,-5.455184937E0,5.598945653E0
2.665560173E1,1.462254763E0,-2.074990749E0,-9.905645370E0,1.022573155E1
2.667242102E1,1.959776163E0,-4.764213562E0,-1.223859215E1,1.327861406E1
2.668923055E1,1.836675286E0,-5.421883106E0,-1.518868160E1,1.623164321E1
2.670601988E1,2.392467499E0,-4.484443665E0,-1.891631126E1,1.958726544E1
2.672284015E1,3.188689470E0,-4.916271210E0,-1.947372818E1,2.033626201E1
2.673965603E1,4.202123642E0,-5.111616611E0,-1.773814392E1,1.893220054E1
2.675644932E1,4.818433762E0,-4.777195454E0,-1.572270584E1,1.712432128E1
2.677327215E1,4.701562881E0,-5.820880413E0,-1.362034225E1,1.554030455E1
2.679006696E1,3.983491659E0,-7.138197899E0,-1.229913521E1,1.476789768E1
2.680688288E1,3.541464806E0,-7.063686371E0,-1.218990707E1,1.452692234E1
2.682368213E1,3.612254381E0,-4.856631756E0,-1.316135597E1,1.448642622E1
2.684047737E1,3.800246239E0,-2.305963039E0,-1.195577717E1,1.275538885E1
2.685728469E1,3.722889423E0,-2.031434536E0,-8.482710838E0,9.483829137E0
2.687409169E1,3.577430964E0,-2.916084766E0,-5.035955906E0,6.830989280E0
2.689089793E1,3.252060413E0,-2.863337994E0,-2.364543915E0,4.936159370E0
2.690770472E1,2.468104362E0,-2.201190472E0,-3.468685150E-1,3.325221256E0
2.692451525E1,1.645825624E0,-4.470696449E-1,2.681165695E0,3.177619036E0
2.694131210E1,1.565934896E0,2.760364294E0,6.457913399E0,7.195582576E0
2.695811941E1,2.197122335E0,5.477051735E0,1.540406132E1,1.649577362E1
2.697494962E1,2.144009352E0,6.739515305E0,2.699245453E1,2.790359196E1
2.699175262E1,9.024961591E-1,6.381629944E0,2.942107391E1,3.011875313E1
2.700855796E1,4.861251712E-1,5.879829407E0,2.289659882E1,2.364451202E1
2.702534831E1,2.521751881E0,7.793148994E0,1.743128204E1,1.925985455E1
2.704215909E1,5.648636341E0,7.325986385E0,1.871663666E1,2.087797061E1
2.705896596E1,6.413040161E0,5.058078766E-1,2.139576721E1,2.234192875E1
2.707577122E1,5.103426933E0,-3.384292603E0,1.613059998E1,1.725383025E1
2.709256740E1,2.878860235E0,-2.913224220E0,6.182936668E0,7.416428888E0
2.710938573E1,1.226684570E0,-2.106751680E0,-2.070590973E0,3.198516008E0
2.712617806E1,5.280883312E-1,-1.072403431E0,-8.476998329E0,8.560866024E0
2.714301396E1,-3.115803599E-1,1.098657846E0,-1.295858574E1,1.300880762E1
2.715978776E1,-1.233283043E0,5.355801582E-1,-1.463806915E1,1.469969053E1
2.717663049E1,-1.231920123E0,-1.985212803E0,-1.422435760E1,1.441495912E1
2.719342050E1,-1.616364121E0,-4.168235302E0,-1.308903217E1,1.383147070E1
2.721023462E1,-1.553976655E0,-6.720104218E0,-1.104336929E1,1.302039360E1
2.722704809E1,-1.118459821E0,-7.792155266E0,-9.583523750E0,1.240211932E1
2.724384894E1,-7.673766017E-1,-6.702069283E0,-9.757109642E0,1.186203136E1
2.726064333E1,-6.779052019E-1,-5.998088837E0,-9.865324020E0,1.156551958E1
2.734467453E1,1.081127822E-1,-2.754518032E0,-1.235101604E1,1.265490637E1
2.736149084E1,-2.033039033E-1,-3.467259407E0,-1.146437836E1,1.197894784E1
2.737829260E1,1.023610830E-1,-3.110677719E0,-9.235452652E0,9.745787775E0
2.739509792E1,7.126189470E-1,-1.560034037E0,-7.241322517E0,7.441658670E0
2.741190105E1,1.550887465E0,5.843176842E-1,-1.866051197E0,2.495761639E0
2.742873563E1,1.985900402E0,-9.563496113E-1,6.332132339E0,6.704797160E0
2.744553221E1,-2.531075776E-1,-2.104616404E0,1.217171764E1,1.235492550E1
2.746234048E1,1.450949073E0,-1.378841162E0,1.572513390E1,1.585201224E1
2.747914719E1,8.534218788E0,3.852490902E0,2.961328888E1,3.105835563E1
2.749593632E1,1.313312340E1,3.810437679E0,4.022321320E1,4.248417641E1
2.751274666E1,1.113614941E1,-6.819362640E-1,3.838461304E1,3.997320826E1
2.752955327E1,5.983652592E0,6.031250954E-2,2.707354927E1,2.772696893E1
2.754636029E1,3.962922573E0,1.405666113E0,1.676594162E1,1.728518010E1
2.756316679E1,4.204237938E0,3.295622349E0,1.227392578E1,1.338603740E1
2.757997323E1,3.507934332E0,9.631619453E-1,7.011000633E0,7.898570383E0
2.759679773E1,2.706893682E0,-3.725235462E-1,3.319190979E0,4.299194803E0
2.761358461E1,1.473044395E0,1.129865646E-1,-3.069576263E0,3.406600093E0
2.763040746E1,5.650487542E-1,1.254544258E-1,-1.027972317E1,1.029600541E1
2.764719751E1,-4.187695980E-1,6.248209476E-1,-1.667840767E1,1.669536018E1
2.766399900E1,-9.047842026E-1,3.314957619E-1,-1.653190231E1,1.655996129E1
2.768082253E1,-3.395161629E-1,-5.926604271E-1,-1.384947395E1,1.386630616E1
2.769763419E1,2.730202675E-2,-2.220229149E0,-1.121446228E1,1.143216196E1
2.771443903E1,6.716740727E-1,-3.355468988E0,-1.009859753E1,1.066264462E1
2.773962573E1,1.182626009E0,-2.461521864E0,-9.590641022E0,9.971864889E0
2.775644856E1,1.211529374E0,-2.532284737E0,-9.283057213E0,9.698217394E0
2.777325068E1,1.141656995E0,-2.518379211E0,-9.122988701E0,9.532813718E0
2.779005725E1,1.216781616E0,-1.871063232E0,-8.967294693E0,9.240877081E0
2.780686439E1,1.339781642E0,-1.428490162E0,-8.835785866E0,9.050232641E0
2.782367587E1,1.292710543E0,-1.450714350E0,-8.295577049E0,8.520109815E0
2.784047868E1,7.959481478E-1,-2.683816195E0,-7.899090767E0,8.380455701E0
2.785728621E1,7.346768975E-1,-2.974096775E0,-7.475072384E0,8.078471942E0
2.787409254E1,1.177904725E0,-1.669305086E0,-6.469779968E0,6.784695413E0
2.789088632E1,1.759556293E0,-6.676476002E-1,-3.669956207E0,4.124363009E0
2.790770614E1,2.318515539E0,-1.866533995E0,-3.435277939E-1,2.996243449E0
2.792450353E1,2.597194672E0,-3.112856150E0,4.210654259E0,5.845075094E0
2.794133331E1,1.417380214E0,-2.508090734E0,9.413619041E0,9.844577658E0
2.795813945E1,1.101132989E0,-5.431008339E-1,9.648988724E0,9.726789592E0
2.797494770E1,8.653114438E-1,2.097381353E0,9.086269379E0,9.365258334E0
2.799174278E1,9.997507930E-1,1.292073727E0,1.242090607E1,1.252788345E1
2.800854302E1,3.015582561E0,1.689987659E0,1.969224930E1,1.999336087E1
2.802534015E1,5.916982174E0,1.385436058E0,2.685501671E1,2.753401594E1
2.804216205E1,6.273180008E0,-1.862787247E0,2.495698738E1,2.580065857E1
2.805896490E1,4.555849075E0,-3.322933912E0,1.712308884E1,1.802769597E1
2.807576816E1,3.756854773E0,-2.463632107E0,1.204511642E1,1.285567076E1
2.809258409E1,3.549412966E0,-8.161181211E-1,8.784108162E0,9.509202774E0
2.810940451E1,2.301045179E0,9.222877026E-1,6.113023758E-1,2.553255592E0
2.812620734E1,5.749568343E-1,1.220280886E0,-7.803423882E0,7.919159367E0
2.814301020E1,-4.959853888E-1,1.720547676E-1,-1.152815342E1,1.154010076E1
2.815982114E1,-8.802291155E-1,-2.777534723E-1,-1.231426525E1,1.234880881E1
2.817662748E1,-6.478027105E-1,-6.583633423E-1,-1.160512543E1,1.164182232E1
2.819343880E1,-4.115370512E-1,-1.163345456E0,-9.665573120E0,9.744025818E0
2.821024159E1,-6.137847900E-2,-2.007602930E0,-8.250963211E0,8.491915611E0
2.822704544E1,2.292596102E-1,-2.842144489E0,-8.026258469E0,8.517697475E0
2.824385534E1,6.003658772E-1,-2.878153324E0,-8.360220909E0,8.862138534E0
2.826066157E1,1.047730088E0,-2.222869158E0,-8.241353035E0,8.599929388E0
2.827746803E1,1.543921828E0,-1.207771301E0,-7.832828045E0,8.074379314E0
2.829427537E1,1.891241431E0,-1.212981343E0,-7.975115776E0,8.285565131E0
2.831107856E1,1.937497973E0,-2.323799372E0,-7.961197376E0,8.516725050E0
2.832787452E1,1.961356640E0,-3.498375416E0,-7.926480770E0,8.883391684E0
2.834468148E1,2.669204950E0,-2.345852137E0,-7.326844692E0,8.143115525E0
